condition,subject,trial,cat,x,y,xt,yt,resp,fb,rotation,su,target_angle_left,target_angle_right,rt,mt,ep
"{'cat': 'II', 'resp': 'button'}",107,1,B,42.48156756347231,32.32976612303077,2.1240783781736154,0.5078347787219482,A,Incorrect,0.0,0.0,45,-45,2687,-1,-1
"{'cat': 'II', 'resp': 'button'}",107,2,B,51.58259987977615,30.226357617210724,2.5791299939888073,0.4747945151750355,B,Correct,0.0,0.0,45,-45,1041,-1,-1
"{'cat': 'II', 'resp': 'button'}",107,3,A,51.73961009509434,63.07350066845742,2.5869805047547167,0.9907562316810836,B,Incorrect,0.0,0.0,45,-45,1886,-1,-1
"{'cat': 'II', 'resp': 'button'}",107,4,B,55.18735790054842,47.115858070014184,2.759367895027421,0.7400941679016796,A,Incorrect,0.0,0.0,45,-45,1549,-1,-1
"{'cat': 'II', 'resp': 'button'}",107,5,A,29.926606851991842,39.528141996732344,1.496330342599592,0.6209066025349426,B,Incorrect,0.0,0.0,45,-45,1404,-1,-1
"{'cat': 'II', 'resp': 'button'}",107,6,B,53.502644291605066,35.669411978310286,2.675132214580253,0.5602938131446368,B,Correct,0.0,0.0,45,-45,818,-1,-1
"{'cat': 'II', 'resp': 'button'}",107,7,B,47.72146703317897,37.950029329455106,2.3860733516589483,0.5961176667246666,B,Correct,0.0,0.0,45,-45,956,-1,-1
"{'cat': 'II', 'resp': 'button'}",107,8,A,49.05267620281372,62.30254708268959,2.452633810140686,0.9786461210745491,B,Incorrect,0.0,0.0,45,-45,933,-1,-1
"{'cat': 'II', 'resp': 'button'}",107,9,B,42.36520395148709,20.926102338615298,2.1182601975743545,0.32870644687631007,B,Correct,0.0,0.0,45,-45,950,-1,-1
"{'cat': 'II', 'resp': 'button'}",107,10,A,56.83425943219059,64.83792281669619,2.84171297160953,1.0184717099747738,B,Incorrect,0.0,0.0,45,-45,1305,-1,-1
"{'cat': 'II', 'resp': 'button'}",107,11,B,77.417418093505,54.217734180435635,3.8708709046752507,0.851650176977704,B,Correct,0.0,0.0,45,-45,1590,-1,-1
"{'cat': 'II', 'resp': 'button'}",107,12,B,75.34321450443417,58.16974497133309,3.7671607252217085,0.9137282173156592,B,Correct,0.0,0.0,45,-45,905,-1,-1
"{'cat': 'II', 'resp': 'button'}",107,13,A,42.363171911148726,54.80602475085472,2.1181585955574365,0.8608910236487277,B,Incorrect,0.0,0.0,45,-45,752,-1,-1
"{'cat': 'II', 'resp': 'button'}",107,14,B,50.927973509538425,35.098601559349405,2.546398675476921,0.5513275440506367,B,Correct,0.0,0.0,45,-45,756,-1,-1
"{'cat': 'II', 'resp': 'button'}",107,15,A,28.58652000456689,55.608980929267545,1.4293260002283443,0.8735038298050092,B,Incorrect,0.0,0.0,45,-45,1150,-1,-1
"{'cat': 'II', 'resp': 'button'}",107,16,A,38.98195245194181,70.88315398211301,1.9490976225970906,1.1134299790674016,A,Correct,0.0,0.0,45,-45,614,-1,-1
"{'cat': 'II', 'resp': 'button'}",107,17,A,15.713496860096146,41.60014637279683,0.7856748430048073,0.6534535711651931,A,Correct,0.0,0.0,45,-45,625,-1,-1
"{'cat': 'II', 'resp': 'button'}",107,18,B,68.068344127492,50.64658321223553,3.4034172063745998,0.7955546687449165,B,Correct,0.0,0.0,45,-45,809,-1,-1
"{'cat': 'II', 'resp': 'button'}",107,19,A,34.900905529883374,59.93890458325429,1.7450452764941686,0.9415181115148564,A,Correct,0.0,0.0,45,-45,831,-1,-1
"{'cat': 'II', 'resp': 'button'}",107,20,B,89.02266054618036,65.09458759039312,4.451133027309018,1.0225033908121817,B,Correct,0.0,0.0,45,-45,825,-1,-1
"{'cat': 'II', 'resp': 'button'}",107,21,B,80.91859517937628,66.19542214945571,4.045929758968814,1.0397952596300257,B,Correct,0.0,0.0,45,-45,475,-1,-1
"{'cat': 'II', 'resp': 'button'}",107,22,A,54.54801413471654,75.85771399635037,2.727400706735827,1.1915701850452498,A,Correct,0.0,0.0,45,-45,1003,-1,-1
"{'cat': 'II', 'resp': 'button'}",107,23,A,30.84772392942649,52.73703353695877,1.5423861964713246,0.8283913856591412,A,Correct,0.0,0.0,45,-45,686,-1,-1
"{'cat': 'II', 'resp': 'button'}",107,24,B,82.53968061168072,58.78830121048251,4.126984030584037,0.923444475999379,B,Correct,0.0,0.0,45,-45,485,-1,-1
"{'cat': 'II', 'resp': 'button'}",107,25,A,28.950379258162037,60.2891781939777,1.4475189629081018,0.9470201965258315,A,Correct,0.0,0.0,45,-45,757,-1,-1
"{'cat': 'II', 'resp': 'button'}",107,26,B,62.35501558774821,47.61996744358681,3.1177507793874106,0.7480126994247871,B,Correct,0.0,0.0,45,-45,466,-1,-1
"{'cat': 'II', 'resp': 'button'}",107,27,A,14.050266646504461,41.0587865714342,0.7025133323252232,0.6449499112906446,A,Correct,0.0,0.0,45,-45,575,-1,-1
"{'cat': 'II', 'resp': 'button'}",107,28,B,39.61703817988651,19.1831305016689,1.9808519089943253,0.30132790928448644,A,Incorrect,0.0,0.0,45,-45,655,-1,-1
"{'cat': 'II', 'resp': 'button'}",107,29,A,20.462992448297218,37.531696953093544,1.0231496224148608,0.5895465171229856,A,Correct,0.0,0.0,45,-45,712,-1,-1
"{'cat': 'II', 'resp': 'button'}",107,30,A,46.103945856049805,55.780417084870315,2.30519729280249,0.8761967426400157,A,Correct,0.0,0.0,45,-45,1046,-1,-1
"{'cat': 'II', 'resp': 'button'}",107,31,B,44.49635286111274,28.177075068699807,2.224817643055637,0.4426044601773772,B,Correct,0.0,0.0,45,-45,508,-1,-1
"{'cat': 'II', 'resp': 'button'}",107,32,B,56.130601188185395,46.61437346194283,2.8065300594092695,0.7322168660986531,B,Correct,0.0,0.0,45,-45,437,-1,-1
"{'cat': 'II', 'resp': 'button'}",107,33,A,56.48124584431153,64.28847311106533,2.8240622922155763,1.009840974181139,A,Correct,0.0,0.0,45,-45,595,-1,-1
"{'cat': 'II', 'resp': 'button'}",107,34,B,49.16543502339907,21.884439606811387,2.4582717511699537,0.34375997348344073,A,Incorrect,0.0,0.0,45,-45,672,-1,-1
"{'cat': 'II', 'resp': 'button'}",107,35,B,84.25221386408076,67.59894216518727,4.212610693204038,1.061841700482968,B,Correct,0.0,0.0,45,-45,659,-1,-1
"{'cat': 'II', 'resp': 'button'}",107,36,A,53.90424734014695,81.98038552757424,2.695212367007348,1.2877448845594313,A,Correct,0.0,0.0,45,-45,697,-1,-1
"{'cat': 'II', 'resp': 'button'}",107,37,B,53.38249285095127,40.392335969031436,2.6691246425475637,0.6344813297081995,B,Correct,0.0,0.0,45,-45,627,-1,-1
"{'cat': 'II', 'resp': 'button'}",107,38,A,49.10952973107561,61.2944359014779,2.4554764865537804,0.9628107476700672,B,Incorrect,0.0,0.0,45,-45,1031,-1,-1
"{'cat': 'II', 'resp': 'button'}",107,39,B,75.62058122009229,57.29208141344985,3.7810290610046144,0.8999419103868118,B,Correct,0.0,0.0,45,-45,520,-1,-1
"{'cat': 'II', 'resp': 'button'}",107,40,B,62.50946001185007,30.981772689000117,3.1254730005925033,0.4866605473747582,B,Correct,0.0,0.0,45,-45,590,-1,-1
"{'cat': 'II', 'resp': 'button'}",107,41,A,27.032580850146516,57.42763345296053,1.3516290425073259,0.9020711568443411,A,Correct,0.0,0.0,45,-45,620,-1,-1
"{'cat': 'II', 'resp': 'button'}",107,42,A,36.16501187656943,65.59927511455649,1.8082505938284714,1.030431003903532,A,Correct,0.0,0.0,45,-45,573,-1,-1
"{'cat': 'II', 'resp': 'button'}",107,43,B,39.03688204087771,28.6369346298374,1.9518441020438855,0.44982791727214155,B,Correct,0.0,0.0,45,-45,700,-1,-1
"{'cat': 'II', 'resp': 'button'}",107,44,A,63.65197019087378,77.52938027776234,3.182598509543689,1.217828657589938,A,Correct,0.0,0.0,45,-45,666,-1,-1
"{'cat': 'II', 'resp': 'button'}",107,45,A,48.987217553016606,65.613344497643,2.44936087765083,1.0306520052562578,A,Correct,0.0,0.0,45,-45,923,-1,-1
"{'cat': 'II', 'resp': 'button'}",107,46,A,57.71611019416574,76.93964262825224,2.885805509708287,1.208565080253707,A,Correct,0.0,0.0,45,-45,942,-1,-1
"{'cat': 'II', 'resp': 'button'}",107,47,B,56.80440198229984,32.35182990472844,2.840220099114992,0.5081813557944072,B,Correct,0.0,0.0,45,-45,588,-1,-1
"{'cat': 'II', 'resp': 'button'}",107,48,B,54.097341454917384,38.245381921706155,2.7048670727458695,0.6007570543948397,B,Correct,0.0,0.0,45,-45,485,-1,-1
"{'cat': 'II', 'resp': 'button'}",107,49,A,41.05218585377788,70.00391896717409,2.052609292688894,1.0996189877488465,A,Correct,0.0,0.0,45,-45,650,-1,-1
"{'cat': 'II', 'resp': 'button'}",107,50,B,43.06437405755162,14.766596040241648,2.153218702877581,0.23195314819275642,B,Correct,0.0,0.0,45,-45,534,-1,-1
"{'cat': 'II', 'resp': 'button'}",107,51,A,43.603309806233966,60.9829440497237,2.1801654903116985,0.9579178451044469,A,Correct,0.0,0.0,45,-45,734,-1,-1
"{'cat': 'II', 'resp': 'button'}",107,52,A,37.957514429080184,52.83237542532236,1.8978757214540094,0.8298890125394532,A,Correct,0.0,0.0,45,-45,570,-1,-1
"{'cat': 'II', 'resp': 'button'}",107,53,B,43.62808056319406,36.20758889329149,2.181404028159703,0.5687474763568198,B,Correct,0.0,0.0,45,-45,501,-1,-1
"{'cat': 'II', 'resp': 'button'}",107,54,A,37.3430899586214,50.196493616488425,1.86715449793107,0.7884846779076349,B,Incorrect,0.0,0.0,45,-45,367,-1,-1
"{'cat': 'II', 'resp': 'button'}",107,55,B,80.3403615579686,52.95786725556944,4.01701807789843,0.8318602335994021,B,Correct,0.0,0.0,45,-45,530,-1,-1
"{'cat': 'II', 'resp': 'button'}",107,56,B,53.19149296204404,33.36678215271276,2.659574648102202,0.5241241884244671,B,Correct,0.0,0.0,45,-45,765,-1,-1
"{'cat': 'II', 'resp': 'button'}",107,57,B,65.94732553088924,42.82904680627425,3.2973662765444622,0.6727570940342229,B,Correct,0.0,0.0,45,-45,680,-1,-1
"{'cat': 'II', 'resp': 'button'}",107,58,B,50.30737886020516,22.400384862470165,2.5153689430102584,0.35186442260760137,B,Correct,0.0,0.0,45,-45,656,-1,-1
"{'cat': 'II', 'resp': 'button'}",107,59,B,61.37616449742075,43.61682516552682,3.068808224871038,0.6851314875646473,B,Correct,0.0,0.0,45,-45,838,-1,-1
"{'cat': 'II', 'resp': 'button'}",107,60,B,60.851851707999096,51.87942756633876,3.0425925853999547,0.8149201425742683,B,Correct,0.0,0.0,45,-45,695,-1,-1
"{'cat': 'II', 'resp': 'button'}",107,61,A,54.67860318917269,78.29386390166277,2.7339301594586347,1.2298371382731144,A,Correct,0.0,0.0,45,-45,576,-1,-1
"{'cat': 'II', 'resp': 'button'}",107,62,A,50.14674449772227,76.35785410258337,2.5073372248861134,1.1994263674627859,A,Correct,0.0,0.0,45,-45,605,-1,-1
"{'cat': 'II', 'resp': 'button'}",107,63,B,71.48670741388631,55.38534621609535,3.5743353706943153,0.869990983945062,B,Correct,0.0,0.0,45,-45,919,-1,-1
"{'cat': 'II', 'resp': 'button'}",107,64,A,45.04956342521161,66.01168559676523,2.2524781712605804,1.036909132609384,B,Incorrect,0.0,0.0,45,-45,869,-1,-1
"{'cat': 'II', 'resp': 'button'}",107,65,A,45.15927883065882,70.29171350926865,2.257963941532941,1.104139653844784,A,Correct,0.0,0.0,45,-45,714,-1,-1
"{'cat': 'II', 'resp': 'button'}",107,66,A,38.98586061833803,59.34144303275991,1.9492930309169014,0.9321332074256787,A,Correct,0.0,0.0,45,-45,617,-1,-1
"{'cat': 'II', 'resp': 'button'}",107,67,B,89.52786641106944,67.59037731703634,4.4763933205534725,1.0617071641628177,B,Correct,0.0,0.0,45,-45,632,-1,-1
"{'cat': 'II', 'resp': 'button'}",107,68,A,64.77742268539681,84.39636080696002,3.2388711342698406,1.3256949355042957,A,Correct,0.0,0.0,45,-45,621,-1,-1
"{'cat': 'II', 'resp': 'button'}",107,69,A,64.21548535467966,77.92430809594438,3.2107742677339832,1.2240321692514327,A,Correct,0.0,0.0,45,-45,552,-1,-1
"{'cat': 'II', 'resp': 'button'}",107,70,B,63.17486040668686,44.45580902568237,3.1587430203343434,0.6983102152223728,A,Incorrect,0.0,0.0,45,-45,916,-1,-1
"{'cat': 'II', 'resp': 'button'}",107,71,B,70.49143254427176,59.91610583904638,3.524571627213588,0.9411599896782832,B,Correct,0.0,0.0,45,-45,486,-1,-1
"{'cat': 'II', 'resp': 'button'}",107,72,A,63.31544661564416,72.93103702558068,3.1657723307822083,1.1455980506912473,A,Correct,0.0,0.0,45,-45,700,-1,-1
"{'cat': 'II', 'resp': 'button'}",107,73,A,23.519235553765956,42.73040071841608,1.1759617776882978,0.6712075649096199,B,Incorrect,0.0,0.0,45,-45,648,-1,-1
"{'cat': 'II', 'resp': 'button'}",107,74,A,42.350366702211105,59.90066880377045,2.117518335110555,0.9409175052952027,A,Correct,0.0,0.0,45,-45,623,-1,-1
"{'cat': 'II', 'resp': 'button'}",107,75,A,27.244273931127136,52.89430392087661,1.3622136965563567,0.8308617830728587,A,Correct,0.0,0.0,45,-45,689,-1,-1
"{'cat': 'II', 'resp': 'button'}",107,76,A,50.14852679088988,62.50780997305304,2.507426339544494,0.9818703830166513,A,Correct,0.0,0.0,45,-45,829,-1,-1
"{'cat': 'II', 'resp': 'button'}",107,77,B,84.63147209102664,61.027217448946686,4.231573604551332,0.9586132900331887,B,Correct,0.0,0.0,45,-45,468,-1,-1
"{'cat': 'II', 'resp': 'button'}",107,78,B,78.11547055767187,51.77609859144049,3.9057735278835937,0.8132970548320513,B,Correct,0.0,0.0,45,-45,511,-1,-1
"{'cat': 'II', 'resp': 'button'}",107,79,B,73.21131481994806,57.596923967424736,3.6605657409974026,0.9047303660271572,B,Correct,0.0,0.0,45,-45,425,-1,-1
"{'cat': 'II', 'resp': 'button'}",107,80,A,38.77655123729427,60.4490928108738,1.9388275618647135,0.9495321294540436,A,Correct,0.0,0.0,45,-45,544,-1,-1
"{'cat': 'II', 'resp': 'button'}",107,81,B,71.26141082370634,53.87483290769902,3.563070541185317,0.8462638963810245,B,Correct,0.0,0.0,45,-45,562,-1,-1
"{'cat': 'II', 'resp': 'button'}",107,82,B,59.32251223339937,35.2006581478707,2.9661256116699684,0.5529306451943814,B,Correct,0.0,0.0,45,-45,415,-1,-1
"{'cat': 'II', 'resp': 'button'}",107,83,A,21.46816971640167,37.95452239323804,1.0734084858200834,0.5961882436055295,A,Correct,0.0,0.0,45,-45,435,-1,-1
"{'cat': 'II', 'resp': 'button'}",107,84,A,45.905449697646894,60.799128791551574,2.2952724848823447,0.9550304817809905,A,Correct,0.0,0.0,45,-45,589,-1,-1
"{'cat': 'II', 'resp': 'button'}",107,85,B,68.83353727678164,46.65616570607188,3.441676863839082,0.7328733371343173,B,Correct,0.0,0.0,45,-45,558,-1,-1
"{'cat': 'II', 'resp': 'button'}",107,86,A,23.161972659257817,42.70419320556597,1.1580986329628908,0.6707958982604261,A,Correct,0.0,0.0,45,-45,489,-1,-1
"{'cat': 'II', 'resp': 'button'}",107,87,A,69.61542512530369,84.67184368060933,3.480771256265184,1.3300222103645278,B,Incorrect,0.0,0.0,45,-45,524,-1,-1
"{'cat': 'II', 'resp': 'button'}",107,88,B,76.54895823851646,57.02294316879887,3.8274479119258227,0.8957142967258339,B,Correct,0.0,0.0,45,-45,608,-1,-1
"{'cat': 'II', 'resp': 'button'}",107,89,B,32.01656639463771,14.231005696016954,1.6008283197318856,0.22354011473900676,A,Incorrect,0.0,0.0,45,-45,510,-1,-1
"{'cat': 'II', 'resp': 'button'}",107,90,B,76.93126998954908,47.70028391586252,3.8465634994774542,0.7492743076211053,B,Correct,0.0,0.0,45,-45,749,-1,-1
"{'cat': 'II', 'resp': 'button'}",107,91,B,35.08878235013705,14.378175353971507,1.7544391175068526,0.22585185032031355,B,Correct,0.0,0.0,45,-45,659,-1,-1
"{'cat': 'II', 'resp': 'button'}",107,92,B,57.90681219736662,30.718167368184716,2.895340609868331,0.4825198446781541,B,Correct,0.0,0.0,45,-45,553,-1,-1
"{'cat': 'II', 'resp': 'button'}",107,93,B,48.589417764765884,21.66894194598625,2.429470888238294,0.34037494414287056,B,Correct,0.0,0.0,45,-45,476,-1,-1
"{'cat': 'II', 'resp': 'button'}",107,94,B,83.95217162364875,64.5387083936735,4.197608581182437,1.0137716608086929,B,Correct,0.0,0.0,45,-45,950,-1,-1
"{'cat': 'II', 'resp': 'button'}",107,95,B,55.5372975066534,31.27184178331457,2.7768648753326706,0.491216942053417,B,Correct,0.0,0.0,45,-45,545,-1,-1
"{'cat': 'II', 'resp': 'button'}",107,96,A,58.474868514259256,69.16904671893187,2.9237434257129626,1.0865048451400279,A,Correct,0.0,0.0,45,-45,595,-1,-1
"{'cat': 'II', 'resp': 'button'}",107,97,B,72.87850227048803,46.160841890164356,3.6439251135244013,0.7250928088283015,B,Correct,0.0,0.0,45,-45,547,-1,-1
"{'cat': 'II', 'resp': 'button'}",107,98,A,36.73726849214875,48.37216067207328,1.8368634246074376,0.7598281230282525,A,Correct,0.0,0.0,45,-45,511,-1,-1
"{'cat': 'II', 'resp': 'button'}",107,99,A,28.598048567206597,50.68653215881634,1.4299024283603299,0.796182185330401,B,Incorrect,0.0,0.0,45,-45,594,-1,-1
"{'cat': 'II', 'resp': 'button'}",107,100,B,73.94169694462406,48.2931640709264,3.6970848472312023,0.7585872473191446,B,Correct,0.0,0.0,45,-45,692,-1,-1
"{'cat': 'II', 'resp': 'button'}",107,101,B,47.44100951369549,19.315445566394395,2.3720504756847745,0.30340630946099084,B,Correct,0.0,0.0,45,-45,579,-1,-1
"{'cat': 'II', 'resp': 'button'}",107,102,B,42.53032918267719,20.084602800504918,2.1265164591338594,0.3154882030416762,B,Correct,0.0,0.0,45,-45,540,-1,-1
"{'cat': 'II', 'resp': 'button'}",107,103,A,33.695222920535066,62.24104921205597,1.6847611460267533,0.977680114781579,A,Correct,0.0,0.0,45,-45,711,-1,-1
"{'cat': 'II', 'resp': 'button'}",107,104,A,46.03560365577406,64.75511873390431,2.3017801827887028,1.017171026483843,B,Incorrect,0.0,0.0,45,-45,694,-1,-1
"{'cat': 'II', 'resp': 'button'}",107,105,A,24.91956271723342,51.41566465948942,1.2459781358616708,0.8076353718684415,B,Incorrect,0.0,0.0,45,-45,648,-1,-1
"{'cat': 'II', 'resp': 'button'}",107,106,A,32.21314341442373,46.25430624642986,1.6106571707211867,0.7265609435033826,A,Correct,0.0,0.0,45,-45,1043,-1,-1
"{'cat': 'II', 'resp': 'button'}",107,107,B,46.73949821107285,34.91586080259879,2.3369749105536424,0.5484570589560409,B,Correct,0.0,0.0,45,-45,841,-1,-1
"{'cat': 'II', 'resp': 'button'}",107,108,B,60.3489627393472,28.85918329848292,3.01744813696736,0.453318991195576,B,Correct,0.0,0.0,45,-45,472,-1,-1
"{'cat': 'II', 'resp': 'button'}",107,109,B,53.78773442870974,37.0905041519776,2.689386721435487,0.5826162768089728,B,Correct,0.0,0.0,45,-45,461,-1,-1
"{'cat': 'II', 'resp': 'button'}",107,110,A,34.02919018320882,43.966016256865515,1.7014595091604408,0.6906165684008906,A,Correct,0.0,0.0,45,-45,643,-1,-1
"{'cat': 'II', 'resp': 'button'}",107,111,A,32.25644164562711,54.85962917768948,1.6128220822813557,0.8617330400164475,A,Correct,0.0,0.0,45,-45,500,-1,-1
"{'cat': 'II', 'resp': 'button'}",107,112,B,75.92569855928308,54.45269942307118,3.796284927964154,0.8553410023782679,B,Correct,0.0,0.0,45,-45,587,-1,-1
"{'cat': 'II', 'resp': 'button'}",107,113,B,38.84640726434192,12.037086267247577,1.9423203632170958,0.18907810893905785,B,Correct,0.0,0.0,45,-45,582,-1,-1
"{'cat': 'II', 'resp': 'button'}",107,114,B,62.61744645021614,34.981442540737724,3.130872322510807,0.5494872144897756,B,Correct,0.0,0.0,45,-45,493,-1,-1
"{'cat': 'II', 'resp': 'button'}",107,115,A,25.563443300684792,55.131515755750264,1.2781721650342397,0.8660038243976749,A,Correct,0.0,0.0,45,-45,567,-1,-1
"{'cat': 'II', 'resp': 'button'}",107,116,A,15.614111379748557,32.451541311517026,0.7807055689874278,0.5097476189096378,A,Correct,0.0,0.0,45,-45,748,-1,-1
"{'cat': 'II', 'resp': 'button'}",107,117,A,17.851643358810428,46.290672767773245,0.8925821679405215,0.7271321874848276,A,Correct,0.0,0.0,45,-45,451,-1,-1
"{'cat': 'II', 'resp': 'button'}",107,118,B,75.15329769760778,56.570998986678084,3.7576648848803895,0.8886151741139174,B,Correct,0.0,0.0,45,-45,583,-1,-1
"{'cat': 'II', 'resp': 'button'}",107,119,B,62.095599680659646,39.63761266449104,3.104779984032982,0.6226261637630139,B,Correct,0.0,0.0,45,-45,439,-1,-1
"{'cat': 'II', 'resp': 'button'}",107,120,B,39.349595926114766,27.49430300318553,1.9674797963057384,0.4318795016518972,B,Correct,0.0,0.0,45,-45,525,-1,-1
"{'cat': 'II', 'resp': 'button'}",107,121,B,79.21514713115015,56.05961377041111,3.9607573565575076,0.8805823539210238,B,Correct,0.0,0.0,45,-45,557,-1,-1
"{'cat': 'II', 'resp': 'button'}",107,122,A,38.5175421038621,71.20585148844665,1.925877105193105,1.1184988996435492,B,Incorrect,0.0,0.0,45,-45,816,-1,-1
"{'cat': 'II', 'resp': 'button'}",107,123,B,40.41940430825236,17.448924162638193,2.020970215412618,0.2740870598119479,B,Correct,0.0,0.0,45,-45,662,-1,-1
"{'cat': 'II', 'resp': 'button'}",107,124,A,47.583509817946606,65.2939289745954,2.3791754908973304,1.0256346379530135,A,Correct,0.0,0.0,45,-45,582,-1,-1
"{'cat': 'II', 'resp': 'button'}",107,125,A,20.604457312068504,42.697193490923354,1.0302228656034251,0.6706859469999338,A,Correct,0.0,0.0,45,-45,470,-1,-1
"{'cat': 'II', 'resp': 'button'}",107,126,A,19.786858770340803,46.07158537138699,0.9893429385170401,0.7236907707099216,A,Correct,0.0,0.0,45,-45,370,-1,-1
"{'cat': 'II', 'resp': 'button'}",107,127,A,43.36557578238448,71.14736239494621,2.168278789119224,1.1175801551112687,B,Incorrect,0.0,0.0,45,-45,773,-1,-1
"{'cat': 'II', 'resp': 'button'}",107,128,A,39.71409031267822,46.677568693443305,1.9857045156339113,0.7332095344737722,B,Incorrect,0.0,0.0,45,-45,1116,-1,-1
"{'cat': 'II', 'resp': 'button'}",107,129,B,54.25223262836071,33.89112081469893,2.7126116314180355,0.5323604808669113,B,Correct,0.0,0.0,45,-45,699,-1,-1
"{'cat': 'II', 'resp': 'button'}",107,130,A,44.263406674382814,52.00704052933338,2.2131703337191406,0.816924682309502,A,Correct,0.0,0.0,45,-45,769,-1,-1
"{'cat': 'II', 'resp': 'button'}",107,131,B,57.450588134784674,31.947512873134773,2.872529406739234,0.5018303587135277,B,Correct,0.0,0.0,45,-45,677,-1,-1
"{'cat': 'II', 'resp': 'button'}",107,132,A,44.90094127978352,63.874406621279256,2.2450470639891758,1.0033368329690906,A,Correct,0.0,0.0,45,-45,1836,-1,-1
"{'cat': 'II', 'resp': 'button'}",107,133,A,28.114272562415536,50.845710262068366,1.4057136281207767,0.7986825491293456,A,Correct,0.0,0.0,45,-45,548,-1,-1
"{'cat': 'II', 'resp': 'button'}",107,134,A,22.755481362616777,47.51262915093025,1.1377740681308388,0.7463266334664936,A,Correct,0.0,0.0,45,-45,489,-1,-1
"{'cat': 'II', 'resp': 'button'}",107,135,B,50.6509904861641,28.07648565283492,2.532549524308205,0.4410244053278271,B,Correct,0.0,0.0,45,-45,636,-1,-1
"{'cat': 'II', 'resp': 'button'}",107,136,B,73.04623896641814,50.79590638882192,3.6523119483209077,0.797900231717789,B,Correct,0.0,0.0,45,-45,570,-1,-1
"{'cat': 'II', 'resp': 'button'}",107,137,B,55.92503579428236,30.81421203900672,2.796251789714118,0.4840285108395083,B,Correct,0.0,0.0,45,-45,464,-1,-1
"{'cat': 'II', 'resp': 'button'}",107,138,A,66.81764623649065,79.89395248760539,3.340882311824532,1.2549712710065655,A,Correct,0.0,0.0,45,-45,1010,-1,-1
"{'cat': 'II', 'resp': 'button'}",107,139,A,21.4776600638876,35.1873435160918,1.07388300319438,0.5527214994474723,B,Incorrect,0.0,0.0,45,-45,750,-1,-1
"{'cat': 'II', 'resp': 'button'}",107,140,A,24.22163410725912,53.69733121262836,1.2110817053629561,0.8434757062748558,A,Correct,0.0,0.0,45,-45,1084,-1,-1
"{'cat': 'II', 'resp': 'button'}",107,141,B,69.52982182926613,49.09332233129492,3.476491091463306,0.7711561038815593,B,Correct,0.0,0.0,45,-45,558,-1,-1
"{'cat': 'II', 'resp': 'button'}",107,142,B,87.66151823448541,67.26166992115014,4.383075911724271,1.0565438404623342,B,Correct,0.0,0.0,45,-45,862,-1,-1
"{'cat': 'II', 'resp': 'button'}",107,143,B,64.12897686466907,33.73940355090441,3.2064488432334537,0.5299773116601134,B,Correct,0.0,0.0,45,-45,570,-1,-1
"{'cat': 'II', 'resp': 'button'}",107,144,B,47.45843034938866,27.62219071844042,2.372921517469433,0.4338883571855429,A,Incorrect,0.0,0.0,45,-45,1644,-1,-1
"{'cat': 'II', 'resp': 'button'}",107,145,B,82.96249556486154,63.75207226345033,4.148124778243077,1.0014152093699058,B,Correct,0.0,0.0,45,-45,561,-1,-1
"{'cat': 'II', 'resp': 'button'}",107,146,B,68.53219006607954,39.45815363813938,3.4266095033039767,0.6198072279689801,B,Correct,0.0,0.0,45,-45,517,-1,-1
"{'cat': 'II', 'resp': 'button'}",107,147,A,30.84968335762722,52.57439081333192,1.542484167881361,0.8258365997306113,A,Correct,0.0,0.0,45,-45,1408,-1,-1
"{'cat': 'II', 'resp': 'button'}",107,148,A,17.53824018243883,35.32623849000824,0.8769120091219414,0.5549032565958544,A,Correct,0.0,0.0,45,-45,570,-1,-1
"{'cat': 'II', 'resp': 'button'}",107,149,B,45.472683449220874,36.85181852920824,2.2736341724610436,0.578867011813924,A,Incorrect,0.0,0.0,45,-45,880,-1,-1
"{'cat': 'II', 'resp': 'button'}",107,150,B,69.11064882849863,47.180323717587356,3.455532441424931,0.7411067919258035,B,Correct,0.0,0.0,45,-45,437,-1,-1
"{'cat': 'II', 'resp': 'button'}",107,151,A,49.91721291530833,59.073176709866765,2.4958606457654167,0.9279192898796454,B,Incorrect,0.0,0.0,45,-45,544,-1,-1
"{'cat': 'II', 'resp': 'button'}",107,152,B,76.97044865248711,57.11366982000877,3.8485224326243554,0.8971394276304632,B,Correct,0.0,0.0,45,-45,399,-1,-1
"{'cat': 'II', 'resp': 'button'}",107,153,B,68.3504394136038,42.88693358765281,3.41752197068019,0.6736663774698172,B,Correct,0.0,0.0,45,-45,551,-1,-1
"{'cat': 'II', 'resp': 'button'}",107,154,A,29.412702906247276,52.89954642015411,1.4706351453123636,0.830944132058942,A,Correct,0.0,0.0,45,-45,538,-1,-1
"{'cat': 'II', 'resp': 'button'}",107,155,B,54.47021748938668,24.915927253511875,2.723510874469334,0.39137847008505305,B,Correct,0.0,0.0,45,-45,20967,-1,-1
"{'cat': 'II', 'resp': 'button'}",107,156,B,77.37415741474182,60.444922626569465,3.868707870737091,0.9494666243521704,B,Correct,0.0,0.0,45,-45,724,-1,-1
"{'cat': 'II', 'resp': 'button'}",107,157,B,56.166070824982384,38.601942995281476,2.8083035412491193,0.6063579026413413,B,Correct,0.0,0.0,45,-45,397,-1,-1
"{'cat': 'II', 'resp': 'button'}",107,158,A,19.809472973521107,45.72975977325135,0.9904736486760554,0.7183213867703625,A,Correct,0.0,0.0,45,-45,482,-1,-1
"{'cat': 'II', 'resp': 'button'}",107,159,A,16.92459223401687,41.10653494313465,0.8462296117008435,0.6456999409594196,A,Correct,0.0,0.0,45,-45,364,-1,-1
"{'cat': 'II', 'resp': 'button'}",107,160,A,26.1541596232517,57.98360655645184,1.3077079811625851,0.9108043619319502,A,Correct,0.0,0.0,45,-45,403,-1,-1
"{'cat': 'II', 'resp': 'button'}",107,161,B,48.455483749296675,19.62146844663104,2.4227741874648334,0.30821330562290006,B,Correct,0.0,0.0,45,-45,529,-1,-1
"{'cat': 'II', 'resp': 'button'}",107,162,B,38.999062670673,27.22693985133509,1.94995313353365,0.4276797710834275,B,Correct,0.0,0.0,45,-45,556,-1,-1
"{'cat': 'II', 'resp': 'button'}",107,163,B,76.99813862964406,65.32039924913474,3.849906931482203,1.0260504320531696,B,Correct,0.0,0.0,45,-45,665,-1,-1
"{'cat': 'II', 'resp': 'button'}",107,164,A,52.43164260392539,76.97925213862065,2.6215821301962694,1.209187264987635,A,Correct,0.0,0.0,45,-45,671,-1,-1
"{'cat': 'II', 'resp': 'button'}",107,165,A,62.110308555846856,88.07832618081574,3.105515427792343,1.3835311123506813,A,Correct,0.0,0.0,45,-45,1493,-1,-1
"{'cat': 'II', 'resp': 'button'}",107,166,A,55.280331443517596,63.12232103086983,2.76401657217588,0.9915231001405858,A,Correct,0.0,0.0,45,-45,1058,-1,-1
"{'cat': 'II', 'resp': 'button'}",107,167,A,34.48886726732387,46.97850447218608,1.7244433633661935,0.7379366226322751,A,Correct,0.0,0.0,45,-45,862,-1,-1
"{'cat': 'II', 'resp': 'button'}",107,168,A,39.491209254598715,60.552477641341476,1.9745604627299358,0.9511560945734929,A,Correct,0.0,0.0,45,-45,792,-1,-1
"{'cat': 'II', 'resp': 'button'}",107,169,A,21.566156610942176,45.26739386595535,1.0783078305471088,0.7110585600822049,A,Correct,0.0,0.0,45,-45,618,-1,-1
"{'cat': 'II', 'resp': 'button'}",107,170,B,83.15027122133026,59.5562940127283,4.157513561066513,0.9355080787271051,B,Correct,0.0,0.0,45,-45,509,-1,-1
"{'cat': 'II', 'resp': 'button'}",107,171,B,74.83179368804731,56.94506103986738,3.7415896844023653,0.8944909271053485,B,Correct,0.0,0.0,45,-45,529,-1,-1
"{'cat': 'II', 'resp': 'button'}",107,172,A,46.49057262717672,77.49128307003087,2.3245286313588363,1.2172302280502805,B,Incorrect,0.0,0.0,45,-45,699,-1,-1
"{'cat': 'II', 'resp': 'button'}",107,173,A,50.75898910011733,70.21588919463656,2.5379494550058666,1.1029486082957256,B,Incorrect,0.0,0.0,45,-45,600,-1,-1
"{'cat': 'II', 'resp': 'button'}",107,174,B,79.21834600877364,62.48260290982035,3.960917300438682,0.9814744313932993,B,Correct,0.0,0.0,45,-45,591,-1,-1
"{'cat': 'II', 'resp': 'button'}",107,175,A,41.15470614038072,60.59198053230028,2.0577353070190356,0.9517766045336516,A,Correct,0.0,0.0,45,-45,522,-1,-1
"{'cat': 'II', 'resp': 'button'}",107,176,A,40.61266827718949,49.85002067010622,2.0306334138594746,0.7830422935925251,B,Incorrect,0.0,0.0,45,-45,558,-1,-1
"{'cat': 'II', 'resp': 'button'}",107,177,A,55.548533249120695,65.89225336139171,2.7774266624560346,1.0350330954431277,B,Incorrect,0.0,0.0,45,-45,683,-1,-1
"{'cat': 'II', 'resp': 'button'}",107,178,B,80.70113094683998,63.72393469836307,4.035056547341998,1.0009732255310655,B,Correct,0.0,0.0,45,-45,537,-1,-1
"{'cat': 'II', 'resp': 'button'}",107,179,A,42.6020423406036,64.56693997952739,2.13010211703018,1.0142151215222819,A,Correct,0.0,0.0,45,-45,800,-1,-1
"{'cat': 'II', 'resp': 'button'}",107,180,A,52.03190597339367,67.69166105801312,2.6015952986696833,1.0632981254457214,A,Correct,0.0,0.0,45,-45,751,-1,-1
"{'cat': 'II', 'resp': 'button'}",107,181,B,60.02520109506377,34.32231298986774,3.0012600547531885,0.5391336317158901,B,Correct,0.0,0.0,45,-45,672,-1,-1
"{'cat': 'II', 'resp': 'button'}",107,182,A,46.80754806064349,77.0496599726792,2.3403774030321745,1.2102932286588024,A,Correct,0.0,0.0,45,-45,458,-1,-1
"{'cat': 'II', 'resp': 'button'}",107,183,B,82.14872789610533,54.31358546470519,4.107436394805267,0.853155805430196,B,Correct,0.0,0.0,45,-45,711,-1,-1
"{'cat': 'II', 'resp': 'button'}",107,184,A,46.243042791469556,66.01827011492131,2.312152139573478,1.0370125619787167,B,Incorrect,0.0,0.0,45,-45,585,-1,-1
"{'cat': 'II', 'resp': 'button'}",107,185,B,55.461306382845976,37.56506725945108,2.7730653191422987,0.5900706966694897,B,Correct,0.0,0.0,45,-45,556,-1,-1
"{'cat': 'II', 'resp': 'button'}",107,186,A,46.89405812304262,67.22061315030534,2.344702906152131,1.0558989222140034,A,Correct,0.0,0.0,45,-45,497,-1,-1
"{'cat': 'II', 'resp': 'button'}",107,187,A,29.305492925923545,47.028053660975814,1.4652746462961772,0.7387149394697409,A,Correct,0.0,0.0,45,-45,804,-1,-1
"{'cat': 'II', 'resp': 'button'}",107,188,B,52.342709079082574,41.617371404807216,2.6171354539541287,0.6537241413353014,A,Incorrect,0.0,0.0,45,-45,599,-1,-1
"{'cat': 'II', 'resp': 'button'}",107,189,A,43.768392801039575,67.60785686853214,2.1884196400519786,1.061981732315654,A,Correct,0.0,0.0,45,-45,1014,-1,-1
"{'cat': 'II', 'resp': 'button'}",107,190,B,35.187227990598856,14.984551936970295,1.7593613995299426,0.23537679141260293,B,Correct,0.0,0.0,45,-45,592,-1,-1
"{'cat': 'II', 'resp': 'button'}",107,191,B,55.019464383014096,30.612624140636377,2.750973219150705,0.480861975536644,B,Correct,0.0,0.0,45,-45,600,-1,-1
"{'cat': 'II', 'resp': 'button'}",107,192,A,37.0450249041214,65.0182476335579,1.8522512452060698,1.0213042455743373,A,Correct,0.0,0.0,45,-45,1617,-1,-1
"{'cat': 'II', 'resp': 'button'}",107,193,A,52.60000518623056,76.70712835788048,2.6300002593115277,1.204912754635433,A,Correct,0.0,0.0,45,-45,537,-1,-1
"{'cat': 'II', 'resp': 'button'}",107,194,A,50.539941214653766,76.3032361074053,2.5269970607326884,1.1985684300007595,A,Correct,0.0,0.0,45,-45,470,-1,-1
"{'cat': 'II', 'resp': 'button'}",107,195,A,17.476530045623086,40.303912084900254,0.8738265022811543,0.6330923705842576,A,Correct,0.0,0.0,45,-45,634,-1,-1
"{'cat': 'II', 'resp': 'button'}",107,196,A,54.440949903883414,72.76583229446528,2.722047495194171,1.1430030208431952,A,Correct,0.0,0.0,45,-45,631,-1,-1
"{'cat': 'II', 'resp': 'button'}",107,197,A,22.29808642192119,33.851160897626926,1.1149043210960596,0.5317327919573541,B,Incorrect,0.0,0.0,45,-45,892,-1,-1
"{'cat': 'II', 'resp': 'button'}",107,198,A,16.93986468631413,36.98312623974465,0.8469932343157066,0.5809295885078285,A,Correct,0.0,0.0,45,-45,574,-1,-1
"{'cat': 'II', 'resp': 'button'}",107,199,B,75.36900830726341,47.336141156732495,3.7684504153631706,0.7435543665364013,B,Correct,0.0,0.0,45,-45,753,-1,-1
"{'cat': 'II', 'resp': 'button'}",107,200,B,62.87902138882343,33.28569391702725,3.143951069441172,0.5228504573968563,B,Correct,0.0,0.0,45,-45,583,-1,-1
"{'cat': 'II', 'resp': 'button'}",107,201,A,15.97378781129504,34.493416395113826,0.798689390564752,0.5418213177205166,A,Correct,0.0,0.0,45,-45,528,-1,-1
"{'cat': 'II', 'resp': 'button'}",107,202,A,29.078885955598114,52.94619474687599,1.4539442977799057,0.8316768822616006,A,Correct,0.0,0.0,45,-45,418,-1,-1
"{'cat': 'II', 'resp': 'button'}",107,203,B,73.60540621241331,47.82604903095542,3.6802703106206653,0.7512498214293739,B,Correct,0.0,0.0,45,-45,512,-1,-1
"{'cat': 'II', 'resp': 'button'}",107,204,B,75.19078795825443,47.47059906258794,3.7595393979127216,0.745666426382664,B,Correct,0.0,0.0,45,-45,710,-1,-1
"{'cat': 'II', 'resp': 'button'}",107,205,A,51.12530965200019,72.80335612697729,2.5562654826000095,1.1435924438259666,A,Correct,0.0,0.0,45,-45,654,-1,-1
"{'cat': 'II', 'resp': 'button'}",107,206,B,65.5445858620102,49.16698525469059,3.27722929310051,0.7723131983764682,A,Incorrect,0.0,0.0,45,-45,562,-1,-1
"{'cat': 'II', 'resp': 'button'}",107,207,A,63.001613440317264,88.0571114467109,3.150080672015863,1.3831978720866236,B,Incorrect,0.0,0.0,45,-45,602,-1,-1
"{'cat': 'II', 'resp': 'button'}",107,208,A,15.413627070412392,40.25305453109051,0.7706813535206196,0.6322935019971165,A,Correct,0.0,0.0,45,-45,672,-1,-1
"{'cat': 'II', 'resp': 'button'}",107,209,A,59.94798892049127,78.35522381766927,2.9973994460245637,1.230800977579869,A,Correct,0.0,0.0,45,-45,574,-1,-1
"{'cat': 'II', 'resp': 'button'}",107,210,B,71.7211854208876,39.333678245161174,3.5860592710443795,0.617851973068315,B,Correct,0.0,0.0,45,-45,649,-1,-1
"{'cat': 'II', 'resp': 'button'}",107,211,A,58.1962165452731,69.74325984420989,2.909810827263655,1.095524563819869,A,Correct,0.0,0.0,45,-45,537,-1,-1
"{'cat': 'II', 'resp': 'button'}",107,212,A,37.08899844684729,68.59080090052474,1.8544499223423645,1.0774217810646436,A,Correct,0.0,0.0,45,-45,712,-1,-1
"{'cat': 'II', 'resp': 'button'}",107,213,B,36.16298292285658,19.21525786245803,1.8081491461428287,0.3018325646876583,B,Correct,0.0,0.0,45,-45,404,-1,-1
"{'cat': 'II', 'resp': 'button'}",107,214,B,45.6107329008872,35.263656360977876,2.28053664504436,0.5539202188118154,B,Correct,0.0,0.0,45,-45,668,-1,-1
"{'cat': 'II', 'resp': 'button'}",107,215,A,36.97423474908381,55.484029498869894,1.8487117374541908,0.8715410973260453,A,Correct,0.0,0.0,45,-45,403,-1,-1
"{'cat': 'II', 'resp': 'button'}",107,216,A,53.051774377340976,71.99374687635323,2.6525887188670487,1.130875131455772,A,Correct,0.0,0.0,45,-45,1669,-1,-1
"{'cat': 'II', 'resp': 'button'}",107,217,A,37.85253359268761,66.97353392548945,1.8926266796343805,1.0520178108263223,A,Correct,0.0,0.0,45,-45,527,-1,-1
"{'cat': 'II', 'resp': 'button'}",107,218,A,22.34792703217769,46.834817857519916,1.1173963516088845,0.7356795985670033,A,Correct,0.0,0.0,45,-45,859,-1,-1
"{'cat': 'II', 'resp': 'button'}",107,219,B,80.09052474012788,66.85637442195903,4.004526237006393,1.0501774736483753,B,Correct,0.0,0.0,45,-45,807,-1,-1
"{'cat': 'II', 'resp': 'button'}",107,220,B,47.19250422552048,28.23999220870778,2.359625211276024,0.4435927603015469,B,Correct,0.0,0.0,45,-45,528,-1,-1
"{'cat': 'II', 'resp': 'button'}",107,221,A,32.0886724490839,59.4959017536146,1.604433622454195,0.9345594393392787,B,Incorrect,0.0,0.0,45,-45,373,-1,-1
"{'cat': 'II', 'resp': 'button'}",107,222,A,55.54398889575686,67.04260431557279,2.7771994447878434,1.0531027659766543,B,Incorrect,0.0,0.0,45,-45,610,-1,-1
"{'cat': 'II', 'resp': 'button'}",107,223,A,46.337297570108746,56.42455506789605,2.316864878505437,0.8863148384168748,B,Incorrect,0.0,0.0,45,-45,755,-1,-1
"{'cat': 'II', 'resp': 'button'}",107,224,B,66.73730924231934,42.913502758138506,3.336865462115967,0.6740837250238662,B,Correct,0.0,0.0,45,-45,566,-1,-1
"{'cat': 'II', 'resp': 'button'}",107,225,A,34.22914491041318,51.33846235658809,1.7114572455206594,0.8064226809302663,B,Incorrect,0.0,0.0,45,-45,784,-1,-1
"{'cat': 'II', 'resp': 'button'}",107,226,B,44.88245209319312,19.7056286884036,2.2441226046596565,0.3095352916092851,A,Incorrect,0.0,0.0,45,-45,610,-1,-1
"{'cat': 'II', 'resp': 'button'}",107,227,B,64.50827105141099,48.107105958550825,3.2254135525705494,0.755664653324245,B,Correct,0.0,0.0,45,-45,578,-1,-1
"{'cat': 'II', 'resp': 'button'}",107,228,B,63.670157567525834,47.76983123680588,3.183507878376292,0.7503667543838678,B,Correct,0.0,0.0,45,-45,428,-1,-1
"{'cat': 'II', 'resp': 'button'}",107,229,A,26.170088754016803,40.204394874318425,1.3085044377008401,0.6315291578959095,A,Correct,0.0,0.0,45,-45,1217,-1,-1
"{'cat': 'II', 'resp': 'button'}",107,230,A,26.37050307978768,39.48399111158547,1.318525153989384,0.620213082052808,A,Correct,0.0,0.0,45,-45,489,-1,-1
"{'cat': 'II', 'resp': 'button'}",107,231,A,42.50187953901725,62.62847986191946,2.1250939769508626,0.9837658611985124,A,Correct,0.0,0.0,45,-45,411,-1,-1
"{'cat': 'II', 'resp': 'button'}",107,232,B,71.0118950555987,59.34364419163309,3.550594752779935,0.9321677831484055,B,Correct,0.0,0.0,45,-45,655,-1,-1
"{'cat': 'II', 'resp': 'button'}",107,233,A,41.70675235386639,59.99507558010685,2.0853376176933196,0.9424004434701404,A,Correct,0.0,0.0,45,-45,672,-1,-1
"{'cat': 'II', 'resp': 'button'}",107,234,B,35.22015004093893,16.824379847740342,1.7610075020469467,0.2642767406543261,B,Correct,0.0,0.0,45,-45,615,-1,-1
"{'cat': 'II', 'resp': 'button'}",107,235,A,31.952695093650426,46.751423888918225,1.5976347546825211,0.7343696491714392,B,Incorrect,0.0,0.0,45,-45,503,-1,-1
"{'cat': 'II', 'resp': 'button'}",107,236,B,47.421033001207995,35.36537430403356,2.3710516500603998,0.5555180005250253,B,Correct,0.0,0.0,45,-45,583,-1,-1
"{'cat': 'II', 'resp': 'button'}",107,237,B,81.63572724303118,55.277123111831926,4.081786362151559,0.8682910193985488,B,Correct,0.0,0.0,45,-45,737,-1,-1
"{'cat': 'II', 'resp': 'button'}",107,238,A,46.868889474372544,59.488497560733656,2.3434444737186273,0.9344431345494759,A,Correct,0.0,0.0,45,-45,1711,-1,-1
"{'cat': 'II', 'resp': 'button'}",107,239,B,83.79017079215532,59.531430456017,4.1895085396077665,0.9351175228915735,B,Correct,0.0,0.0,45,-45,638,-1,-1
"{'cat': 'II', 'resp': 'button'}",107,240,A,49.56529349212035,58.25864449045419,2.4782646746060175,0.9151246476965518,A,Correct,0.0,0.0,45,-45,517,-1,-1
"{'cat': 'II', 'resp': 'button'}",107,241,B,71.6988164914726,61.5005054698304,3.58494082457363,0.9660476808803904,B,Correct,0.0,0.0,45,-45,684,-1,-1
"{'cat': 'II', 'resp': 'button'}",107,242,B,86.97153116748706,61.26480707905229,4.3485765583743525,0.9623453392157331,B,Correct,0.0,0.0,45,-45,515,-1,-1
"{'cat': 'II', 'resp': 'button'}",107,243,A,28.29878245958158,55.340479433140786,1.414939122979079,0.8692862181664607,A,Correct,0.0,0.0,45,-45,489,-1,-1
"{'cat': 'II', 'resp': 'button'}",107,244,B,88.48045820479626,68.6121587118328,4.424022910239813,1.0777572687801542,B,Correct,0.0,0.0,45,-45,486,-1,-1
"{'cat': 'II', 'resp': 'button'}",107,245,B,80.78024005305839,64.37904905371136,4.039012002652919,1.0112637377611824,B,Correct,0.0,0.0,45,-45,958,-1,-1
"{'cat': 'II', 'resp': 'button'}",107,246,A,59.52051002162232,83.91865396057779,2.976025501081116,1.318191133908476,A,Correct,0.0,0.0,45,-45,786,-1,-1
"{'cat': 'II', 'resp': 'button'}",107,247,A,50.730193273733654,76.39840464426959,2.5365096636866826,1.2000633338820885,A,Correct,0.0,0.0,45,-45,815,-1,-1
"{'cat': 'II', 'resp': 'button'}",107,248,B,72.45856958464125,52.59851773770572,3.622928479232063,0.8262155845724435,A,Incorrect,0.0,0.0,45,-45,450,-1,-1
"{'cat': 'II', 'resp': 'button'}",107,249,B,74.12559149887483,58.77840419276977,3.7062795749437414,0.923289014008685,B,Correct,0.0,0.0,45,-45,532,-1,-1
"{'cat': 'II', 'resp': 'button'}",107,250,B,41.73515908893063,19.39974611961671,2.0867579544465316,0.3047304994544748,A,Incorrect,0.0,0.0,45,-45,596,-1,-1
"{'cat': 'II', 'resp': 'button'}",107,251,A,17.56202951053402,46.582038659785,0.878101475526701,0.7317089522140814,A,Correct,0.0,0.0,45,-45,626,-1,-1
"{'cat': 'II', 'resp': 'button'}",107,252,A,21.935755543862353,48.31503599184455,1.0967877771931176,0.7589308106495265,A,Correct,0.0,0.0,45,-45,556,-1,-1
"{'cat': 'II', 'resp': 'button'}",107,253,B,48.20254832381485,30.34431171163112,2.4101274161907424,0.4766473337574953,B,Correct,0.0,0.0,45,-45,605,-1,-1
"{'cat': 'II', 'resp': 'button'}",107,254,B,46.88299774526011,31.94438698592876,2.344149887263006,0.5017812573921159,A,Incorrect,0.0,0.0,45,-45,902,-1,-1
"{'cat': 'II', 'resp': 'button'}",107,255,A,39.43291547105801,57.60351374830524,1.9716457735529005,0.904833878063172,A,Correct,0.0,0.0,45,-45,844,-1,-1
"{'cat': 'II', 'resp': 'button'}",107,256,B,38.06488422409542,16.738437084856503,1.903244211204771,0.26292675489180073,B,Correct,0.0,0.0,45,-45,900,-1,-1
"{'cat': 'II', 'resp': 'button'}",107,257,B,67.69543457998233,41.847159341529675,3.384771728999117,0.6573336418047556,B,Correct,0.0,0.0,45,-45,572,-1,-1
"{'cat': 'II', 'resp': 'button'}",107,258,B,59.84269053555994,47.18392098463892,2.992134526777997,0.7411632976645145,B,Correct,0.0,0.0,45,-45,488,-1,-1
"{'cat': 'II', 'resp': 'button'}",107,259,B,54.77883180508023,38.83264668666782,2.7389415902540115,0.6099817877514182,B,Correct,0.0,0.0,45,-45,491,-1,-1
"{'cat': 'II', 'resp': 'button'}",107,260,B,71.15753082468382,46.41906096239731,3.557876541234191,0.7291489045300207,B,Correct,0.0,0.0,45,-45,451,-1,-1
"{'cat': 'II', 'resp': 'button'}",107,261,A,17.910074520641764,45.049388676424876,0.8955037260320882,0.7076341425728381,A,Correct,0.0,0.0,45,-45,558,-1,-1
"{'cat': 'II', 'resp': 'button'}",107,262,B,75.96071366632091,51.46916801518015,3.7980356833160456,0.8084758006143437,B,Correct,0.0,0.0,45,-45,689,-1,-1
"{'cat': 'II', 'resp': 'button'}",107,263,A,53.66375925548661,82.83523125798581,2.6831879627743307,1.301172769892499,A,Correct,0.0,0.0,45,-45,612,-1,-1
"{'cat': 'II', 'resp': 'button'}",107,264,B,60.85385099724433,32.82934501368643,3.0426925498622164,0.5156821455858099,B,Correct,0.0,0.0,45,-45,694,-1,-1
"{'cat': 'II', 'resp': 'button'}",107,265,B,48.45921522088736,34.58418225459712,2.4229607610443678,0.5432470645072639,B,Correct,0.0,0.0,45,-45,660,-1,-1
"{'cat': 'II', 'resp': 'button'}",107,266,B,46.318652947939086,34.22763181073396,2.3159326473969544,0.5376463832318906,B,Correct,0.0,0.0,45,-45,746,-1,-1
"{'cat': 'II', 'resp': 'button'}",107,267,A,30.99655791973882,61.29741183637846,1.549827895986941,0.9628574935461731,A,Correct,0.0,0.0,45,-45,516,-1,-1
"{'cat': 'II', 'resp': 'button'}",107,268,A,19.006860974162585,33.77726349488908,0.9503430487081291,0.530572014269551,A,Correct,0.0,0.0,45,-45,568,-1,-1
"{'cat': 'II', 'resp': 'button'}",107,269,A,12.738982156538206,30.04717870506277,0.6369491078269103,0.47197997940462433,A,Correct,0.0,0.0,45,-45,818,-1,-1
"{'cat': 'II', 'resp': 'button'}",107,270,B,48.431707070985745,29.348614248799564,2.421585353549287,0.4610069545853472,A,Incorrect,0.0,0.0,45,-45,792,-1,-1
"{'cat': 'II', 'resp': 'button'}",107,271,B,41.53420976590522,23.364759760266523,2.076710488295261,0.3670127880787186,B,Correct,0.0,0.0,45,-45,551,-1,-1
"{'cat': 'II', 'resp': 'button'}",107,272,B,51.8338404723015,40.828116200020325,2.5916920236150753,0.6413265495694713,B,Correct,0.0,0.0,45,-45,544,-1,-1
"{'cat': 'II', 'resp': 'button'}",107,273,B,72.7713872257008,61.74927295321465,3.63856936128504,0.9699553113716503,B,Correct,0.0,0.0,45,-45,603,-1,-1
"{'cat': 'II', 'resp': 'button'}",107,274,B,72.06191974054286,49.26256428746853,3.6030959870271433,0.7738145503125302,B,Correct,0.0,0.0,45,-45,466,-1,-1
"{'cat': 'II', 'resp': 'button'}",107,275,A,30.520674477768473,47.50471294216773,1.5260337238884236,0.7462022859500306,A,Correct,0.0,0.0,45,-45,615,-1,-1
"{'cat': 'II', 'resp': 'button'}",107,276,B,60.89292353912134,35.734823739962295,3.044646176956067,0.5613212986939584,B,Correct,0.0,0.0,45,-45,457,-1,-1
"{'cat': 'II', 'resp': 'button'}",107,277,A,27.148201534641828,44.49650758961666,1.3574100767320914,0.6989495067697109,A,Correct,0.0,0.0,45,-45,601,-1,-1
"{'cat': 'II', 'resp': 'button'}",107,278,A,14.639926386685996,41.27593846767353,0.7319963193342999,0.6483609253003375,A,Correct,0.0,0.0,45,-45,530,-1,-1
"{'cat': 'II', 'resp': 'button'}",107,279,B,63.219569191900185,48.10466718870125,3.1609784595950092,0.755626345217029,B,Correct,0.0,0.0,45,-45,1158,-1,-1
"{'cat': 'II', 'resp': 'button'}",107,280,A,62.739948130226885,78.38327127284714,3.1369974065113446,1.2312415459755621,A,Correct,0.0,0.0,45,-45,618,-1,-1
"{'cat': 'II', 'resp': 'button'}",107,281,B,80.99068013992019,65.74373745661637,4.0495340069960095,1.0327002130662106,B,Correct,0.0,0.0,45,-45,582,-1,-1
"{'cat': 'II', 'resp': 'button'}",107,282,A,26.046831558417814,52.30801744978555,1.3023415779208907,0.8216524167204651,A,Correct,0.0,0.0,45,-45,1227,-1,-1
"{'cat': 'II', 'resp': 'button'}",107,283,B,39.35792677544801,12.35307086594862,1.9678963387724002,0.19404158340869146,B,Correct,0.0,0.0,45,-45,915,-1,-1
"{'cat': 'II', 'resp': 'button'}",107,284,B,82.88468523190735,60.550837613524884,4.1442342615953685,0.9511303330767914,A,Incorrect,0.0,0.0,45,-45,500,-1,-1
"{'cat': 'II', 'resp': 'button'}",107,285,B,70.86941838612532,45.22291115518823,3.5434709193062655,0.7103598272954162,B,Correct,0.0,0.0,45,-45,699,-1,-1
"{'cat': 'II', 'resp': 'button'}",107,286,B,35.353146257188456,14.727465213710609,1.7676573128594228,0.2313384826069624,B,Correct,0.0,0.0,45,-45,1472,-1,-1
"{'cat': 'II', 'resp': 'button'}",107,287,A,52.58840129692326,63.638407018331854,2.6294200648461628,0.9996297598747422,B,Incorrect,0.0,0.0,45,-45,1285,-1,-1
"{'cat': 'II', 'resp': 'button'}",107,288,A,62.07776348571699,74.86179466188776,3.1038881742858497,1.1759263207216708,A,Correct,0.0,0.0,45,-45,846,-1,-1
"{'cat': 'II', 'resp': 'button'}",107,289,A,34.69920728976526,49.558077451411094,1.7349603644882632,0.7784564602369353,A,Correct,0.0,0.0,45,-45,586,-1,-1
"{'cat': 'II', 'resp': 'button'}",107,290,A,17.57698486483751,44.22079815311719,0.8788492432418755,0.6946186730685503,A,Correct,0.0,0.0,45,-45,506,-1,-1
"{'cat': 'II', 'resp': 'button'}",107,291,B,57.293082658183025,36.20769035721824,2.8646541329091515,0.5687490701484541,B,Correct,0.0,0.0,45,-45,1835,-1,-1
"{'cat': 'II', 'resp': 'button'}",107,292,A,32.01214340135503,44.35184509546147,1.6006071700677518,0.6966771536252713,A,Correct,0.0,0.0,45,-45,636,-1,-1
"{'cat': 'II', 'resp': 'button'}",107,293,A,24.217164503942367,43.46990286372231,1.2108582251971185,0.6828236374446596,A,Correct,0.0,0.0,45,-45,490,-1,-1
"{'cat': 'II', 'resp': 'button'}",107,294,A,62.13226270799692,71.14944465059163,3.1066131353998463,1.1176128631064612,B,Incorrect,0.0,0.0,45,-45,2370,-1,-1
"{'cat': 'II', 'resp': 'button'}",107,295,A,34.35867819616689,50.87951785180374,1.7179339098083446,0.7992135975070868,A,Correct,0.0,0.0,45,-45,613,-1,-1
"{'cat': 'II', 'resp': 'button'}",107,296,A,21.437445340541057,51.38009755433917,1.0718722670270528,0.8070766850871943,A,Correct,0.0,0.0,45,-45,444,-1,-1
"{'cat': 'II', 'resp': 'button'}",107,297,B,65.94190465273951,52.41011495181668,3.297095232636975,0.8232561605321193,B,Correct,0.0,0.0,45,-45,432,-1,-1
"{'cat': 'II', 'resp': 'button'}",107,298,A,21.11656570573628,46.26749942405941,1.055828285286814,0.7267681814529751,A,Correct,0.0,0.0,45,-45,466,-1,-1
"{'cat': 'II', 'resp': 'button'}",107,299,A,62.48785557431986,84.24965877997681,3.124392778715993,1.3233905454531099,A,Correct,0.0,0.0,45,-45,770,-1,-1
"{'cat': 'II', 'resp': 'button'}",107,300,A,35.308397134456456,45.36504348356575,1.765419856722823,0.7125924366887584,A,Correct,0.0,0.0,45,-45,1850,-1,-1
"{'cat': 'II', 'resp': 'button'}",107,301,A,36.607142478728285,61.65311289291732,1.8303571239364143,0.9684448326766559,A,Correct,0.0,0.0,45,-45,511,-1,-1
"{'cat': 'II', 'resp': 'button'}",107,302,B,52.63147629688623,45.60730379326357,2.6315738148443115,0.7163978527347735,B,Correct,0.0,0.0,45,-45,422,-1,-1
"{'cat': 'II', 'resp': 'button'}",107,303,B,66.88632837177354,45.925664440407274,3.344316418588677,0.7213986500860675,B,Correct,0.0,0.0,45,-45,421,-1,-1
"{'cat': 'II', 'resp': 'button'}",107,304,B,78.59245891680538,54.29199408769523,3.9296229458402694,0.8528166488732192,B,Correct,0.0,0.0,45,-45,519,-1,-1
"{'cat': 'II', 'resp': 'button'}",107,305,A,40.95206457870552,49.81458962874039,2.0476032289352757,0.7824857440962056,B,Incorrect,0.0,0.0,45,-45,617,-1,-1
"{'cat': 'II', 'resp': 'button'}",107,306,B,50.31651790594696,20.86937527284902,2.5158258952973482,0.3278153802109548,B,Correct,0.0,0.0,45,-45,613,-1,-1
"{'cat': 'II', 'resp': 'button'}",107,307,B,57.83336252122201,27.470385790089843,2.8916681260611004,0.4315038109471185,B,Correct,0.0,0.0,45,-45,839,-1,-1
"{'cat': 'II', 'resp': 'button'}",107,308,A,19.845331309713686,36.961421932869754,0.9922665654856843,0.5805886580526813,A,Correct,0.0,0.0,45,-45,645,-1,-1
"{'cat': 'II', 'resp': 'button'}",107,309,B,35.85920664545773,18.351324641886194,1.7929603322728866,0.28826193339295497,A,Incorrect,0.0,0.0,45,-45,839,-1,-1
"{'cat': 'II', 'resp': 'button'}",107,310,B,81.19022769086654,62.67166241966381,4.059511384543327,0.9844441712293768,B,Correct,0.0,0.0,45,-45,678,-1,-1
"{'cat': 'II', 'resp': 'button'}",107,311,B,64.7415718641351,54.64885852028566,3.2370785932067547,0.858422262271987,B,Correct,0.0,0.0,45,-45,1122,-1,-1
"{'cat': 'II', 'resp': 'button'}",107,312,B,64.24956117007558,44.004400462721364,3.212478058503779,0.6912195060965436,B,Correct,0.0,0.0,45,-45,563,-1,-1
"{'cat': 'II', 'resp': 'button'}",107,313,A,18.492816976566615,36.211133637085474,0.9246408488283308,0.5688031570621299,A,Correct,0.0,0.0,45,-45,532,-1,-1
"{'cat': 'II', 'resp': 'button'}",107,314,A,48.342420237585486,79.59143421378636,2.4171210118792743,1.2502193250735325,A,Correct,0.0,0.0,45,-45,722,-1,-1
"{'cat': 'II', 'resp': 'button'}",107,315,B,64.03620048884612,42.558120761421996,3.201810024442306,0.668501397673353,A,Incorrect,0.0,0.0,45,-45,461,-1,-1
"{'cat': 'II', 'resp': 'button'}",107,316,B,49.40080751790869,33.213641692047865,2.4700403758954343,0.5217186636935062,B,Correct,0.0,0.0,45,-45,1084,-1,-1
"{'cat': 'II', 'resp': 'button'}",107,317,A,30.414357508137115,41.15327289033847,1.520717875406856,0.6464340989173166,A,Correct,0.0,0.0,45,-45,463,-1,-1
"{'cat': 'II', 'resp': 'button'}",107,318,B,50.76136679899164,36.649292731261674,2.538068339949582,0.5756857440189673,B,Correct,0.0,0.0,45,-45,1378,-1,-1
"{'cat': 'II', 'resp': 'button'}",107,319,A,55.543752544964946,68.46454661140665,2.777187627248247,1.0754385833287554,B,Incorrect,0.0,0.0,45,-45,650,-1,-1
"{'cat': 'II', 'resp': 'button'}",107,320,A,17.527309787483937,46.51318131736775,0.8763654893741969,0.7306273436086628,A,Correct,0.0,0.0,45,-45,556,-1,-1
"{'cat': 'II', 'resp': 'button'}",107,321,B,49.59830550023897,39.71399845915192,2.479915275011949,0.62382602901974,B,Correct,0.0,0.0,45,-45,1512,-1,-1
"{'cat': 'II', 'resp': 'button'}",107,322,A,36.51612511570651,64.29676360372471,1.8258062557853254,1.009971200935306,A,Correct,0.0,0.0,45,-45,726,-1,-1
"{'cat': 'II', 'resp': 'button'}",107,323,B,55.83199521980161,35.42505617954916,2.791599760990081,0.5564554812333867,B,Correct,0.0,0.0,45,-45,1834,-1,-1
"{'cat': 'II', 'resp': 'button'}",107,324,A,40.50788540390027,67.87578973681043,2.0253942701950134,1.0661904119688457,A,Correct,0.0,0.0,45,-45,627,-1,-1
"{'cat': 'II', 'resp': 'button'}",107,325,A,51.958669573347024,75.10255311187132,2.5979334786673514,1.1797081456104608,A,Correct,0.0,0.0,45,-45,1018,-1,-1
"{'cat': 'II', 'resp': 'button'}",107,326,A,40.24184119517335,66.38637470792601,2.0120920597586673,1.042794735404398,A,Correct,0.0,0.0,45,-45,1869,-1,-1
"{'cat': 'II', 'resp': 'button'}",107,327,B,65.84532180423743,35.93330102446252,3.2922660902118714,0.5644389725884102,B,Correct,0.0,0.0,45,-45,452,-1,-1
"{'cat': 'II', 'resp': 'button'}",107,328,A,53.47176186888074,72.77350975634072,2.673588093444037,1.1431236181323257,B,Incorrect,0.0,0.0,45,-45,501,-1,-1
"{'cat': 'II', 'resp': 'button'}",107,329,B,48.84765323426174,27.08467623361316,2.4423826617130873,0.4254450994018859,B,Correct,0.0,0.0,45,-45,419,-1,-1
"{'cat': 'II', 'resp': 'button'}",107,330,A,40.30261977954302,66.67273177423414,2.015130988977151,1.0472928216834836,A,Correct,0.0,0.0,45,-45,736,-1,-1
"{'cat': 'II', 'resp': 'button'}",107,331,B,65.14908796973191,57.19754528694496,3.2574543984865953,0.8984569403841789,A,Incorrect,0.0,0.0,45,-45,674,-1,-1
"{'cat': 'II', 'resp': 'button'}",107,332,A,54.16504238003566,74.62362044637824,2.7082521190017825,1.1721850888930747,A,Correct,0.0,0.0,45,-45,856,-1,-1
"{'cat': 'II', 'resp': 'button'}",107,333,B,71.67684385208639,58.35616920096621,3.58384219260432,0.916656562266992,A,Incorrect,0.0,0.0,45,-45,888,-1,-1
"{'cat': 'II', 'resp': 'button'}",107,334,B,34.43536162907495,18.204486730872077,1.7217680814537473,0.28595540888040294,B,Correct,0.0,0.0,45,-45,1077,-1,-1
"{'cat': 'II', 'resp': 'button'}",107,335,B,62.02965528516701,34.061544292423775,3.1014827642583502,0.5350374865950094,B,Correct,0.0,0.0,45,-45,805,-1,-1
"{'cat': 'II', 'resp': 'button'}",107,336,A,19.62398367693627,34.87640692469828,0.9811991838468134,0.5478373188912016,A,Correct,0.0,0.0,45,-45,686,-1,-1
"{'cat': 'II', 'resp': 'button'}",107,337,B,45.89346065974793,19.07738351286497,2.2946730329873963,0.29966683946865813,B,Correct,0.0,0.0,45,-45,1433,-1,-1
"{'cat': 'II', 'resp': 'button'}",107,338,A,56.940227464444234,69.14702793715584,2.8470113732222115,1.086158974924685,A,Correct,0.0,0.0,45,-45,858,-1,-1
"{'cat': 'II', 'resp': 'button'}",107,339,B,70.39073162944044,51.39797283157072,3.519536581472022,0.8073574692853517,B,Correct,0.0,0.0,45,-45,692,-1,-1
"{'cat': 'II', 'resp': 'button'}",107,340,B,64.64130846582346,44.951379405303356,3.2320654232911727,0.7060946165421428,B,Correct,0.0,0.0,45,-45,588,-1,-1
"{'cat': 'II', 'resp': 'button'}",107,341,B,41.86991671231415,14.508977739066598,2.093495835615707,0.22790648938074737,B,Correct,0.0,0.0,45,-45,849,-1,-1
"{'cat': 'II', 'resp': 'button'}",107,342,B,45.886976423752856,25.62555373622878,2.2943488211876426,0.40252525680953405,B,Correct,0.0,0.0,45,-45,429,-1,-1
"{'cat': 'II', 'resp': 'button'}",107,343,B,38.78353261475063,16.78832618279053,1.9391766307375315,0.2637104110096195,B,Correct,0.0,0.0,45,-45,574,-1,-1
"{'cat': 'II', 'resp': 'button'}",107,344,A,14.285339786702728,40.627543241501336,0.7142669893351364,0.6381759569045112,A,Correct,0.0,0.0,45,-45,572,-1,-1
"{'cat': 'II', 'resp': 'button'}",107,345,B,81.37155472304713,52.29964268889191,4.068577736152356,0.8215208662839697,B,Correct,0.0,0.0,45,-45,499,-1,-1
"{'cat': 'II', 'resp': 'button'}",107,346,B,41.467635039609775,28.397188501139357,2.073381751980489,0.44606199388891976,A,Incorrect,0.0,0.0,45,-45,524,-1,-1
"{'cat': 'II', 'resp': 'button'}",107,347,A,61.1571633130159,73.42097684754243,3.057858165650795,1.153294007418128,A,Correct,0.0,0.0,45,-45,551,-1,-1
"{'cat': 'II', 'resp': 'button'}",107,348,B,39.127859976420844,12.171497935193813,1.956392998821042,0.1911894424819411,B,Correct,0.0,0.0,45,-45,601,-1,-1
"{'cat': 'II', 'resp': 'button'}",107,349,A,34.68983229863227,53.28479607065799,1.7344916149316134,0.8369956194180471,A,Correct,0.0,0.0,45,-45,640,-1,-1
"{'cat': 'II', 'resp': 'button'}",107,350,B,69.13992888950277,40.59054027207565,3.456996444475138,0.6375947156199675,B,Correct,0.0,0.0,45,-45,484,-1,-1
"{'cat': 'II', 'resp': 'button'}",107,351,B,75.83493805262843,51.37692046705674,3.791746902631422,0.8070267795168626,B,Correct,0.0,0.0,45,-45,496,-1,-1
"{'cat': 'II', 'resp': 'button'}",107,352,B,73.65784145608318,52.50723655706055,3.682892072804159,0.8247817431398142,B,Correct,0.0,0.0,45,-45,462,-1,-1
"{'cat': 'II', 'resp': 'button'}",107,353,B,55.605333293344046,41.755495538236275,2.7802666646672027,0.6558937901496222,B,Correct,0.0,0.0,45,-45,435,-1,-1
"{'cat': 'II', 'resp': 'button'}",107,354,A,33.02051410992334,43.5938417034878,1.651025705496167,0.684770464187168,A,Correct,0.0,0.0,45,-45,624,-1,-1
"{'cat': 'II', 'resp': 'button'}",107,355,B,76.44672921177977,49.221620002406645,3.8223364605889882,0.7731713989867457,B,Correct,0.0,0.0,45,-45,490,-1,-1
"{'cat': 'II', 'resp': 'button'}",107,356,A,53.25662975125418,81.08623437578035,2.662831487562709,1.2736995911110585,A,Correct,0.0,0.0,45,-45,575,-1,-1
"{'cat': 'II', 'resp': 'button'}",107,357,A,45.83228212332614,54.11186108842536,2.291614106166307,0.8499871263373424,A,Correct,0.0,0.0,45,-45,878,-1,-1
"{'cat': 'II', 'resp': 'button'}",107,358,A,51.55027496331166,67.5295097712553,2.5775137481655825,1.060751058989479,A,Correct,0.0,0.0,45,-45,1447,-1,-1
"{'cat': 'II', 'resp': 'button'}",107,359,A,38.95349072143951,65.80375881680872,1.9476745360719752,1.0336430263874041,A,Correct,0.0,0.0,45,-45,620,-1,-1
"{'cat': 'II', 'resp': 'button'}",107,360,B,43.207456581035935,23.817580571811646,2.1603728290517967,0.3741256807534323,B,Correct,0.0,0.0,45,-45,669,-1,-1
"{'cat': 'II', 'resp': 'button'}",107,361,A,40.59717165117255,71.0512639467054,2.0298585825586275,1.1160706442161952,A,Correct,0.0,0.0,45,-45,1151,-1,-1
"{'cat': 'II', 'resp': 'button'}",107,362,A,49.97221864353551,76.58990714785392,2.4986109321767755,1.2030714481741114,A,Correct,0.0,0.0,45,-45,1519,-1,-1
"{'cat': 'II', 'resp': 'button'}",107,363,B,63.93157972041863,44.64213465221067,3.1965789860209317,0.7012370113197569,B,Correct,0.0,0.0,45,-45,532,-1,-1
"{'cat': 'II', 'resp': 'button'}",107,364,B,43.41843272188267,27.063328242209224,2.1709216360941332,0.42510976593706834,B,Correct,0.0,0.0,45,-45,662,-1,-1
"{'cat': 'II', 'resp': 'button'}",107,365,B,43.8980641267663,32.267434951619705,2.1949032063383154,0.5068556829709749,B,Correct,0.0,0.0,45,-45,603,-1,-1
"{'cat': 'II', 'resp': 'button'}",107,366,A,50.210058048141704,76.53947198150905,2.5105029024070853,1.2022792144337533,A,Correct,0.0,0.0,45,-45,844,-1,-1
"{'cat': 'II', 'resp': 'button'}",107,367,A,15.154525063383588,41.30713936431216,0.7577262531691794,0.6488510278386641,A,Correct,0.0,0.0,45,-45,1112,-1,-1
"{'cat': 'II', 'resp': 'button'}",107,368,B,68.61076148026464,47.36710304808846,3.430538074013232,0.7440407147885271,B,Correct,0.0,0.0,45,-45,757,-1,-1
"{'cat': 'II', 'resp': 'button'}",107,369,A,44.00649332020705,72.47894011798154,2.2003246660103524,1.1384965290731266,A,Correct,0.0,0.0,45,-45,1851,-1,-1
"{'cat': 'II', 'resp': 'button'}",107,370,A,23.392201033716137,41.471122287643425,1.1696100516858068,0.6514268655749226,A,Correct,0.0,0.0,45,-45,1008,-1,-1
"{'cat': 'II', 'resp': 'button'}",107,371,A,43.855278359901334,53.95678236068329,2.1927639179950664,0.8475511553783297,A,Correct,0.0,0.0,45,-45,1658,-1,-1
"{'cat': 'II', 'resp': 'button'}",107,372,B,70.19151421030126,55.26380015348522,3.509575710515063,0.8680817428582182,B,Correct,0.0,0.0,45,-45,553,-1,-1
"{'cat': 'II', 'resp': 'button'}",107,373,B,31.684853204458065,14.920131418109975,1.5842426602229034,0.2343648762686428,B,Correct,0.0,0.0,45,-45,1040,-1,-1
"{'cat': 'II', 'resp': 'button'}",107,374,B,36.97419906744607,23.340667945214484,1.8487099533723037,0.36663435473282296,A,Incorrect,0.0,0.0,45,-45,866,-1,-1
"{'cat': 'II', 'resp': 'button'}",107,375,A,23.7191120263305,51.43098469097959,1.1859556013165249,0.807876018360353,A,Correct,0.0,0.0,45,-45,530,-1,-1
"{'cat': 'II', 'resp': 'button'}",107,376,B,34.48533614185915,14.460813083867976,1.7242668070929574,0.22714992074607396,B,Correct,0.0,0.0,45,-45,954,-1,-1
"{'cat': 'II', 'resp': 'button'}",107,377,A,44.216286852275196,52.63508600057392,2.21081434261376,0.8267899975023499,B,Incorrect,0.0,0.0,45,-45,1038,-1,-1
"{'cat': 'II', 'resp': 'button'}",107,378,A,53.89779041457858,65.56701768947171,2.694889520728929,1.0299243054551819,B,Incorrect,0.0,0.0,45,-45,1027,-1,-1
"{'cat': 'II', 'resp': 'button'}",107,379,B,41.34804773825809,16.984658901821785,2.0674023869129043,0.266794398148459,B,Correct,0.0,0.0,45,-45,504,-1,-1
"{'cat': 'II', 'resp': 'button'}",107,380,A,47.85570579419449,56.653097743559414,2.3927852897097246,0.8899047783713537,B,Incorrect,0.0,0.0,45,-45,685,-1,-1
"{'cat': 'II', 'resp': 'button'}",107,381,A,32.59850958115841,51.6936994893764,1.6299254790579203,0.8120027327635166,A,Correct,0.0,0.0,45,-45,1811,-1,-1
"{'cat': 'II', 'resp': 'button'}",107,382,A,31.628293647426048,58.70529952296013,1.5814146823713024,0.9221406885405997,A,Correct,0.0,0.0,45,-45,466,-1,-1
"{'cat': 'II', 'resp': 'button'}",107,383,B,59.13301203087392,28.565822686519383,2.956650601543696,0.4487108934785897,B,Correct,0.0,0.0,45,-45,560,-1,-1
"{'cat': 'II', 'resp': 'button'}",107,384,B,64.68659277155123,38.452980997905016,3.2343296385775613,0.6040180130582316,B,Correct,0.0,0.0,45,-45,605,-1,-1
"{'cat': 'II', 'resp': 'button'}",107,385,A,17.428437322047056,41.25798368279354,0.8714218661023528,0.6480788921989586,A,Correct,0.0,0.0,45,-45,560,-1,-1
"{'cat': 'II', 'resp': 'button'}",107,386,A,38.006625225485536,45.54468645113546,1.9003312612742769,0.7154142618246888,B,Incorrect,0.0,0.0,45,-45,4368,-1,-1
"{'cat': 'II', 'resp': 'button'}",107,387,A,42.65547309857324,53.84374725173237,2.1327736549286618,0.84577560403894,B,Incorrect,0.0,0.0,45,-45,1622,-1,-1
"{'cat': 'II', 'resp': 'button'}",107,388,A,60.99200819688261,74.32699486213247,3.04960040984413,1.167525705111408,B,Incorrect,0.0,0.0,45,-45,603,-1,-1
"{'cat': 'II', 'resp': 'button'}",107,389,B,59.723896967661716,27.454081284610126,2.9861948483830862,0.431247700373941,B,Correct,0.0,0.0,45,-45,456,-1,-1
"{'cat': 'II', 'resp': 'button'}",107,390,A,44.35452952585559,75.58006224239526,2.2177264762927793,1.1872088414928412,A,Correct,0.0,0.0,45,-45,2162,-1,-1
"{'cat': 'II', 'resp': 'button'}",107,391,A,47.52573428281379,69.13086313109926,2.3762867141406896,1.0859050587449146,A,Correct,0.0,0.0,45,-45,1136,-1,-1
"{'cat': 'II', 'resp': 'button'}",107,392,A,41.77104677016901,68.46509314787558,2.08855233850845,1.075447168303534,A,Correct,0.0,0.0,45,-45,438,-1,-1
"{'cat': 'II', 'resp': 'button'}",107,393,A,67.78716197470112,88.30398761902833,3.3893580987350562,1.3870757939331173,A,Correct,0.0,0.0,45,-45,375,-1,-1
"{'cat': 'II', 'resp': 'button'}",107,394,A,62.91289321954733,73.32524365512619,3.145644660977366,1.1517902339481303,B,Incorrect,0.0,0.0,45,-45,1487,-1,-1
"{'cat': 'II', 'resp': 'button'}",107,395,A,67.23852017201541,81.13072760476423,3.3619260086007703,1.2743984891176097,A,Correct,0.0,0.0,45,-45,1956,-1,-1
"{'cat': 'II', 'resp': 'button'}",107,396,B,41.74150758586205,26.264540747458632,2.0870753792931027,0.41256244131062914,B,Correct,0.0,0.0,45,-45,523,-1,-1
"{'cat': 'II', 'resp': 'button'}",107,397,B,45.663081272842774,26.108413078390154,2.2831540636421384,0.41010999361979095,B,Correct,0.0,0.0,45,-45,608,-1,-1
"{'cat': 'II', 'resp': 'button'}",107,398,B,41.10338682754106,22.195676261346506,2.0551693413770526,0.34864886742051776,B,Correct,0.0,0.0,45,-45,521,-1,-1
