condition,subject,trial,cat,x,y,xt,yt,resp,fb,rotation,su,target_angle_left,target_angle_right,rt,mt,ep
"{'cat': 'RB', 'resp': 'button'}",17,0,Left,46.98364639648442,40.48089601252121,2.3491823198242208,0.6358724276183448,Right,Incorrect,0.0,0.0,-45,45,1600,-1,-1
"{'cat': 'RB', 'resp': 'button'}",17,1,Left,42.74462366776235,56.14539733256804,2.1372311833881175,0.8819298389643786,Left,Correct,0.0,0.0,-45,45,1149,-1,-1
"{'cat': 'RB', 'resp': 'button'}",17,2,Left,42.97317216591685,34.12717634609608,2.1486586082958423,0.5360684324832939,Right,Incorrect,0.0,0.0,-45,45,1491,-1,-1
"{'cat': 'RB', 'resp': 'button'}",17,3,Right,54.25563446773559,28.823371021926352,2.7127817233867795,0.4527564532708839,Left,Incorrect,0.0,0.0,-45,45,281,-1,-1
"{'cat': 'RB', 'resp': 'button'}",17,4,Left,40.20504939816743,55.33553965380977,2.0102524699083717,0.8692086242941772,Left,Correct,0.0,0.0,-45,45,470,-1,-1
"{'cat': 'RB', 'resp': 'button'}",17,5,Left,38.62536346410414,49.28826145081196,1.931268173205207,0.7742182004104194,Left,Correct,0.0,0.0,-45,45,1351,-1,-1
"{'cat': 'RB', 'resp': 'button'}",17,6,Left,38.44959103149928,79.36302033163714,1.922479551574964,1.2466314082028433,Left,Correct,0.0,0.0,-45,45,1704,-1,-1
"{'cat': 'RB', 'resp': 'button'}",17,7,Left,36.12627959551526,85.6193779681293,1.8063139797757628,1.344906044148014,Left,Correct,0.0,0.0,-45,45,986,-1,-1
"{'cat': 'RB', 'resp': 'button'}",17,8,Left,44.639664567756526,56.38482502397588,2.2319832283878265,0.8856907603463428,Left,Correct,0.0,0.0,-45,45,1402,-1,-1
"{'cat': 'RB', 'resp': 'button'}",17,9,Left,45.43500780974813,37.776795174427406,2.2717503904874063,0.5933965109807373,Left,Correct,0.0,0.0,-45,45,937,-1,-1
"{'cat': 'RB', 'resp': 'button'}",17,10,Left,44.723732583664365,70.34557771327985,2.2361866291832184,1.104985750782849,Left,Correct,0.0,0.0,-45,45,1199,-1,-1
"{'cat': 'RB', 'resp': 'button'}",17,11,Right,54.012105334007494,25.467922800215426,2.7006052667003746,0.40004919585674387,Right,Correct,0.0,0.0,-45,45,2324,-1,-1
"{'cat': 'RB', 'resp': 'button'}",17,12,Left,38.46716216764119,56.47955265822903,1.9233581083820597,0.8871787385456511,Left,Correct,0.0,0.0,-45,45,1082,-1,-1
"{'cat': 'RB', 'resp': 'button'}",17,13,Right,56.792773644818496,14.42828243218834,2.839638682240925,0.22663893046440778,Right,Correct,0.0,0.0,-45,45,991,-1,-1
"{'cat': 'RB', 'resp': 'button'}",17,14,Right,64.0317160571582,17.907263446489203,3.20158580285791,0.2812866364469376,Right,Correct,0.0,0.0,-45,45,1064,-1,-1
"{'cat': 'RB', 'resp': 'button'}",17,15,Right,59.08063173341678,76.41538566313822,2.954031586670839,1.2003300711027292,Right,Correct,0.0,0.0,-45,45,738,-1,-1
"{'cat': 'RB', 'resp': 'button'}",17,16,Right,60.25592892574293,8.852219758895892,3.0127964462871466,0.13905034281254872,Right,Correct,0.0,0.0,-45,45,647,-1,-1
"{'cat': 'RB', 'resp': 'button'}",17,17,Left,40.649957103755796,47.47083414052288,2.03249785518779,0.7456701189782312,Left,Correct,0.0,0.0,-45,45,800,-1,-1
"{'cat': 'RB', 'resp': 'button'}",17,18,Left,48.6441768256128,36.44022272830058,2.4322088412806404,0.5724016800920246,Right,Incorrect,0.0,0.0,-45,45,584,-1,-1
"{'cat': 'RB', 'resp': 'button'}",17,19,Left,39.655605652272484,17.39006863675621,1.982780282613624,0.27316255937327794,Right,Incorrect,0.0,0.0,-45,45,1455,-1,-1
"{'cat': 'RB', 'resp': 'button'}",17,20,Right,66.07554644445158,37.072503929504705,3.3037773222225786,0.5823335299755535,Left,Incorrect,0.0,0.0,-45,45,1188,-1,-1
"{'cat': 'RB', 'resp': 'button'}",17,21,Right,62.16919974112813,43.7080449926326,3.1084599870564067,0.6865643652581337,Right,Correct,0.0,0.0,-45,45,1472,-1,-1
"{'cat': 'RB', 'resp': 'button'}",17,22,Right,61.958334020101844,63.615010020746155,3.0979167010050923,0.9992622406960859,Right,Correct,0.0,0.0,-45,45,724,-1,-1
"{'cat': 'RB', 'resp': 'button'}",17,23,Right,62.969455543535574,85.47444668850135,3.1484727771767784,1.3426294689312412,Right,Correct,0.0,0.0,-45,45,1141,-1,-1
"{'cat': 'RB', 'resp': 'button'}",17,24,Right,57.409364063642386,87.05622269502831,2.8704682031821194,1.36747594833989,Right,Correct,0.0,0.0,-45,45,565,-1,-1
"{'cat': 'RB', 'resp': 'button'}",17,25,Left,46.37340628800198,38.04452043974707,2.318670314400099,0.5976019296142806,Left,Correct,0.0,0.0,-45,45,766,-1,-1
"{'cat': 'RB', 'resp': 'button'}",17,26,Left,46.73252880783079,62.687611261167966,2.3366264403915395,0.9846946950458905,Right,Incorrect,0.0,0.0,-45,45,522,-1,-1
"{'cat': 'RB', 'resp': 'button'}",17,27,Left,40.20149974329366,20.56999252404015,2.010074987164683,0.3231126869896075,Left,Correct,0.0,0.0,-45,45,844,-1,-1
"{'cat': 'RB', 'resp': 'button'}",17,28,Left,44.34147194616581,62.77621569686088,2.217073597308291,0.9860864902671319,Right,Incorrect,0.0,0.0,-45,45,637,-1,-1
"{'cat': 'RB', 'resp': 'button'}",17,29,Left,36.33598123777924,64.16665967911183,1.8167990618889618,1.0079275332664708,Left,Correct,0.0,0.0,-45,45,1020,-1,-1
"{'cat': 'RB', 'resp': 'button'}",17,30,Right,52.23551084414253,67.39152358225259,2.6117755422071265,1.0585835770011403,Right,Correct,0.0,0.0,-45,45,704,-1,-1
"{'cat': 'RB', 'resp': 'button'}",17,31,Right,58.75934145158615,36.568539113579654,2.9379670725793074,0.5744172691586643,Left,Incorrect,0.0,0.0,-45,45,1137,-1,-1
"{'cat': 'RB', 'resp': 'button'}",17,32,Right,59.16322319094154,26.49115795346137,2.958161159547077,0.4161221360584053,Right,Correct,0.0,0.0,-45,45,744,-1,-1
"{'cat': 'RB', 'resp': 'button'}",17,33,Left,48.1098612078044,69.36885292130742,2.40549306039022,1.0896433936276513,Left,Correct,0.0,0.0,-45,45,1349,-1,-1
"{'cat': 'RB', 'resp': 'button'}",17,34,Right,59.42394201072134,19.81502147526491,2.971197100536067,0.31125362948708113,Right,Correct,0.0,0.0,-45,45,701,-1,-1
"{'cat': 'RB', 'resp': 'button'}",17,35,Left,36.18389338050925,13.87322175749604,1.809194669025462,0.2179200577748582,Left,Correct,0.0,0.0,-45,45,1077,-1,-1
"{'cat': 'RB', 'resp': 'button'}",17,36,Right,59.375407490461086,21.579980823020197,2.9687703745230545,0.33897754609104436,Right,Correct,0.0,0.0,-45,45,636,-1,-1
"{'cat': 'RB', 'resp': 'button'}",17,37,Right,64.99852161756907,64.33094208346523,3.249926080878453,1.010508075239624,Left,Incorrect,0.0,0.0,-45,45,1011,-1,-1
"{'cat': 'RB', 'resp': 'button'}",17,38,Right,56.76982885706962,54.816758428905395,2.838491442853481,0.8610596278692779,Right,Correct,0.0,0.0,-45,45,539,-1,-1
"{'cat': 'RB', 'resp': 'button'}",17,39,Left,32.64928985535525,48.14081531673679,1.6324644927677625,0.7561941586844164,Left,Correct,0.0,0.0,-45,45,517,-1,-1
"{'cat': 'RB', 'resp': 'button'}",17,40,Right,56.98114365893222,37.277895416678945,2.849057182946611,0.5855598119116359,Right,Correct,0.0,0.0,-45,45,594,-1,-1
"{'cat': 'RB', 'resp': 'button'}",17,41,Left,37.740112102736894,48.474047214641836,1.887005605136845,0.7614285530964177,Left,Correct,0.0,0.0,-45,45,575,-1,-1
"{'cat': 'RB', 'resp': 'button'}",17,42,Left,42.17047142968214,24.6505799949049,2.108523571484107,0.38721040509360377,100,Incorrect,0.0,0.0,-45,45,281,-1,-1
"{'cat': 'RB', 'resp': 'button'}",17,43,Right,51.88537082990187,66.13894237460761,2.5942685414950937,1.0389080774013297,Right,Correct,0.0,0.0,-45,45,669,-1,-1
"{'cat': 'RB', 'resp': 'button'}",17,44,Right,62.34353236850818,50.831372524387525,3.1171766184254093,0.7984573324725095,Right,Correct,0.0,0.0,-45,45,496,-1,-1
"{'cat': 'RB', 'resp': 'button'}",17,45,Right,59.61328481551795,54.790958185618216,2.980664240775898,0.8606543585954186,Right,Correct,0.0,0.0,-45,45,512,-1,-1
"{'cat': 'RB', 'resp': 'button'}",17,46,Left,45.64068547062642,48.78127632246338,2.282034273531321,0.7662544966369234,Left,Correct,0.0,0.0,-45,45,596,-1,-1
"{'cat': 'RB', 'resp': 'button'}",17,47,Left,41.99746358750577,55.05049511906756,2.0998731793752885,0.8647311552127172,Left,Correct,0.0,0.0,-45,45,416,-1,-1
"{'cat': 'RB', 'resp': 'button'}",17,48,Right,61.03663983784947,50.684396596371755,3.051831991892474,0.7961486399939651,Right,Correct,0.0,0.0,-45,45,523,-1,-1
"{'cat': 'RB', 'resp': 'button'}",17,49,Right,69.03807222412752,56.33831543132664,3.451903611206376,0.8849601893734014,Right,Correct,0.0,0.0,-45,45,442,-1,-1
"{'cat': 'RB', 'resp': 'button'}",17,50,Right,66.55253735894232,58.99824683613425,3.327626867947116,0.9267422941753831,Right,Correct,0.0,0.0,-45,45,564,-1,-1
"{'cat': 'RB', 'resp': 'button'}",17,51,Right,54.16787530914725,54.793966228714034,2.7083937654573624,0.8607016088258762,Right,Correct,0.0,0.0,-45,45,592,-1,-1
"{'cat': 'RB', 'resp': 'button'}",17,52,Right,61.769698765520005,58.31943773976318,3.0884849382760002,0.9160795858236366,Right,Correct,0.0,0.0,-45,45,566,-1,-1
"{'cat': 'RB', 'resp': 'button'}",17,53,Left,31.814640874310403,69.58422956735252,1.5907320437155201,1.093026522072502,Left,Correct,0.0,0.0,-45,45,473,-1,-1
"{'cat': 'RB', 'resp': 'button'}",17,54,Left,37.88323169910178,50.58436210001487,1.8941615849550888,0.7945773017996633,Left,Correct,0.0,0.0,-45,45,507,-1,-1
"{'cat': 'RB', 'resp': 'button'}",17,55,Left,49.217834998345744,56.589969706899524,2.460891749917287,0.8889131654903224,Right,Incorrect,0.0,0.0,-45,45,616,-1,-1
"{'cat': 'RB', 'resp': 'button'}",17,56,Left,44.94707312113304,61.27328309082692,2.2473536560566516,0.9624784800973477,Left,Correct,0.0,0.0,-45,45,385,-1,-1
"{'cat': 'RB', 'resp': 'button'}",17,57,Right,59.52628713831216,33.351030587439496,2.976314356915608,0.523876763415742,Right,Correct,0.0,0.0,-45,45,517,-1,-1
"{'cat': 'RB', 'resp': 'button'}",17,58,Right,54.382231824049356,28.30801151828267,2.719111591202468,0.4446612051178604,107,Incorrect,0.0,0.0,-45,45,470,-1,-1
"{'cat': 'RB', 'resp': 'button'}",17,59,Right,58.79532132957088,31.132833541157368,2.939766066478544,0.4890334056916694,Right,Correct,0.0,0.0,-45,45,416,-1,-1
"{'cat': 'RB', 'resp': 'button'}",17,60,Right,61.95801724637846,64.37906176464351,3.097900862318923,1.011263937424038,Right,Correct,0.0,0.0,-45,45,504,-1,-1
"{'cat': 'RB', 'resp': 'button'}",17,61,Left,37.23516786761823,52.47107924812145,1.8617583933809114,0.824213785459131,Left,Correct,0.0,0.0,-45,45,633,-1,-1
"{'cat': 'RB', 'resp': 'button'}",17,62,Right,58.813253560707935,29.50506710174876,2.940662678035397,0.463464510252639,Right,Correct,0.0,0.0,-45,45,540,-1,-1
"{'cat': 'RB', 'resp': 'button'}",17,63,Right,67.85873735718506,60.499610563410755,3.3929368678592535,0.9503256604552733,Right,Correct,0.0,0.0,-45,45,423,-1,-1
"{'cat': 'RB', 'resp': 'button'}",17,64,Right,64.56377959458372,62.40266223250043,3.228188979729186,0.980218726170343,Right,Correct,0.0,0.0,-45,45,489,-1,-1
"{'cat': 'RB', 'resp': 'button'}",17,65,Right,68.8513516485231,40.580073841521305,3.4425675824261557,0.6374303093132733,Right,Correct,0.0,0.0,-45,45,544,-1,-1
"{'cat': 'RB', 'resp': 'button'}",17,66,Right,65.03511313684754,54.58415294805387,3.251755656842377,0.8574058695201384,Right,Correct,0.0,0.0,-45,45,324,-1,-1
"{'cat': 'RB', 'resp': 'button'}",17,67,Left,34.55670032036141,82.54261853185932,1.7278350160180704,1.29657641993877,Left,Correct,0.0,0.0,-45,45,417,-1,-1
"{'cat': 'RB', 'resp': 'button'}",17,68,Right,60.05066139031349,35.26307688283519,3.0025330695156747,0.5539111163904356,Right,Correct,0.0,0.0,-45,45,482,-1,-1
"{'cat': 'RB', 'resp': 'button'}",17,69,Left,39.137396523057134,87.4695208808333,1.9568698261528568,1.3739680210612244,Left,Correct,0.0,0.0,-45,45,484,-1,-1
"{'cat': 'RB', 'resp': 'button'}",17,70,Left,36.094286818459416,36.221860232760825,1.8047143409229707,0.5689716500329883,Left,Correct,0.0,0.0,-45,45,457,-1,-1
"{'cat': 'RB', 'resp': 'button'}",17,71,Left,42.683054987674865,58.733377829698,2.1341527493837433,0.9225817415514643,Right,Incorrect,0.0,0.0,-45,45,368,-1,-1
"{'cat': 'RB', 'resp': 'button'}",17,72,Left,41.38696547865192,29.682136856809933,2.069348273932596,0.4662459154610046,Left,Correct,0.0,0.0,-45,45,494,-1,-1
"{'cat': 'RB', 'resp': 'button'}",17,73,Left,46.5305554603874,64.36014808366286,2.32652777301937,1.0109668420179325,Left,Correct,0.0,0.0,-45,45,517,-1,-1
"{'cat': 'RB', 'resp': 'button'}",17,74,Left,48.71327460891503,51.88450703098545,2.4356637304457514,0.8149999306183593,Left,Correct,0.0,0.0,-45,45,781,-1,-1
"{'cat': 'RB', 'resp': 'button'}",17,75,Left,35.645596538766256,35.312583894702506,1.7822798269383129,0.5546887707143532,Left,Correct,0.0,0.0,-45,45,455,-1,-1
"{'cat': 'RB', 'resp': 'button'}",17,76,Left,31.735846004846373,37.04189448100924,1.5867923002423185,0.5818527178829346,Left,Correct,0.0,0.0,-45,45,457,-1,-1
"{'cat': 'RB', 'resp': 'button'}",17,77,Right,54.49665828102797,52.85980081038262,2.7248329140513983,0.8303198094805893,Right,Correct,0.0,0.0,-45,45,607,-1,-1
"{'cat': 'RB', 'resp': 'button'}",17,78,Right,57.671244101541035,20.60850906814088,2.8835622050770517,0.32371770344955014,Right,Correct,0.0,0.0,-45,45,486,-1,-1
"{'cat': 'RB', 'resp': 'button'}",17,79,Left,42.1231731040978,82.27526897843606,2.10615865520489,1.2923769029738947,Left,Correct,0.0,0.0,-45,45,580,-1,-1
"{'cat': 'RB', 'resp': 'button'}",17,80,Right,60.076477501059834,72.51630119930661,3.0038238750529915,1.1390833955662316,Right,Correct,0.0,0.0,-45,45,641,-1,-1
"{'cat': 'RB', 'resp': 'button'}",17,81,Left,40.615728990293874,72.45039214680384,2.0307864495146934,1.1380480985904928,Left,Correct,0.0,0.0,-45,45,487,-1,-1
"{'cat': 'RB', 'resp': 'button'}",17,82,Left,42.656744517790344,79.82444246989516,2.132837225889517,1.2538794102016186,Left,Correct,0.0,0.0,-45,45,464,-1,-1
"{'cat': 'RB', 'resp': 'button'}",17,83,Left,43.48937680537386,74.2330120490021,2.174468840268693,1.166049426534938,Left,Correct,0.0,0.0,-45,45,716,-1,-1
"{'cat': 'RB', 'resp': 'button'}",17,84,Left,32.012747059868985,62.95659351105884,1.6006373529934492,0.9889198583469065,Left,Correct,0.0,0.0,-45,45,762,-1,-1
"{'cat': 'RB', 'resp': 'button'}",17,85,Right,67.82340632839339,63.17686327241966,3.3911703164196694,0.9923798476674021,Right,Correct,0.0,0.0,-45,45,558,-1,-1
"{'cat': 'RB', 'resp': 'button'}",17,86,Left,47.586010248160164,27.240566771426945,2.379300512408008,0.4278938222436856,Left,Correct,0.0,0.0,-45,45,768,-1,-1
"{'cat': 'RB', 'resp': 'button'}",17,87,Right,54.15573246071395,74.32826727208263,2.7077866230356973,1.167545692080167,Left,Incorrect,0.0,0.0,-45,45,653,-1,-1
"{'cat': 'RB', 'resp': 'button'}",17,88,Left,40.2714711677163,49.83768301656929,2.013573558385815,0.7828484941839545,Left,Correct,0.0,0.0,-45,45,586,-1,-1
"{'cat': 'RB', 'resp': 'button'}",17,89,Right,61.022826688566674,29.99267350323534,3.0511413344283334,0.47112381369640693,Right,Correct,0.0,0.0,-45,45,557,-1,-1
"{'cat': 'RB', 'resp': 'button'}",17,90,Left,37.91816651986503,40.32686065727732,1.8959083259932514,0.6334528459162085,Left,Correct,0.0,0.0,-45,45,435,-1,-1
"{'cat': 'RB', 'resp': 'button'}",17,91,Left,41.83137019980822,76.61593870573398,2.091568509990411,1.2034803509290988,Left,Correct,0.0,0.0,-45,45,859,-1,-1
"{'cat': 'RB', 'resp': 'button'}",17,92,Left,45.84596462638644,60.08874472758579,2.292298231319322,0.9438717949980797,Left,Correct,0.0,0.0,-45,45,500,-1,-1
"{'cat': 'RB', 'resp': 'button'}",17,93,Left,34.35736994454389,72.68520039076856,1.7178684972271947,1.1417364578617022,Left,Correct,0.0,0.0,-45,45,534,-1,-1
"{'cat': 'RB', 'resp': 'button'}",17,94,Right,53.78234920241441,25.86137017688659,2.6891174601207206,0.4062294527973654,Left,Incorrect,0.0,0.0,-45,45,678,-1,-1
"{'cat': 'RB', 'resp': 'button'}",17,95,Left,33.869361589898496,42.42279822173801,1.6934680794949246,0.6663757561906715,Left,Correct,0.0,0.0,-45,45,572,-1,-1
"{'cat': 'RB', 'resp': 'button'}",17,96,Right,67.23598720846613,30.371486593574954,3.3617993604233063,0.4770741958048798,Right,Correct,0.0,0.0,-45,45,785,-1,-1
"{'cat': 'RB', 'resp': 'button'}",17,97,Left,40.93091820252265,27.93214964270474,2.0465459101261327,0.43875718058245994,Left,Correct,0.0,0.0,-45,45,649,-1,-1
"{'cat': 'RB', 'resp': 'button'}",17,98,Right,60.52788524325032,22.55720903463924,3.026394262162516,0.3543278109435597,Right,Correct,0.0,0.0,-45,45,948,-1,-1
"{'cat': 'RB', 'resp': 'button'}",17,99,Left,48.0762985336468,52.48423643899861,2.40381492668234,0.8244204581301388,Left,Correct,0.0,0.0,-45,45,749,-1,-1
"{'cat': 'RB', 'resp': 'button'}",17,100,Left,47.16600708474505,36.63318517041951,2.3583003542372523,0.5754327270449224,Left,Correct,0.0,0.0,-45,45,555,-1,-1
"{'cat': 'RB', 'resp': 'button'}",17,101,Right,68.94309117366247,56.488421344211396,3.4471545586831236,0.8873180475392969,Right,Correct,0.0,0.0,-45,45,535,-1,-1
"{'cat': 'RB', 'resp': 'button'}",17,102,Right,68.53781178311431,60.77538016577201,3.4268905891557155,0.9546574392395808,Right,Correct,0.0,0.0,-45,45,826,-1,-1
"{'cat': 'RB', 'resp': 'button'}",17,103,Left,38.79296379254134,47.27768780905473,1.9396481896270672,0.7426361834981904,Left,Correct,0.0,0.0,-45,45,660,-1,-1
"{'cat': 'RB', 'resp': 'button'}",17,104,Right,50.81082436654543,52.6526155746601,2.5405412183272715,0.8270653514081985,Right,Correct,0.0,0.0,-45,45,703,-1,-1
"{'cat': 'RB', 'resp': 'button'}",17,105,Left,35.15406376183911,19.499561828348494,1.7577031880919554,0.3062984009407979,Left,Correct,0.0,0.0,-45,45,448,-1,-1
"{'cat': 'RB', 'resp': 'button'}",17,106,Left,39.6669649806833,72.5297768667753,1.983348249034165,1.1392950708558407,Left,Correct,0.0,0.0,-45,45,1410,-1,-1
"{'cat': 'RB', 'resp': 'button'}",17,107,Left,39.73189442186202,61.677186631448066,1.9865947210931012,0.9688229820772193,Left,Correct,0.0,0.0,-45,45,502,-1,-1
"{'cat': 'RB', 'resp': 'button'}",17,108,Right,57.708440845407715,52.57812400779664,2.8854220422703856,0.8258952406121353,Right,Correct,0.0,0.0,-45,45,494,-1,-1
"{'cat': 'RB', 'resp': 'button'}",17,109,Right,66.1692583638128,64.48723714866063,3.30846291819064,1.0129631523826752,Right,Correct,0.0,0.0,-45,45,540,-1,-1
"{'cat': 'RB', 'resp': 'button'}",17,110,Left,42.63112259951044,57.38449621091386,2.131556129975522,0.9013935586307915,Left,Correct,0.0,0.0,-45,45,505,-1,-1
"{'cat': 'RB', 'resp': 'button'}",17,111,Right,54.59110438324443,48.42366480475651,2.7295552191622217,0.7606371480525883,Right,Correct,0.0,0.0,-45,45,515,-1,-1
"{'cat': 'RB', 'resp': 'button'}",17,112,Left,37.753464247199176,64.35661538997262,1.8876732123599589,1.010911350595209,Left,Correct,0.0,0.0,-45,45,854,-1,-1
"{'cat': 'RB', 'resp': 'button'}",17,113,Right,61.73597059728185,23.839840570895376,3.086798529864092,0.37447534000138405,Right,Correct,0.0,0.0,-45,45,510,-1,-1
"{'cat': 'RB', 'resp': 'button'}",17,114,Left,33.15105893071472,22.311336310973484,1.657552946535736,0.3504656512316275,Left,Correct,0.0,0.0,-45,45,440,-1,-1
"{'cat': 'RB', 'resp': 'button'}",17,115,Right,64.4072101026303,17.490229053654772,3.220360505131515,0.27473587552282297,Right,Correct,0.0,0.0,-45,45,522,-1,-1
"{'cat': 'RB', 'resp': 'button'}",17,116,Right,54.081154785893226,47.1068787666632,2.704057739294661,0.7399531213344707,Right,Correct,0.0,0.0,-45,45,1089,-1,-1
"{'cat': 'RB', 'resp': 'button'}",17,117,Left,43.12402460141625,28.713200353003014,2.1562012300708124,0.45102589645023067,Left,Correct,0.0,0.0,-45,45,570,-1,-1
"{'cat': 'RB', 'resp': 'button'}",17,118,Right,57.74769757103755,38.29878588772124,2.887384878551877,0.6015959219313675,Right,Correct,0.0,0.0,-45,45,557,-1,-1
"{'cat': 'RB', 'resp': 'button'}",17,119,Left,31.460226254417677,55.86772953594787,1.5730113127208838,0.8775682434143767,Left,Correct,0.0,0.0,-45,45,864,-1,-1
"{'cat': 'RB', 'resp': 'button'}",17,120,Right,56.67298807352664,70.93717823989789,2.8336494036763322,1.114278590124265,Right,Correct,0.0,0.0,-45,45,600,-1,-1
"{'cat': 'RB', 'resp': 'button'}",17,121,Left,45.59285092462093,28.289040514662027,2.2796425462310466,0.4443632092898312,100,Incorrect,0.0,0.0,-45,45,962,-1,-1
"{'cat': 'RB', 'resp': 'button'}",17,122,Right,56.68683192478532,57.680531808704096,2.8343415962392657,0.9060436749268858,Right,Correct,0.0,0.0,-45,45,524,-1,-1
"{'cat': 'RB', 'resp': 'button'}",17,123,Right,65.72801490010092,31.354917789758765,3.2864007450050456,0.4925218969110903,Right,Correct,0.0,0.0,-45,45,591,-1,-1
"{'cat': 'RB', 'resp': 'button'}",17,124,Right,59.04857076203322,30.25957442312598,2.9524285381016613,0.4753162835422309,Right,Correct,0.0,0.0,-45,45,622,-1,-1
"{'cat': 'RB', 'resp': 'button'}",17,125,Left,40.40927399159233,29.660259854947192,2.0204636995796164,0.46590227231933184,Left,Correct,0.0,0.0,-45,45,458,-1,-1
"{'cat': 'RB', 'resp': 'button'}",17,126,Right,53.446760545183515,70.32837680340265,2.672338027259176,1.1047155595223228,Right,Correct,0.0,0.0,-45,45,846,-1,-1
"{'cat': 'RB', 'resp': 'button'}",17,127,Right,65.1392295344837,17.460084171521856,3.2569614767241855,0.27426236082156247,Right,Correct,0.0,0.0,-45,45,600,-1,-1
"{'cat': 'RB', 'resp': 'button'}",17,128,Right,53.770767734062325,40.807953033196945,2.6885383867031165,0.6410098272856442,Right,Correct,0.0,0.0,-45,45,1051,-1,-1
"{'cat': 'RB', 'resp': 'button'}",17,129,Right,54.40704548220651,33.102697828844434,2.7203522741103257,0.5199759615655023,Right,Correct,0.0,0.0,-45,45,513,-1,-1
"{'cat': 'RB', 'resp': 'button'}",17,130,Left,46.50547669174532,68.45900980336089,2.325273834587266,1.075351611351351,100,Incorrect,0.0,0.0,-45,45,1594,-1,-1
"{'cat': 'RB', 'resp': 'button'}",17,131,Right,53.32984307769823,53.56827899483356,2.6664921538849113,0.8414485587780877,Left,Incorrect,0.0,0.0,-45,45,1097,-1,-1
"{'cat': 'RB', 'resp': 'button'}",17,132,Left,37.32785384873677,47.48520024573568,1.8663926924368386,0.7458957812312174,Left,Correct,0.0,0.0,-45,45,825,-1,-1
"{'cat': 'RB', 'resp': 'button'}",17,133,Right,65.39372190782278,59.31576801932323,3.269686095391139,0.9317299052577113,Right,Correct,0.0,0.0,-45,45,401,-1,-1
"{'cat': 'RB', 'resp': 'button'}",17,134,Left,36.43812077850364,58.2901410529981,1.821906038925182,0.9156193945440584,Left,Correct,0.0,0.0,-45,45,467,-1,-1
"{'cat': 'RB', 'resp': 'button'}",17,135,Right,53.40308983585693,26.721252394276085,2.6701544917928466,0.41973645108288204,Right,Correct,0.0,0.0,-45,45,802,-1,-1
"{'cat': 'RB', 'resp': 'button'}",17,136,Left,36.88680248254495,86.09314127659304,1.8443401241272477,1.3523479007950645,Left,Correct,0.0,0.0,-45,45,685,-1,-1
"{'cat': 'RB', 'resp': 'button'}",17,137,Left,38.267513967858356,65.35569364688482,1.9133756983929178,1.0266048351565924,Left,Correct,0.0,0.0,-45,45,748,-1,-1
"{'cat': 'RB', 'resp': 'button'}",17,138,Left,37.05699260284197,77.6030867666814,1.8528496301420987,1.218986436410488,Left,Correct,0.0,0.0,-45,45,517,-1,-1
"{'cat': 'RB', 'resp': 'button'}",17,139,Right,64.8717896592364,37.09125610670465,3.24358948296182,0.5826280884862045,Right,Correct,0.0,0.0,-45,45,473,-1,-1
"{'cat': 'RB', 'resp': 'button'}",17,140,Right,60.381434159134585,17.826557450863383,3.019071707956729,0.280018909632144,Right,Correct,0.0,0.0,-45,45,898,-1,-1
"{'cat': 'RB', 'resp': 'button'}",17,141,Right,54.3607262441398,73.59795893272643,2.71803631220699,1.156074035511283,Right,Correct,0.0,0.0,-45,45,950,-1,-1
"{'cat': 'RB', 'resp': 'button'}",17,142,Right,61.53106288726348,46.688278552490914,3.076553144363174,0.7333777645462967,Right,Correct,0.0,0.0,-45,45,524,-1,-1
"{'cat': 'RB', 'resp': 'button'}",17,143,Left,46.03118101666555,37.68720138697073,2.3015590508332777,0.5919891750583316,100,Incorrect,0.0,0.0,-45,45,634,-1,-1
"{'cat': 'RB', 'resp': 'button'}",17,144,Left,47.12507116021251,62.061914118207945,2.3562535580106254,0.9748662673074137,Right,Incorrect,0.0,0.0,-45,45,688,-1,-1
"{'cat': 'RB', 'resp': 'button'}",17,145,Right,53.774588271954556,23.70328455340505,2.6887294135977275,0.37233032309462866,Right,Correct,0.0,0.0,-45,45,549,-1,-1
"{'cat': 'RB', 'resp': 'button'}",17,146,Right,62.284750131115054,18.676259542949975,3.1142375065557526,0.29336599888333953,Right,Correct,0.0,0.0,-45,45,481,-1,-1
"{'cat': 'RB', 'resp': 'button'}",17,147,Left,35.14529889255288,23.156880745752403,1.757264944627644,0.3637474321545534,Left,Correct,0.0,0.0,-45,45,453,-1,-1
"{'cat': 'RB', 'resp': 'button'}",17,148,Left,48.18720465454818,35.77235385411642,2.409360232727409,0.5619108203485333,100,Incorrect,0.0,0.0,-45,45,1079,-1,-1
"{'cat': 'RB', 'resp': 'button'}",17,149,Left,48.266454199104146,56.309622223740426,2.4133227099552075,0.8845094775225973,Right,Incorrect,0.0,0.0,-45,45,2686,-1,-1
"{'cat': 'RB', 'resp': 'button'}",17,150,Right,66.62137783174637,53.745224514020315,3.331068891587319,0.8442280124939014,Right,Correct,0.0,0.0,-45,45,592,-1,-1
"{'cat': 'RB', 'resp': 'button'}",17,151,Left,34.25346133638751,38.82798226736949,1.7126730668193755,0.6099085192244137,Left,Correct,0.0,0.0,-45,45,459,-1,-1
"{'cat': 'RB', 'resp': 'button'}",17,152,Left,43.427959466622305,49.28953280434954,2.171397973331115,0.7742381707850882,Left,Correct,0.0,0.0,-45,45,808,-1,-1
"{'cat': 'RB', 'resp': 'button'}",17,153,Right,66.19022723274021,28.905616650568113,3.3095113616370107,0.45404836458453796,Right,Correct,0.0,0.0,-45,45,552,-1,-1
"{'cat': 'RB', 'resp': 'button'}",17,154,Right,63.541304208901146,74.96105758793786,3.177065210445057,1.177485539117935,Right,Correct,0.0,0.0,-45,45,753,-1,-1
"{'cat': 'RB', 'resp': 'button'}",17,155,Right,58.222430812427106,40.563049152934546,2.9111215406213553,0.6371628861303043,Right,Correct,0.0,0.0,-45,45,656,-1,-1
"{'cat': 'RB', 'resp': 'button'}",17,156,Left,40.217942434633734,84.12170370541864,2.0108971217316864,1.3213806318420025,Left,Correct,0.0,0.0,-45,45,632,-1,-1
"{'cat': 'RB', 'resp': 'button'}",17,157,Right,51.308856899437174,51.11589645914871,2.5654428449718587,0.8029266239885904,Right,Correct,0.0,0.0,-45,45,1757,-1,-1
"{'cat': 'RB', 'resp': 'button'}",17,158,Right,63.023699714988226,53.25745313007127,3.151184985749411,0.8365661175116732,Right,Correct,0.0,0.0,-45,45,471,-1,-1
"{'cat': 'RB', 'resp': 'button'}",17,159,Right,59.33752052635407,54.250444240046626,2.9668760263177036,0.852163985392566,Right,Correct,0.0,0.0,-45,45,517,-1,-1
"{'cat': 'RB', 'resp': 'button'}",17,160,Left,45.236155156605214,71.99099092323294,2.2618077578302604,1.1308318410453904,100,Incorrect,0.0,0.0,-45,45,728,-1,-1
"{'cat': 'RB', 'resp': 'button'}",17,161,Right,58.7582197007516,60.44787772425654,2.93791098503758,0.9495130429180922,Right,Correct,0.0,0.0,-45,45,603,-1,-1
"{'cat': 'RB', 'resp': 'button'}",17,162,Left,41.142225844161125,68.43778444750325,2.0571112922080563,1.07501820424119,Left,Correct,0.0,0.0,-45,45,1238,-1,-1
"{'cat': 'RB', 'resp': 'button'}",17,163,Left,45.62863027877519,62.26892685389521,2.2814315139387595,0.9781180157555869,Left,Correct,0.0,0.0,-45,45,1186,-1,-1
"{'cat': 'RB', 'resp': 'button'}",17,164,Left,45.14818225687084,16.29912260919278,2.2574091128435416,0.2560260192449967,100,Incorrect,0.0,0.0,-45,45,1055,-1,-1
"{'cat': 'RB', 'resp': 'button'}",17,165,Right,65.7137944993214,19.12038607732791,3.28568972496607,0.3003423221716696,Right,Correct,0.0,0.0,-45,45,657,-1,-1
"{'cat': 'RB', 'resp': 'button'}",17,166,Right,63.951506367486985,17.393686641109795,3.1975753183743496,0.2732193908527673,Right,Correct,0.0,0.0,-45,45,672,-1,-1
"{'cat': 'RB', 'resp': 'button'}",17,167,Left,45.69538066626173,58.952958049099436,2.2847690333130863,0.9260308995721903,Left,Correct,0.0,0.0,-45,45,704,-1,-1
"{'cat': 'RB', 'resp': 'button'}",17,168,Right,53.121541144624324,31.192253523131672,2.6560770572312165,0.48996677258590404,Right,Correct,0.0,0.0,-45,45,687,-1,-1
"{'cat': 'RB', 'resp': 'button'}",17,169,Right,57.156867395244944,61.94635109344484,2.8578433697622474,0.9730510075593019,Right,Correct,0.0,0.0,-45,45,701,-1,-1
"{'cat': 'RB', 'resp': 'button'}",17,170,Right,66.31514353383218,70.1442062096451,3.315757176691609,1.101822614600543,Right,Correct,0.0,0.0,-45,45,898,-1,-1
"{'cat': 'RB', 'resp': 'button'}",17,171,Right,64.64170821919171,23.709331379073678,3.232085410959586,0.3724253064101191,Right,Correct,0.0,0.0,-45,45,521,-1,-1
"{'cat': 'RB', 'resp': 'button'}",17,172,Left,38.53686786199636,42.447045794692016,1.9268433930998183,0.6667566361759698,Left,Correct,0.0,0.0,-45,45,544,-1,-1
"{'cat': 'RB', 'resp': 'button'}",17,173,Right,61.953164200927155,44.109377491674906,3.0976582100463577,0.6928684814113244,Right,Correct,0.0,0.0,-45,45,578,-1,-1
"{'cat': 'RB', 'resp': 'button'}",17,174,Left,32.02348348677538,28.54309910481295,1.601174174338769,0.44835395229182873,Left,Correct,0.0,0.0,-45,45,536,-1,-1
"{'cat': 'RB', 'resp': 'button'}",17,175,Right,56.520339833930485,74.21434523255648,2.826016991696524,1.1657562088678806,Right,Correct,0.0,0.0,-45,45,652,-1,-1
"{'cat': 'RB', 'resp': 'button'}",17,176,Left,46.18479651007841,27.206937272911848,2.30923982550392,0.4273655713162909,Left,Correct,0.0,0.0,-45,45,880,-1,-1
"{'cat': 'RB', 'resp': 'button'}",17,177,Right,61.64440412591072,73.68211090739122,3.0822202062955357,1.1573958916382432,Right,Correct,0.0,0.0,-45,45,491,-1,-1
"{'cat': 'RB', 'resp': 'button'}",17,178,Right,51.69228136941066,42.87287676553366,2.584614068470533,0.6734455734243054,Right,Correct,0.0,0.0,-45,45,1171,-1,-1
"{'cat': 'RB', 'resp': 'button'}",17,179,Left,41.28739691148342,56.722807874230774,2.0643698455741712,0.8909997825433434,Left,Correct,0.0,0.0,-45,45,435,-1,-1
"{'cat': 'RB', 'resp': 'button'}",17,180,Left,38.94258647765185,31.18576060567129,1.9471293238825924,0.4898647820769345,Left,Correct,0.0,0.0,-45,45,1181,-1,-1
"{'cat': 'RB', 'resp': 'button'}",17,181,Left,40.24669473482223,31.96436718217905,2.0123347367411113,0.5020951055809019,Left,Correct,0.0,0.0,-45,45,515,-1,-1
"{'cat': 'RB', 'resp': 'button'}",17,182,Left,31.267341222279352,55.025987128168865,1.5633670611139676,0.864346184591909,Left,Correct,0.0,0.0,-45,45,520,-1,-1
"{'cat': 'RB', 'resp': 'button'}",17,183,Left,34.73672917475612,27.86137458249097,1.7368364587378062,0.43764544853633514,Left,Correct,0.0,0.0,-45,45,513,-1,-1
"{'cat': 'RB', 'resp': 'button'}",17,184,Right,55.61998739006958,22.244808631230782,2.780999369503479,0.34942063688192726,Right,Correct,0.0,0.0,-45,45,794,-1,-1
"{'cat': 'RB', 'resp': 'button'}",17,185,Left,32.13949686032099,55.4122787520332,1.6069748430160495,0.8704140392302866,Left,Correct,0.0,0.0,-45,45,533,-1,-1
"{'cat': 'RB', 'resp': 'button'}",17,186,Left,32.2401530033322,39.00118781122438,1.6120076501666103,0.6126292255450916,Left,Correct,0.0,0.0,-45,45,474,-1,-1
"{'cat': 'RB', 'resp': 'button'}",17,187,Left,42.69552408834988,77.93955919880538,2.134776204417494,1.224271733014969,Left,Correct,0.0,0.0,-45,45,625,-1,-1
"{'cat': 'RB', 'resp': 'button'}",17,188,Right,60.37266431607503,60.96163216059253,3.0186332158037517,0.9575830787328038,Right,Correct,0.0,0.0,-45,45,513,-1,-1
"{'cat': 'RB', 'resp': 'button'}",17,189,Left,40.88663943006245,84.60621664595524,2.0443319715031225,1.3289913433147973,Left,Correct,0.0,0.0,-45,45,535,-1,-1
"{'cat': 'RB', 'resp': 'button'}",17,190,Left,35.2331011759697,47.77393946101136,1.761655058798485,0.7504312862187841,Left,Correct,0.0,0.0,-45,45,538,-1,-1
"{'cat': 'RB', 'resp': 'button'}",17,191,Left,32.0177471619241,39.45980041626482,1.6008873580962049,0.6198330954992852,Left,Correct,0.0,0.0,-45,45,448,-1,-1
"{'cat': 'RB', 'resp': 'button'}",17,192,Left,34.437652713691826,82.27848686468371,1.721882635684591,1.2924274494128731,Left,Correct,0.0,0.0,-45,45,582,-1,-1
"{'cat': 'RB', 'resp': 'button'}",17,193,Left,36.83511562478187,85.41999950738963,1.8417557812390937,1.341774214610295,Left,Correct,0.0,0.0,-45,45,419,-1,-1
"{'cat': 'RB', 'resp': 'button'}",17,194,Right,60.313402709601824,69.50375708102622,3.015670135480091,1.0917624632132077,Right,Correct,0.0,0.0,-45,45,524,-1,-1
"{'cat': 'RB', 'resp': 'button'}",17,195,Right,67.16587054581316,65.44532670543866,3.358293527290658,1.02801278794795,Right,Correct,0.0,0.0,-45,45,573,-1,-1
"{'cat': 'RB', 'resp': 'button'}",17,196,Right,58.15182757450735,57.77889136301887,2.9075913787253675,0.9075887031931142,Right,Correct,0.0,0.0,-45,45,596,-1,-1
"{'cat': 'RB', 'resp': 'button'}",17,197,Left,34.86113281675114,80.21007088999349,1.743056640837557,1.2599368472596002,Left,Correct,0.0,0.0,-45,45,547,-1,-1
"{'cat': 'RB', 'resp': 'button'}",17,198,Left,37.2632740388651,51.083833814608795,1.8631637019432548,0.8024229851458843,Left,Correct,0.0,0.0,-45,45,1241,-1,-1
"{'cat': 'RB', 'resp': 'button'}",17,199,Right,64.37265181390212,32.145475696450205,3.218632590695106,0.504939951470586,Right,Correct,0.0,0.0,-45,45,685,-1,-1
"{'cat': 'RB', 'resp': 'button'}",17,200,Right,56.15494959059087,80.94820797324107,2.807747479529543,1.2715314774499642,Right,Correct,0.0,0.0,-45,45,732,-1,-1
"{'cat': 'RB', 'resp': 'button'}",17,201,Right,57.287960581792376,36.97073016906475,2.864398029089619,0.5807348714849219,Right,Correct,0.0,0.0,-45,45,695,-1,-1
"{'cat': 'RB', 'resp': 'button'}",17,202,Left,47.3603120360825,29.755532297333318,2.368015601804125,0.46739880834478087,100,Incorrect,0.0,0.0,-45,45,1249,-1,-1
"{'cat': 'RB', 'resp': 'button'}",17,203,Right,59.975326782946645,9.512629478119962,2.9987663391473323,0.1494240344239169,Right,Correct,0.0,0.0,-45,45,551,-1,-1
"{'cat': 'RB', 'resp': 'button'}",17,204,Left,43.4197557689493,57.72286466295481,2.170987788447465,0.9067086378464836,Left,Correct,0.0,0.0,-45,45,761,-1,-1
"{'cat': 'RB', 'resp': 'button'}",17,205,Right,56.70221603771306,47.160062692534055,2.8351108018856532,0.7407885324884955,Right,Correct,0.0,0.0,-45,45,981,-1,-1
"{'cat': 'RB', 'resp': 'button'}",17,206,Right,64.65306610006066,41.35447968568598,3.2326533050030326,0.6495946478678971,Right,Correct,0.0,0.0,-45,45,763,-1,-1
"{'cat': 'RB', 'resp': 'button'}",17,207,Right,60.24311400913532,85.43347891493599,3.012155700456766,1.341985948648907,Right,Correct,0.0,0.0,-45,45,712,-1,-1
"{'cat': 'RB', 'resp': 'button'}",17,208,Left,32.68846245144633,37.07063935105949,1.6344231225723163,0.5823042412458259,Left,Correct,0.0,0.0,-45,45,712,-1,-1
"{'cat': 'RB', 'resp': 'button'}",17,209,Right,58.65640040121128,12.750289016005937,2.9328200200605643,0.20028107151915442,Right,Correct,0.0,0.0,-45,45,855,-1,-1
"{'cat': 'RB', 'resp': 'button'}",17,210,Right,54.66285475788572,42.09850397756354,2.7331427378942856,0.6612817541151715,Right,Correct,0.0,0.0,-45,45,680,-1,-1
"{'cat': 'RB', 'resp': 'button'}",17,211,Left,34.191420006439905,63.561256014172685,1.7095710003219953,0.9984178747353248,Left,Correct,0.0,0.0,-45,45,492,-1,-1
"{'cat': 'RB', 'resp': 'button'}",17,212,Left,39.58379483675374,52.93115793615722,1.979189741837687,0.831440684591163,Left,Correct,0.0,0.0,-45,45,520,-1,-1
"{'cat': 'RB', 'resp': 'button'}",17,213,Right,55.337446916004765,39.343200872488254,2.766872345800238,0.6180015541485833,Right,Correct,0.0,0.0,-45,45,589,-1,-1
"{'cat': 'RB', 'resp': 'button'}",17,214,Left,36.95231784246218,56.059858530411766,1.847615892123109,0.8805861986021235,Left,Correct,0.0,0.0,-45,45,673,-1,-1
"{'cat': 'RB', 'resp': 'button'}",17,215,Left,46.083984538523154,59.25142723732,2.304199226926158,0.9307192426173734,100,Incorrect,0.0,0.0,-45,45,635,-1,-1
"{'cat': 'RB', 'resp': 'button'}",17,216,Left,38.9670958119573,63.83588276697473,1.948354790597865,1.0027317016807353,Left,Correct,0.0,0.0,-45,45,408,-1,-1
"{'cat': 'RB', 'resp': 'button'}",17,217,Left,46.426231793773646,58.889998349203125,2.321311589688682,0.9250419309188579,Left,Correct,0.0,0.0,-45,45,565,-1,-1
"{'cat': 'RB', 'resp': 'button'}",17,218,Left,34.239371618517325,66.13925281720833,1.7119685809258665,1.0389129538222985,Left,Correct,0.0,0.0,-45,45,595,-1,-1
"{'cat': 'RB', 'resp': 'button'}",17,219,Right,54.42372955251725,20.32958343277734,2.7211864776258623,0.31933634981477027,Right,Correct,0.0,0.0,-45,45,546,-1,-1
"{'cat': 'RB', 'resp': 'button'}",17,220,Right,61.11412113345119,26.339390361069864,3.05570605667256,0.41373817629185444,Right,Correct,0.0,0.0,-45,45,444,-1,-1
"{'cat': 'RB', 'resp': 'button'}",17,221,Left,46.841396140863466,25.947237890029907,2.3420698070431736,0.40757825968132344,100,Incorrect,0.0,0.0,-45,45,668,-1,-1
"{'cat': 'RB', 'resp': 'button'}",17,222,Left,34.77235997361707,83.67246988700245,1.7386179986808536,1.3143240835236005,Left,Correct,0.0,0.0,-45,45,476,-1,-1
"{'cat': 'RB', 'resp': 'button'}",17,223,Left,47.33555880560065,71.08570392991098,2.3667779402800324,1.1166116262073371,Left,Correct,0.0,0.0,-45,45,1634,-1,-1
"{'cat': 'RB', 'resp': 'button'}",17,224,Right,63.40706753905478,56.80866364487037,3.1703533769527388,0.8923484018348917,Right,Correct,0.0,0.0,-45,45,417,-1,-1
"{'cat': 'RB', 'resp': 'button'}",17,225,Right,50.97727067780828,46.637558839801315,2.548863533890414,0.7325810611624076,Left,Incorrect,0.0,0.0,-45,45,415,-1,-1
"{'cat': 'RB', 'resp': 'button'}",17,226,Right,66.93456788960331,69.14547748318682,3.346728394480166,1.086134620450691,Right,Correct,0.0,0.0,-45,45,487,-1,-1
"{'cat': 'RB', 'resp': 'button'}",17,227,Left,36.70201698481963,23.29141159275596,1.8351008492409815,0.3658606377576913,Left,Correct,0.0,0.0,-45,45,420,-1,-1
"{'cat': 'RB', 'resp': 'button'}",17,228,Left,40.06326468909499,76.81035463058815,2.0031632344547496,1.2065342291354122,Left,Correct,0.0,0.0,-45,45,540,-1,-1
"{'cat': 'RB', 'resp': 'button'}",17,229,Right,67.59960509133688,32.617803435592364,3.3799802545668443,0.5123592582474644,Right,Correct,0.0,0.0,-45,45,494,-1,-1
"{'cat': 'RB', 'resp': 'button'}",17,230,Left,46.92959231613979,58.03931977324948,2.34647961580699,0.911679503094947,Left,Correct,0.0,0.0,-45,45,1005,-1,-1
"{'cat': 'RB', 'resp': 'button'}",17,231,Right,64.38051496642926,16.807549810599717,3.219025748321463,0.26401237504912295,Right,Correct,0.0,0.0,-45,45,721,-1,-1
"{'cat': 'RB', 'resp': 'button'}",17,232,Right,66.17665227678506,36.04947430107346,3.308832613839253,0.566263818150132,Right,Correct,0.0,0.0,-45,45,649,-1,-1
"{'cat': 'RB', 'resp': 'button'}",17,233,Left,37.56016435161553,68.34556268818324,1.8780082175807766,1.0735695882332856,Left,Correct,0.0,0.0,-45,45,685,-1,-1
"{'cat': 'RB', 'resp': 'button'}",17,234,Right,52.047129001485246,44.632814287443395,2.602356450074262,0.7010906073723486,Right,Correct,0.0,0.0,-45,45,904,-1,-1
"{'cat': 'RB', 'resp': 'button'}",17,235,Right,62.022176577879975,79.35532308898433,3.1011088288939987,1.2465105001979884,Right,Correct,0.0,0.0,-45,45,711,-1,-1
"{'cat': 'RB', 'resp': 'button'}",17,236,Left,39.88601180081763,79.80989034837496,1.9943005900408814,1.2536508260113086,Left,Correct,0.0,0.0,-45,45,625,-1,-1
"{'cat': 'RB', 'resp': 'button'}",17,237,Right,60.3733158381756,18.190345167905548,3.01866579190878,0.2857332737287733,Right,Correct,0.0,0.0,-45,45,638,-1,-1
"{'cat': 'RB', 'resp': 'button'}",17,238,Left,34.67430336236251,74.79031295620743,1.7337151681181253,1.174803488714514,Left,Correct,0.0,0.0,-45,45,489,-1,-1
"{'cat': 'RB', 'resp': 'button'}",17,239,Left,45.38818892224165,48.05344981218976,2.269409446112083,0.7548218245481059,Left,Correct,0.0,0.0,-45,45,1149,-1,-1
"{'cat': 'RB', 'resp': 'button'}",17,240,Left,45.31525784089599,73.7415009445161,2.2657628920447994,1.158328788159883,Left,Correct,0.0,0.0,-45,45,541,-1,-1
"{'cat': 'RB', 'resp': 'button'}",17,241,Right,56.209926667036584,47.20850496373779,2.8104963333518294,0.7415494619051796,Right,Correct,0.0,0.0,-45,45,743,-1,-1
"{'cat': 'RB', 'resp': 'button'}",17,242,Left,40.77156997471295,34.39568864724325,2.0385784987356477,0.5402862138467062,Left,Correct,0.0,0.0,-45,45,630,-1,-1
"{'cat': 'RB', 'resp': 'button'}",17,243,Left,44.47700195064753,29.077556262865503,2.223850097532376,0.45674918569881073,Left,Correct,0.0,0.0,-45,45,850,-1,-1
"{'cat': 'RB', 'resp': 'button'}",17,244,Left,44.45359969559807,79.14158416708396,2.2226799847799037,1.2431530970638465,Left,Correct,0.0,0.0,-45,45,714,-1,-1
"{'cat': 'RB', 'resp': 'button'}",17,245,Left,38.2795584097594,71.31805093649858,1.91397792048797,1.120261324452233,Left,Correct,0.0,0.0,-45,45,651,-1,-1
"{'cat': 'RB', 'resp': 'button'}",17,246,Right,52.40829323720522,31.992375399311847,2.620414661860261,0.5025350576268247,Left,Incorrect,0.0,0.0,-45,45,753,-1,-1
"{'cat': 'RB', 'resp': 'button'}",17,247,Left,43.68373193232733,33.74949161928717,2.1841865966163665,0.5301357746677143,Left,Correct,0.0,0.0,-45,45,468,-1,-1
"{'cat': 'RB', 'resp': 'button'}",17,248,Left,31.42128268695116,44.07135701188903,1.5710641343475578,0.6922712571114178,Left,Correct,0.0,0.0,-45,45,497,-1,-1
"{'cat': 'RB', 'resp': 'button'}",17,249,Left,45.47937821958243,67.4747324834604,2.2739689109791215,1.059890619364879,Left,Correct,0.0,0.0,-45,45,947,-1,-1
"{'cat': 'RB', 'resp': 'button'}",17,250,Left,37.103213185862906,34.47416310207504,1.855160659293145,0.5415188877006762,Left,Correct,0.0,0.0,-45,45,583,-1,-1
"{'cat': 'RB', 'resp': 'button'}",17,251,Left,46.4430792052568,26.833929907296778,2.32215396026284,0.42150638531853496,100,Incorrect,0.0,0.0,-45,45,693,-1,-1
"{'cat': 'RB', 'resp': 'button'}",17,252,Right,68.3402830504984,48.63079023905034,3.41701415252492,0.763890666766334,Right,Correct,0.0,0.0,-45,45,604,-1,-1
"{'cat': 'RB', 'resp': 'button'}",17,253,Left,43.572227907438645,27.3785842026334,2.178611395371932,0.43006179498341324,Left,Correct,0.0,0.0,-45,45,418,-1,-1
"{'cat': 'RB', 'resp': 'button'}",17,254,Right,60.26752977232896,86.01408693441589,3.0133764886164482,1.3511061180919737,Right,Correct,0.0,0.0,-45,45,565,-1,-1
"{'cat': 'RB', 'resp': 'button'}",17,255,Right,59.03595676518908,27.06883047521222,2.951797838259454,0.42519619481097104,Right,Correct,0.0,0.0,-45,45,623,-1,-1
"{'cat': 'RB', 'resp': 'button'}",17,256,Left,43.353181546744246,80.2653678614214,2.167659077337212,1.2608054500556187,Left,Correct,0.0,0.0,-45,45,883,-1,-1
"{'cat': 'RB', 'resp': 'button'}",17,257,Right,52.02015404702285,59.25052472622674,2.601007702351142,0.9307050660062716,Right,Correct,0.0,0.0,-45,45,791,-1,-1
"{'cat': 'RB', 'resp': 'button'}",17,258,Right,58.65585308877357,10.238143098923445,2.932792654438679,0.16082037572989466,Right,Correct,0.0,0.0,-45,45,672,-1,-1
"{'cat': 'RB', 'resp': 'button'}",17,259,Left,38.66771899582798,43.90107823961513,1.9333859497913992,0.6895965244112281,Left,Correct,0.0,0.0,-45,45,701,-1,-1
"{'cat': 'RB', 'resp': 'button'}",17,260,Right,61.026201279138036,15.997326136169896,3.051310063956902,0.2512854113323567,Right,Correct,0.0,0.0,-45,45,508,-1,-1
"{'cat': 'RB', 'resp': 'button'}",17,261,Left,32.199209872517926,29.88841398931318,1.6099604936258964,0.46948610908138344,100,Incorrect,0.0,0.0,-45,45,493,-1,-1
"{'cat': 'RB', 'resp': 'button'}",17,262,Left,38.40224887837599,89.78162786337265,1.9201124439187995,1.410286512614521,Left,Correct,0.0,0.0,-45,45,613,-1,-1
"{'cat': 'RB', 'resp': 'button'}",17,263,Right,57.37747460531642,52.337154310292675,2.868873730265821,0.8221100974550541,Right,Correct,0.0,0.0,-45,45,599,-1,-1
"{'cat': 'RB', 'resp': 'button'}",17,264,Right,63.15368772534579,85.13756636331897,3.1576843862672894,1.337337765157582,Right,Correct,0.0,0.0,-45,45,663,-1,-1
"{'cat': 'RB', 'resp': 'button'}",17,265,Left,42.427827339723095,47.208075776040275,2.1213913669861544,0.741542720240592,Left,Correct,0.0,0.0,-45,45,958,-1,-1
"{'cat': 'RB', 'resp': 'button'}",17,266,Left,39.46811876833881,12.937669905525013,1.9734059384169405,0.20322444364883563,Left,Correct,0.0,0.0,-45,45,603,-1,-1
"{'cat': 'RB', 'resp': 'button'}",17,267,Right,57.60346895890534,59.21197054349982,2.880173447945267,0.9300994583201713,Right,Correct,0.0,0.0,-45,45,623,-1,-1
"{'cat': 'RB', 'resp': 'button'}",17,268,Right,60.038539519360484,15.659212760823017,3.0019269759680243,0.24597433885200565,Right,Correct,0.0,0.0,-45,45,519,-1,-1
"{'cat': 'RB', 'resp': 'button'}",17,269,Left,37.048656607383904,14.19886865604419,1.8524328303691953,0.22303530729557403,Left,Correct,0.0,0.0,-45,45,498,-1,-1
"{'cat': 'RB', 'resp': 'button'}",17,270,Right,54.42449691906585,54.850725531447615,2.7212248459532926,0.8615931818683294,Right,Correct,0.0,0.0,-45,45,544,-1,-1
"{'cat': 'RB', 'resp': 'button'}",17,271,Right,62.30133089284214,71.53504438028892,3.1150665446421066,1.1236698494966775,Right,Correct,0.0,0.0,-45,45,565,-1,-1
"{'cat': 'RB', 'resp': 'button'}",17,272,Right,64.65227430002561,25.591687286479484,3.2326137150012806,0.40199328386085625,Right,Correct,0.0,0.0,-45,45,473,-1,-1
"{'cat': 'RB', 'resp': 'button'}",17,273,Right,53.12680068549187,55.694224937990974,2.6563400342745935,0.8748428395628494,Right,Correct,0.0,0.0,-45,45,461,-1,-1
"{'cat': 'RB', 'resp': 'button'}",17,274,Left,40.53309610284347,78.08976558371123,2.0266548051421736,1.2266311693916812,Left,Correct,0.0,0.0,-45,45,475,-1,-1
"{'cat': 'RB', 'resp': 'button'}",17,275,Left,31.200572720782226,53.64894707544403,1.5600286360391111,0.8427156900252127,Left,Correct,0.0,0.0,-45,45,776,-1,-1
"{'cat': 'RB', 'resp': 'button'}",17,276,Left,33.729407512105354,56.83845695847608,1.6864703756052677,0.8928163941106405,Left,Correct,0.0,0.0,-45,45,447,-1,-1
"{'cat': 'RB', 'resp': 'button'}",17,277,Right,51.60127765118593,50.42768478015705,2.5800638825592968,0.7921162202144162,Right,Correct,0.0,0.0,-45,45,544,-1,-1
"{'cat': 'RB', 'resp': 'button'}",17,278,Left,35.43458916641573,21.97008214211781,1.7717294583207865,0.3451052432822081,Left,Correct,0.0,0.0,-45,45,529,-1,-1
"{'cat': 'RB', 'resp': 'button'}",17,279,Left,38.91529948397295,48.19879006439029,1.9457649741986476,0.7571048238910262,Left,Correct,0.0,0.0,-45,45,514,-1,-1
"{'cat': 'RB', 'resp': 'button'}",17,280,Left,48.0227295259234,65.53526094730157,2.40113647629617,1.0294254717156632,Right,Incorrect,0.0,0.0,-45,45,481,-1,-1
"{'cat': 'RB', 'resp': 'button'}",17,281,Right,64.45027062412103,57.02202374766313,3.2225135312060513,0.8956998544924061,Right,Correct,0.0,0.0,-45,45,531,-1,-1
"{'cat': 'RB', 'resp': 'button'}",17,282,Right,53.93468641926243,65.67115571565115,2.696734320963121,1.0315601017452052,Right,Correct,0.0,0.0,-45,45,1044,-1,-1
"{'cat': 'RB', 'resp': 'button'}",17,283,Left,38.35577299642815,28.69460995673727,1.9177886498214076,0.4507338791885516,Left,Correct,0.0,0.0,-45,45,434,-1,-1
"{'cat': 'RB', 'resp': 'button'}",17,284,Left,36.885574739937574,57.79804724815346,1.8442787369968787,0.9078896031331732,Left,Correct,0.0,0.0,-45,45,585,-1,-1
"{'cat': 'RB', 'resp': 'button'}",17,285,Right,62.80714583268605,49.50270343667175,3.1403572916343023,0.7775866472474108,Right,Correct,0.0,0.0,-45,45,563,-1,-1
"{'cat': 'RB', 'resp': 'button'}",17,286,Left,43.093677578939875,86.30916654847351,2.1546838789469938,1.3557412178307116,Left,Correct,0.0,0.0,-45,45,537,-1,-1
"{'cat': 'RB', 'resp': 'button'}",17,287,Right,55.68258819357909,17.355259755325598,2.7841294096789544,0.2726157827423675,Right,Correct,0.0,0.0,-45,45,621,-1,-1
"{'cat': 'RB', 'resp': 'button'}",17,288,Left,35.927611783124014,55.434404693610375,1.7963805891562006,0.8707615927078495,Left,Correct,0.0,0.0,-45,45,492,-1,-1
"{'cat': 'RB', 'resp': 'button'}",17,289,Left,39.52741524731316,63.79983714910638,1.9763707623656581,1.0021654984392887,Left,Correct,0.0,0.0,-45,45,492,-1,-1
"{'cat': 'RB', 'resp': 'button'}",17,290,Right,63.7610847663326,33.00364098006929,3.18805423831663,0.5184199802235037,Right,Correct,0.0,0.0,-45,45,633,-1,-1
"{'cat': 'RB', 'resp': 'button'}",17,291,Right,60.60201173062066,72.44797975321775,3.030100586531033,1.1380102048006548,Right,Correct,0.0,0.0,-45,45,537,-1,-1
"{'cat': 'RB', 'resp': 'button'}",17,292,Right,50.96920536694883,38.49429840529457,2.548460268347441,0.6046670253758337,Left,Incorrect,0.0,0.0,-45,45,516,-1,-1
"{'cat': 'RB', 'resp': 'button'}",17,293,Right,59.60081844638629,8.793459879244715,2.9800409223193145,0.13812734478135894,Right,Correct,0.0,0.0,-45,45,434,-1,-1
"{'cat': 'RB', 'resp': 'button'}",17,294,Right,60.63861925097619,43.25076006808081,3.0319309625488096,0.6793813504602871,Right,Correct,0.0,0.0,-45,45,625,-1,-1
"{'cat': 'RB', 'resp': 'button'}",17,295,Right,59.80524295941603,22.35545119733088,2.9902621479708014,0.3511586062460991,Right,Correct,0.0,0.0,-45,45,948,-1,-1
"{'cat': 'RB', 'resp': 'button'}",17,296,Left,41.81981507828229,42.869384393606154,2.0909907539141144,0.6733907153743501,Left,Correct,0.0,0.0,-45,45,612,-1,-1
"{'cat': 'RB', 'resp': 'button'}",17,297,Left,36.5050462172365,49.306323444628426,1.8252523108618248,0.7745019175458343,Left,Correct,0.0,0.0,-45,45,458,-1,-1
"{'cat': 'RB', 'resp': 'button'}",17,298,Left,44.09642001511845,74.87811807279077,2.2048210007559224,1.176182728260543,Left,Correct,0.0,0.0,-45,45,754,-1,-1
"{'cat': 'RB', 'resp': 'button'}",17,299,Left,40.755023075916256,50.20523635599041,2.0377511537958126,0.7886220085385934,Left,Correct,0.0,0.0,-45,45,536,-1,-1
"{'cat': 'RB', 'resp': 'button'}",17,300,Left,32.39954414826887,41.823321153218814,1.6199772074134438,0.6569591924183942,Left,Correct,0.0,0.0,-45,45,561,-1,-1
"{'cat': 'RB', 'resp': 'button'}",17,301,Left,39.806339958490234,82.89127279438593,1.9903169979245119,1.3020530682877516,Left,Correct,0.0,0.0,-45,45,781,-1,-1
"{'cat': 'RB', 'resp': 'button'}",17,302,Right,61.311103531794984,11.882083759564992,3.065555176589749,0.18664333524193985,Right,Correct,0.0,0.0,-45,45,543,-1,-1
"{'cat': 'RB', 'resp': 'button'}",17,303,Left,38.61882882635441,89.50143706765641,1.9309414413177206,1.405885285887393,Left,Correct,0.0,0.0,-45,45,676,-1,-1
"{'cat': 'RB', 'resp': 'button'}",17,304,Right,53.81770664948768,31.4159403806417,2.690885332474384,0.4934804375271944,Right,Correct,0.0,0.0,-45,45,716,-1,-1
"{'cat': 'RB', 'resp': 'button'}",17,305,Left,38.438732305000926,69.6833227384228,1.9219366152500463,1.0945830739637783,Left,Correct,0.0,0.0,-45,45,800,-1,-1
"{'cat': 'RB', 'resp': 'button'}",17,306,Right,55.37407775541762,79.91637626399005,2.768703887770881,1.2553235028623442,Right,Correct,0.0,0.0,-45,45,845,-1,-1
"{'cat': 'RB', 'resp': 'button'}",17,307,Right,57.72272969441765,88.7914240426299,2.8861364847208826,1.394732427370511,Right,Correct,0.0,0.0,-45,45,537,-1,-1
"{'cat': 'RB', 'resp': 'button'}",17,308,Left,42.222505018659305,24.252120291083518,2.1111252509329654,0.38095141470221966,Left,Correct,0.0,0.0,-45,45,472,-1,-1
"{'cat': 'RB', 'resp': 'button'}",17,309,Right,57.988876442292295,30.970581316162182,2.8994438221146144,0.4864847537013022,Right,Correct,0.0,0.0,-45,45,512,-1,-1
"{'cat': 'RB', 'resp': 'button'}",17,310,Right,60.5845431309792,53.973894203444594,3.02922715654896,0.8478199475758713,Right,Correct,0.0,0.0,-45,45,803,-1,-1
"{'cat': 'RB', 'resp': 'button'}",17,311,Right,54.109192454325964,63.972189318899055,2.7054596227162984,1.0048727999915437,Right,Correct,0.0,0.0,-45,45,748,-1,-1
"{'cat': 'RB', 'resp': 'button'}",17,312,Left,42.57342701506417,52.00773121013281,2.1286713507532085,0.8169355314981291,Left,Correct,0.0,0.0,-45,45,589,-1,-1
"{'cat': 'RB', 'resp': 'button'}",17,313,Right,66.4128748131093,49.979283868551455,3.3206437406554645,0.7850727551656006,Right,Correct,0.0,0.0,-45,45,630,-1,-1
"{'cat': 'RB', 'resp': 'button'}",17,314,Right,68.7810360827454,48.608294102540135,3.43905180413727,0.7635372982803609,Right,Correct,0.0,0.0,-45,45,507,-1,-1
"{'cat': 'RB', 'resp': 'button'}",17,315,Right,63.39383276950769,83.88385767241175,3.1696916384753844,1.3176445550921028,Right,Correct,0.0,0.0,-45,45,489,-1,-1
"{'cat': 'RB', 'resp': 'button'}",17,316,Right,56.07513353955736,42.16496706003799,2.803756676977868,0.6623257537733548,Right,Correct,0.0,0.0,-45,45,548,-1,-1
"{'cat': 'RB', 'resp': 'button'}",17,317,Right,54.47331189600859,20.559485979874637,2.7236655948004294,0.3229476505797825,Right,Correct,0.0,0.0,-45,45,473,-1,-1
"{'cat': 'RB', 'resp': 'button'}",17,318,Right,60.65729608229833,51.00003355382202,3.0328648041149164,0.8011066537276009,Right,Correct,0.0,0.0,-45,45,397,-1,-1
"{'cat': 'RB', 'resp': 'button'}",17,319,Left,47.83541311034546,34.33367929963344,2.391770655517273,0.5393121732921817,100,Incorrect,0.0,0.0,-45,45,557,-1,-1
"{'cat': 'RB', 'resp': 'button'}",17,320,Right,59.554641696931235,36.00575171178347,2.9777320848465614,0.5655770253235853,Right,Correct,0.0,0.0,-45,45,462,-1,-1
"{'cat': 'RB', 'resp': 'button'}",17,321,Left,44.86246825259746,17.082370289714213,2.243123412629873,0.26832924504033356,Left,Correct,0.0,0.0,-45,45,714,-1,-1
"{'cat': 'RB', 'resp': 'button'}",17,322,Left,42.235936850511614,31.214604237679797,2.111796842525581,0.49031785678903833,Left,Correct,0.0,0.0,-45,45,643,-1,-1
"{'cat': 'RB', 'resp': 'button'}",17,323,Left,42.66213223509217,11.847863705598499,2.1331066117546085,0.18610580789120693,Left,Correct,0.0,0.0,-45,45,661,-1,-1
"{'cat': 'RB', 'resp': 'button'}",17,324,Left,40.76337885190852,88.31334473413281,2.038168942595426,1.3872227751534725,Left,Correct,0.0,0.0,-45,45,526,-1,-1
"{'cat': 'RB', 'resp': 'button'}",17,325,Right,66.76408828770903,62.842702683043484,3.338204414385451,0.987130865403885,Right,Correct,0.0,0.0,-45,45,707,-1,-1
"{'cat': 'RB', 'resp': 'button'}",17,326,Right,55.31123045915329,36.425272920926716,2.7655615229576647,0.5721668490669329,Left,Incorrect,0.0,0.0,-45,45,911,-1,-1
"{'cat': 'RB', 'resp': 'button'}",17,327,Right,64.80923602809504,73.80870427786166,3.240461801404752,1.1593844156515587,Right,Correct,0.0,0.0,-45,45,530,-1,-1
"{'cat': 'RB', 'resp': 'button'}",17,328,Left,34.71299226344661,36.27614441912648,1.7356496131723305,0.5698243440384506,Left,Correct,0.0,0.0,-45,45,543,-1,-1
"{'cat': 'RB', 'resp': 'button'}",17,329,Right,65.32423844456905,27.43859862210634,3.2662119222284525,0.43100449928004153,Right,Correct,0.0,0.0,-45,45,535,-1,-1
"{'cat': 'RB', 'resp': 'button'}",17,330,Left,46.321426618962676,28.528674450522352,2.3160713309481338,0.44812737035207934,Left,Correct,0.0,0.0,-45,45,493,-1,-1
"{'cat': 'RB', 'resp': 'button'}",17,331,Left,35.1595919553208,27.957884495480567,1.75797959776604,0.4391614227045686,Left,Correct,0.0,0.0,-45,45,463,-1,-1
"{'cat': 'RB', 'resp': 'button'}",17,332,Right,55.91973590341579,62.62813219754738,2.7959867951707893,0.9837604000993262,Right,Correct,0.0,0.0,-45,45,769,-1,-1
"{'cat': 'RB', 'resp': 'button'}",17,333,Left,42.606530660421434,25.475160606411205,2.130326533021072,0.4001628870506077,Left,Correct,0.0,0.0,-45,45,517,-1,-1
"{'cat': 'RB', 'resp': 'button'}",17,334,Right,61.02998095771604,17.730602158044192,3.051499047885802,0.2785116474171748,Right,Correct,0.0,0.0,-45,45,524,-1,-1
"{'cat': 'RB', 'resp': 'button'}",17,335,Left,40.932270099338,12.008574302671946,2.0466135049668996,0.18863024404680676,Left,Correct,0.0,0.0,-45,45,506,-1,-1
"{'cat': 'RB', 'resp': 'button'}",17,336,Right,65.52131698801395,82.3343697260062,3.2760658494006973,1.2933052553458346,Right,Correct,0.0,0.0,-45,45,442,-1,-1
"{'cat': 'RB', 'resp': 'button'}",17,337,Left,39.042526639319846,50.9847801663798,1.9521263319659923,0.8008670540779469,Left,Correct,0.0,0.0,-45,45,487,-1,-1
"{'cat': 'RB', 'resp': 'button'}",17,338,Left,43.97468703765705,68.96024887006035,2.1987343518828526,1.0832250561995274,Left,Correct,0.0,0.0,-45,45,467,-1,-1
"{'cat': 'RB', 'resp': 'button'}",17,339,Right,62.353765421136224,69.70712254994197,3.117688271056811,1.0949569205289056,Right,Correct,0.0,0.0,-45,45,549,-1,-1
"{'cat': 'RB', 'resp': 'button'}",17,340,Right,62.45706491583726,20.644753802288264,3.122853245791863,0.32428703440219375,Right,Correct,0.0,0.0,-45,45,560,-1,-1
"{'cat': 'RB', 'resp': 'button'}",17,341,Left,46.1997350584667,23.311265666648293,2.309986752923335,0.3661725048211112,Left,Correct,0.0,0.0,-45,45,501,-1,-1
"{'cat': 'RB', 'resp': 'button'}",17,342,Left,34.2626166729755,22.765709828691044,1.713130833648775,0.3576029337578637,Left,Correct,0.0,0.0,-45,45,478,-1,-1
"{'cat': 'RB', 'resp': 'button'}",17,343,Right,57.376134357643,67.71773142491502,2.8688067178821495,1.0637076378113985,Right,Correct,0.0,0.0,-45,45,656,-1,-1
"{'cat': 'RB', 'resp': 'button'}",17,344,Right,67.83628991531606,35.34424325703383,3.3918144957658027,0.5551860748149403,Right,Correct,0.0,0.0,-45,45,511,-1,-1
"{'cat': 'RB', 'resp': 'button'}",17,345,Right,63.267600060077704,18.92440482204332,3.163380003003885,0.29726385581245274,Right,Correct,0.0,0.0,-45,45,516,-1,-1
"{'cat': 'RB', 'resp': 'button'}",17,346,Left,42.66576533930895,60.19154805071401,2.1332882669654474,0.9454866258216008,Left,Correct,0.0,0.0,-45,45,471,-1,-1
"{'cat': 'RB', 'resp': 'button'}",17,347,Right,57.6493400568928,58.92124943744,2.88246700284464,0.9255328218649663,Right,Correct,0.0,0.0,-45,45,549,-1,-1
"{'cat': 'RB', 'resp': 'button'}",17,348,Right,55.288050101427466,47.33094071118556,2.764402505071373,0.7434726781287732,Right,Correct,0.0,0.0,-45,45,632,-1,-1
"{'cat': 'RB', 'resp': 'button'}",17,349,Right,53.133248803052076,23.217348277592766,2.6566624401526036,0.36469725392360536,Right,Correct,0.0,0.0,-45,45,887,-1,-1
"{'cat': 'RB', 'resp': 'button'}",17,350,Left,41.65504813646025,36.883083535080154,2.0827524068230128,0.5793581213777323,Left,Correct,0.0,0.0,-45,45,463,-1,-1
"{'cat': 'RB', 'resp': 'button'}",17,351,Left,47.5730494046123,30.93866147990107,2.378652470230615,0.48598335808579357,Right,Incorrect,0.0,0.0,-45,45,577,-1,-1
"{'cat': 'RB', 'resp': 'button'}",17,352,Left,40.86598403970797,79.83331466036663,2.0432992019853984,1.2540187742436506,Left,Correct,0.0,0.0,-45,45,555,-1,-1
"{'cat': 'RB', 'resp': 'button'}",17,353,Right,59.935192075423124,83.30891202014469,2.9967596037711566,1.3086133299052247,Right,Correct,0.0,0.0,-45,45,522,-1,-1
"{'cat': 'RB', 'resp': 'button'}",17,354,Right,66.68509311281314,70.90181703879533,3.334254655640657,1.113723137676235,Right,Correct,0.0,0.0,-45,45,472,-1,-1
"{'cat': 'RB', 'resp': 'button'}",17,355,Right,62.45559429053538,81.78532114192348,3.1227797145267693,1.2846808203547437,Right,Correct,0.0,0.0,-45,45,642,-1,-1
"{'cat': 'RB', 'resp': 'button'}",17,356,Left,33.982599784372695,45.947440692883525,1.6991299892186347,0.721740710660078,Left,Correct,0.0,0.0,-45,45,468,-1,-1
"{'cat': 'RB', 'resp': 'button'}",17,357,Left,36.480644522430815,41.29166527945536,1.824032226121541,0.6486079614821284,Left,Correct,0.0,0.0,-45,45,695,-1,-1
"{'cat': 'RB', 'resp': 'button'}",17,358,Left,36.71794038925385,60.80574012446717,1.8358970194626922,0.955134332355581,Left,Correct,0.0,0.0,-45,45,510,-1,-1
"{'cat': 'RB', 'resp': 'button'}",17,359,Left,35.215414430594535,84.58770754742542,1.7607707215297268,1.328700603074968,Left,Correct,0.0,0.0,-45,45,526,-1,-1
"{'cat': 'RB', 'resp': 'button'}",17,360,Right,55.70477537137313,25.18772114836118,2.7852387685686564,0.3956477986017988,Right,Correct,0.0,0.0,-45,45,570,-1,-1
"{'cat': 'RB', 'resp': 'button'}",17,361,Right,65.88816440467362,36.284013258792044,3.294408220233681,0.5699479474828787,Right,Correct,0.0,0.0,-45,45,715,-1,-1
"{'cat': 'RB', 'resp': 'button'}",17,362,Left,43.31423605661658,45.55772199623957,2.165711802830829,0.7156190236883618,Right,Incorrect,0.0,0.0,-45,45,659,-1,-1
"{'cat': 'RB', 'resp': 'button'}",17,363,Right,63.14883265390562,50.02799991670382,3.157441632695281,0.7858379850605376,Right,Correct,0.0,0.0,-45,45,478,-1,-1
"{'cat': 'RB', 'resp': 'button'}",17,364,Left,46.89602108892396,62.15595751654009,2.344801054446198,0.9763434975540082,Left,Correct,0.0,0.0,-45,45,475,-1,-1
"{'cat': 'RB', 'resp': 'button'}",17,365,Left,45.90336765790439,61.985373520976495,2.2951683828952194,0.9736639704175952,Left,Correct,0.0,0.0,-45,45,616,-1,-1
"{'cat': 'RB', 'resp': 'button'}",17,366,Right,64.6259925591586,79.59943035772218,3.23129962795793,1.2503449282087618,Right,Correct,0.0,0.0,-45,45,447,-1,-1
"{'cat': 'RB', 'resp': 'button'}",17,367,Right,60.44461463749622,83.26366103175724,3.0222307318748114,1.3079025290417963,Right,Correct,0.0,0.0,-45,45,552,-1,-1
"{'cat': 'RB', 'resp': 'button'}",17,368,Left,40.630283613988375,28.188257761160234,2.031514180699419,0.4427801174997823,Left,Correct,0.0,0.0,-45,45,466,-1,-1
"{'cat': 'RB', 'resp': 'button'}",17,369,Left,44.49149565386481,16.11767002242987,2.2245747826932405,0.25317576867725056,Left,Correct,0.0,0.0,-45,45,529,-1,-1
"{'cat': 'RB', 'resp': 'button'}",17,370,Left,41.34770311592411,84.13870255791272,2.0673851557962055,1.3216476491925768,Left,Correct,0.0,0.0,-45,45,538,-1,-1
"{'cat': 'RB', 'resp': 'button'}",17,371,Right,58.59109275487,38.19893879731851,2.9295546377435,0.6000275275029098,Right,Correct,0.0,0.0,-45,45,534,-1,-1
"{'cat': 'RB', 'resp': 'button'}",17,372,Right,57.94495577874069,57.93419254470717,2.8972477889370345,0.9100281684505431,Right,Correct,0.0,0.0,-45,45,1104,-1,-1
"{'cat': 'RB', 'resp': 'button'}",17,373,Right,63.76349313398454,25.229056394963834,3.1881746566992266,0.3962970911371049,Right,Correct,0.0,0.0,-45,45,449,-1,-1
"{'cat': 'RB', 'resp': 'button'}",17,374,Right,57.76147736697334,10.511825280749015,2.888073868348667,0.16511936538910285,Right,Correct,0.0,0.0,-45,45,645,-1,-1
"{'cat': 'RB', 'resp': 'button'}",17,375,Left,47.23820213378089,38.08954548425245,2.361910106689044,0.598309181359509,Left,Correct,0.0,0.0,-45,45,567,-1,-1
"{'cat': 'RB', 'resp': 'button'}",17,376,Left,31.879267926993066,46.12705773899465,1.5939633963496533,0.7245621286226891,Left,Correct,0.0,0.0,-45,45,508,-1,-1
"{'cat': 'RB', 'resp': 'button'}",17,377,Right,52.782540786880176,34.32044248116804,2.639127039344009,0.5391042498339428,Right,Correct,0.0,0.0,-45,45,610,-1,-1
"{'cat': 'RB', 'resp': 'button'}",17,378,Right,51.627421520146584,51.151770163348935,2.581371076007329,0.803490126816453,Right,Correct,0.0,0.0,-45,45,711,-1,-1
"{'cat': 'RB', 'resp': 'button'}",17,379,Right,53.631788687172104,50.445658806241056,2.6815894343586053,0.7923985555559209,Right,Correct,0.0,0.0,-45,45,538,-1,-1
"{'cat': 'RB', 'resp': 'button'}",17,380,Right,62.23220131251086,67.21735318135647,3.111610065625543,1.0558477147415,Right,Correct,0.0,0.0,-45,45,626,-1,-1
"{'cat': 'RB', 'resp': 'button'}",17,381,Right,54.00438191854462,31.143985115215656,2.7002190959272308,0.48920857420735686,Right,Correct,0.0,0.0,-45,45,495,-1,-1
"{'cat': 'RB', 'resp': 'button'}",17,382,Right,56.081543625372824,71.68233728505973,2.804077181268641,1.1259835210344467,Right,Correct,0.0,0.0,-45,45,561,-1,-1
"{'cat': 'RB', 'resp': 'button'}",17,383,Left,37.99238226868752,56.2323180024639,1.899619113434376,0.8832951856543283,Left,Correct,0.0,0.0,-45,45,798,-1,-1
"{'cat': 'RB', 'resp': 'button'}",17,384,Right,51.45308735742555,32.603367746615035,2.572654367871278,0.512132502975261,Right,Correct,0.0,0.0,-45,45,555,-1,-1
"{'cat': 'RB', 'resp': 'button'}",17,385,Right,65.74488098718327,34.81477028308179,3.2872440493591633,0.5468691327887301,Right,Correct,0.0,0.0,-45,45,491,-1,-1
"{'cat': 'RB', 'resp': 'button'}",17,386,Left,41.12811917683906,69.01748064843372,2.0564059588419528,1.0841240508719754,Left,Correct,0.0,0.0,-45,45,494,-1,-1
"{'cat': 'RB', 'resp': 'button'}",17,387,Left,38.078680798162566,75.18793784120993,1.9039340399081284,1.1810493658025554,Left,Correct,0.0,0.0,-45,45,522,-1,-1
"{'cat': 'RB', 'resp': 'button'}",17,388,Right,69.22281301306757,50.12447851530151,3.4611406506533786,0.7873534673434532,Right,Correct,0.0,0.0,-45,45,548,-1,-1
"{'cat': 'RB', 'resp': 'button'}",17,389,Right,55.4014022107025,73.37382772414908,2.7700701105351246,1.1525533907197492,Right,Correct,0.0,0.0,-45,45,560,-1,-1
"{'cat': 'RB', 'resp': 'button'}",17,390,Left,34.9183628981222,32.539084132110176,1.74591814490611,0.5111227383198877,Left,Correct,0.0,0.0,-45,45,489,-1,-1
"{'cat': 'RB', 'resp': 'button'}",17,391,Left,43.22053760104675,41.382036858251176,2.1610268800523373,0.6500275149223197,Right,Incorrect,0.0,0.0,-45,45,830,-1,-1
"{'cat': 'RB', 'resp': 'button'}",17,392,Left,35.91864319832213,61.923257881883316,1.7959321599161064,0.9726882602403543,Left,Correct,0.0,0.0,-45,45,506,-1,-1
"{'cat': 'RB', 'resp': 'button'}",17,393,Left,38.077855490005675,65.32433466862075,1.9038927745002838,1.0261122494778998,Left,Correct,0.0,0.0,-45,45,508,-1,-1
"{'cat': 'RB', 'resp': 'button'}",17,394,Right,58.22816252119481,41.546623212832976,2.9114081260597406,0.6526128313344962,Right,Correct,0.0,0.0,-45,45,569,-1,-1
"{'cat': 'RB', 'resp': 'button'}",17,395,Left,39.907105011547515,83.53097724168089,1.9953552505773757,1.3121015222482044,Left,Correct,0.0,0.0,-45,45,413,-1,-1
"{'cat': 'RB', 'resp': 'button'}",17,396,Right,63.532941359429465,30.82782759694812,3.1766470679714733,0.48424238352352444,Right,Correct,0.0,0.0,-45,45,570,-1,-1
"{'cat': 'RB', 'resp': 'button'}",17,397,Right,58.66553220360247,25.333423984206068,2.9332766101801235,0.39793649339528625,Right,Correct,0.0,0.0,-45,45,552,-1,-1
"{'cat': 'RB', 'resp': 'button'}",17,398,Right,57.21698454983547,61.261168006734486,2.860849227491774,0.9622881768014356,Right,Correct,0.0,0.0,-45,45,630,-1,-1
"{'cat': 'RB', 'resp': 'button'}",17,399,Right,63.62424492490263,12.858377399395266,3.1812122462451318,0.201978919875126,Right,Correct,0.0,0.0,-45,45,525,-1,-1
