condition,subject,trial,cat,x,y,xt,yt,resp,fb,rotation,su,target_angle_left,target_angle_right,rt,mt,ep
"{'cat': 'RB', 'resp': 'reach'}",18,0,Left,35.97855950575809,60.133089183206614,1.7989279752879046,0.9445683560781087,Left,Correct,0.0,0.0,-45,45,2013,1481,-2.79
"{'cat': 'RB', 'resp': 'reach'}",18,1,Left,42.228601794576655,76.74593494203043,2.1114300897288327,1.2055223270338151,Left,Correct,0.0,0.0,-45,45,2002,3278,-2.77
"{'cat': 'RB', 'resp': 'reach'}",18,2,Left,45.85877396510479,49.765945401613074,2.2929386982552393,0.7817216423632919,Left,Correct,0.0,0.0,-45,45,2004,2289,-2.84
"{'cat': 'RB', 'resp': 'reach'}",18,3,Left,48.80912135627575,47.49806213947093,2.4404560678137877,0.7460978153855667,Right,Incorrect,0.0,0.0,-45,45,2007,1526,-0.73
"{'cat': 'RB', 'resp': 'reach'}",18,4,Left,40.801858735591395,83.54172323842812,2.04009293677957,1.3122703199703873,Left,Correct,0.0,0.0,-45,45,2009,2058,-2.78
"{'cat': 'RB', 'resp': 'reach'}",18,5,Right,67.66388878355423,63.49104101847978,3.3831944391777116,0.9973149401621215,Right,Correct,0.0,0.0,-45,45,2001,5810,-0.56
"{'cat': 'RB', 'resp': 'reach'}",18,6,Right,60.18799496921911,12.078107813457947,3.0093997484609556,0.18972247388012486,Left,Incorrect,0.0,0.0,-45,45,2006,2363,-2.85
"{'cat': 'RB', 'resp': 'reach'}",18,7,Right,62.039074740847624,57.416274882971535,3.1019537370423813,0.9018927368441778,Right,Correct,0.0,0.0,-45,45,2002,3393,-0.56
"{'cat': 'RB', 'resp': 'reach'}",18,8,Left,43.44164640431962,63.90454243877222,2.172082320215981,1.0038102052833198,Left,Correct,0.0,0.0,-45,45,2002,3333,-2.69
"{'cat': 'RB', 'resp': 'reach'}",18,9,Right,62.50360731936938,44.09682992059535,3.125180365968469,0.6926713846257045,Left,Incorrect,0.0,0.0,-45,45,2004,5212,-2.79
"{'cat': 'RB', 'resp': 'reach'}",18,10,Left,31.8092647875605,30.40000311792419,1.590463239378025,0.4775221323218872,Left,Correct,0.0,0.0,-45,45,2001,5008,-2.77
"{'cat': 'RB', 'resp': 'reach'}",18,11,Right,58.205975253476275,89.61917122222785,2.910298762673814,1.407734649662784,Left,Incorrect,0.0,0.0,-45,45,2006,3753,-2.76
"{'cat': 'RB', 'resp': 'reach'}",18,12,Left,44.87808723748113,56.84237939573385,2.2439043618740566,0.8928780076110064,Left,Correct,0.0,0.0,-45,45,2001,1998,-2.78
"{'cat': 'RB', 'resp': 'reach'}",18,13,Right,58.41716249235004,80.46606715909488,2.920858124617502,1.2639580272513768,Right,Correct,0.0,0.0,-45,45,2008,2745,-0.65
"{'cat': 'RB', 'resp': 'reach'}",18,14,Left,30.66618660399056,48.786236624806584,1.533309330199528,0.7663324128839284,Left,Correct,0.0,0.0,-45,45,2004,3027,-2.77
"{'cat': 'RB', 'resp': 'reach'}",18,15,Right,67.7200589758045,57.7297211674199,3.386002948790225,0.9068163395667675,Right,Correct,0.0,0.0,-45,45,2007,2003,-0.63
"{'cat': 'RB', 'resp': 'reach'}",18,16,Left,32.47557055146186,39.078111831564414,1.623778527573093,0.6138375452310157,Right,Incorrect,0.0,0.0,-45,45,2007,2478,-0.63
"{'cat': 'RB', 'resp': 'reach'}",18,17,Right,52.926437072251,72.05329823172973,2.64632185361255,1.1318105619585828,Right,Correct,0.0,0.0,-45,45,2001,2679,-0.61
"{'cat': 'RB', 'resp': 'reach'}",18,18,Left,48.16742630065719,34.009852971998924,2.4083713150328596,0.534225521232504,Right,Incorrect,0.0,0.0,-45,45,2003,1833,-0.67
"{'cat': 'RB', 'resp': 'reach'}",18,19,Right,56.79644314529474,57.48961909966733,2.8398221572647366,0.9030448251059517,Right,Correct,0.0,0.0,-45,45,2003,2711,-0.68
"{'cat': 'RB', 'resp': 'reach'}",18,20,Right,56.00233794025718,40.73472322722148,2.8001168970128587,0.6398595361832625,Right,Correct,0.0,0.0,-45,45,2012,6327,-0.67
"{'cat': 'RB', 'resp': 'reach'}",18,21,Left,36.03843001691562,79.69413495615854,1.801921500845781,1.251832544562306,Right,Incorrect,0.0,0.0,-45,45,2009,4525,-0.67
"{'cat': 'RB', 'resp': 'reach'}",18,22,Right,66.69904585187122,38.871764359276526,3.3349522925935613,0.6105962467158833,Right,Correct,0.0,0.0,-45,45,2007,1458,-0.69
"{'cat': 'RB', 'resp': 'reach'}",18,23,Left,35.830812468888006,55.79031646377226,1.7915406234444005,0.876352241720183,Left,Correct,0.0,0.0,-45,45,2005,1885,-2.8
"{'cat': 'RB', 'resp': 'reach'}",18,24,Left,41.564309297884016,51.70191661435415,2.078215464894201,0.8121318070608352,Left,Correct,0.0,0.0,-45,45,2003,2009,-2.74
"{'cat': 'RB', 'resp': 'reach'}",18,25,Right,56.13761017467831,41.88440520338665,2.8068805087339155,0.657918698434688,Right,Correct,0.0,0.0,-45,45,2012,1606,-0.64
"{'cat': 'RB', 'resp': 'reach'}",18,26,Left,42.90210951235113,32.15567351869818,2.1451054756175565,0.5051001384878704,Left,Correct,0.0,0.0,-45,45,2001,2812,-2.71
"{'cat': 'RB', 'resp': 'reach'}",18,27,Left,34.62945447035258,65.77989567724993,1.731472723517629,1.0332681850677568,Left,Correct,0.0,0.0,-45,45,2003,2301,-2.68
"{'cat': 'RB', 'resp': 'reach'}",18,28,Left,46.279413308894156,57.50456343448735,2.313970665444708,0.9032795701683685,Left,Correct,0.0,0.0,-45,45,2005,1650,-2.72
"{'cat': 'RB', 'resp': 'reach'}",18,29,Right,55.91052230990185,53.881243483787465,2.795526115495093,0.8463645934747479,Right,Correct,0.0,0.0,-45,45,2004,2910,-0.64
"{'cat': 'RB', 'resp': 'reach'}",18,30,Left,48.649075359823215,63.70165204295321,2.4324537679911606,1.000623210398375,Left,Correct,0.0,0.0,-45,45,2008,3033,-2.7
"{'cat': 'RB', 'resp': 'reach'}",18,31,Right,62.06261608806856,57.03928285152648,3.103130804403428,0.8959709598619293,Right,Correct,0.0,0.0,-45,45,2008,1619,-0.61
"{'cat': 'RB', 'resp': 'reach'}",18,32,Left,34.22003776805379,40.48479675694771,1.7110018884026896,0.635933700368514,Left,Correct,0.0,0.0,-45,45,2001,1637,-2.89
"{'cat': 'RB', 'resp': 'reach'}",18,33,Left,45.10764615370534,53.656889549628275,2.255382307685267,0.8428404501179558,Left,Correct,0.0,0.0,-45,45,2006,2560,-2.79
"{'cat': 'RB', 'resp': 'reach'}",18,34,Left,34.775701163459374,83.7174914113751,1.7387850581729685,1.3150312799747133,Left,Correct,0.0,0.0,-45,45,2007,1733,-2.71
"{'cat': 'RB', 'resp': 'reach'}",18,35,Right,58.95142483644016,67.40282377466961,2.947571241822008,1.0587610800085474,Right,Correct,0.0,0.0,-45,45,2008,1807,-0.59
"{'cat': 'RB', 'resp': 'reach'}",18,36,Left,34.41622771705097,49.47934086664971,1.7208113858525484,0.7772196688556596,Left,Correct,0.0,0.0,-45,45,2004,4852,-2.71
"{'cat': 'RB', 'resp': 'reach'}",18,37,Left,49.093238624492436,44.44083096999893,2.454661931224622,0.698074940473872,Right,Incorrect,0.0,0.0,-45,45,2012,2746,-0.59
"{'cat': 'RB', 'resp': 'reach'}",18,38,Left,46.1966183812877,34.35537025367403,2.309830919064385,0.5396528940014982,Left,Correct,0.0,0.0,-45,45,2003,4906,-2.67
"{'cat': 'RB', 'resp': 'reach'}",18,39,Right,59.99387208005876,40.18708553430559,2.999693604002938,0.6312572634187953,Left,Incorrect,0.0,0.0,-45,45,2006,2673,-2.77
"{'cat': 'RB', 'resp': 'reach'}",18,40,Left,37.503351705233335,22.709268969421657,1.875167585261667,0.35671636281364866,Right,Incorrect,0.0,0.0,-45,45,2012,12815,-0.6
"{'cat': 'RB', 'resp': 'reach'}",18,41,Right,60.50393321288722,73.14873380310384,3.0251966606443608,1.149017623676132,Right,Correct,0.0,0.0,-45,45,2003,1760,-0.64
"{'cat': 'RB', 'resp': 'reach'}",18,42,Left,44.94197266144661,75.37147888172126,2.247098633072331,1.1839324217250689,Left,Correct,0.0,0.0,-45,45,2003,2030,-2.68
"{'cat': 'RB', 'resp': 'reach'}",18,43,Right,63.59648766846525,26.865285264353705,3.1798243834232625,0.4219989141154386,Right,Correct,0.0,0.0,-45,45,2002,3229,-0.67
"{'cat': 'RB', 'resp': 'reach'}",18,44,Left,45.81755435921387,24.0956917299614,2.2908777179606936,0.3784942406100553,Left,Correct,0.0,0.0,-45,45,2005,10013,-2.71
"{'cat': 'RB', 'resp': 'reach'}",18,45,Right,65.29616312941033,26.36557729967227,3.2648081564705165,0.4141495197615211,Right,Correct,0.0,0.0,-45,45,2005,1854,-0.61
"{'cat': 'RB', 'resp': 'reach'}",18,46,Left,38.284014561488426,76.07137101992674,1.9142007280744213,1.1949263017235265,Right,Incorrect,0.0,0.0,-45,45,2007,2740,-0.66
"{'cat': 'RB', 'resp': 'reach'}",18,47,Right,63.52318054241043,43.9437167095767,3.1761590271205216,0.6902662879311858,Right,Correct,0.0,0.0,-45,45,2007,3293,-0.66
"{'cat': 'RB', 'resp': 'reach'}",18,48,Right,66.88339477450693,76.0647289032012,3.3441697387253466,1.1948219675979805,Right,Correct,0.0,0.0,-45,45,2009,2518,-0.71
"{'cat': 'RB', 'resp': 'reach'}",18,49,Left,32.54954731214708,64.97812744299453,1.6274773656073538,1.0206740390946647,Left,Correct,0.0,0.0,-45,45,2008,2164,-2.66
"{'cat': 'RB', 'resp': 'reach'}",18,50,Left,42.96294830796112,80.53471199550671,2.1481474153980558,1.2650362978202685,Left,Correct,0.0,0.0,-45,45,2002,2465,-2.66
"{'cat': 'RB', 'resp': 'reach'}",18,51,Left,46.243168249572165,28.930605143159084,2.3121584124786083,0.4544408829082783,Left,Correct,0.0,0.0,-45,45,2001,2852,-2.71
"{'cat': 'RB', 'resp': 'reach'}",18,52,Right,59.76232768795654,11.690720262827327,2.988116384397827,0.18363740446435833,Right,Correct,0.0,0.0,-45,45,2006,3442,-0.68
"{'cat': 'RB', 'resp': 'reach'}",18,53,Left,42.765516147367826,76.60074150332422,2.1382758073683914,1.2032416338318705,Left,Correct,0.0,0.0,-45,45,2005,1922,-2.62
"{'cat': 'RB', 'resp': 'reach'}",18,54,Right,59.6932515272932,64.97086230575593,2.98466257636466,1.020559918585784,Right,Correct,0.0,0.0,-45,45,2001,1673,-0.71
"{'cat': 'RB', 'resp': 'reach'}",18,55,Right,63.567554467462685,49.24172861508271,3.178377723373134,0.7734872643360307,Right,Correct,0.0,0.0,-45,45,2012,1949,-0.72
"{'cat': 'RB', 'resp': 'reach'}",18,56,Right,53.1619503505083,73.58422955306497,2.658097517525415,1.1558583749198694,Left,Incorrect,0.0,0.0,-45,45,2004,1995,-2.59
"{'cat': 'RB', 'resp': 'reach'}",18,57,Right,59.93290297607722,9.2210570052857,2.996645148803861,0.1448440247306913,Right,Correct,0.0,0.0,-45,45,2008,1725,-0.82
"{'cat': 'RB', 'resp': 'reach'}",18,58,Right,59.405360507869446,84.17001789768187,2.970268025393472,1.322139549399394,Right,Correct,0.0,0.0,-45,45,2004,5037,-0.84
"{'cat': 'RB', 'resp': 'reach'}",18,59,Right,65.66218947548987,57.38631460594745,3.2831094737744935,0.9014221219131856,Right,Correct,0.0,0.0,-45,45,2006,1899,-0.79
"{'cat': 'RB', 'resp': 'reach'}",18,60,Right,61.419683947120255,63.84204670775878,3.070984197356013,1.002828524636157,Right,Correct,0.0,0.0,-45,45,2007,1661,-0.79
"{'cat': 'RB', 'resp': 'reach'}",18,61,Right,68.64039940771141,61.96570220816306,3.4320199703855705,0.9733549741584895,Right,Correct,0.0,0.0,-45,45,2006,1753,-0.81
"{'cat': 'RB', 'resp': 'reach'}",18,62,Right,58.41489557053088,28.93561034622385,2.920744778526544,0.4545195044541682,Right,Correct,0.0,0.0,-45,45,2002,1053,-0.74
"{'cat': 'RB', 'resp': 'reach'}",18,63,Right,66.4577618706344,68.32780206204767,3.32288809353172,1.0732906049703324,Right,Correct,0.0,0.0,-45,45,2006,1173,-0.78
"{'cat': 'RB', 'resp': 'reach'}",18,64,Right,54.07773360366539,59.200273414432665,2.7038866801832695,0.929915720246444,Right,Correct,0.0,0.0,-45,45,2008,1078,-0.88
"{'cat': 'RB', 'resp': 'reach'}",18,65,Right,59.33916182876722,12.696233475889876,2.966958091438361,0.1994319690805822,Right,Correct,0.0,0.0,-45,45,2002,782,-0.9
"{'cat': 'RB', 'resp': 'reach'}",18,66,Left,42.9999452160885,16.500068618820542,2.1499972608044247,0.25918247178307047,Left,Correct,0.0,0.0,-45,45,2006,1290,-2.72
"{'cat': 'RB', 'resp': 'reach'}",18,67,Right,66.41803791049153,50.10739075839226,3.320901895524577,0.7870850534855911,Right,Correct,0.0,0.0,-45,45,2001,1125,-0.87
"{'cat': 'RB', 'resp': 'reach'}",18,68,Right,54.08836154798223,36.08385423729982,2.7044180773991116,0.5668038569255303,Right,Correct,0.0,0.0,-45,45,2009,3820,-0.83
"{'cat': 'RB', 'resp': 'reach'}",18,69,Left,36.648980881545796,84.79625417308813,1.83244904407729,1.3319764458105325,Left,Correct,0.0,0.0,-45,45,2006,1468,-2.56
"{'cat': 'RB', 'resp': 'reach'}",18,70,Left,35.947797625616296,81.22490900811532,1.7973898812808147,1.2758778871419723,Left,Correct,0.0,0.0,-45,45,2008,1274,-2.68
"{'cat': 'RB', 'resp': 'reach'}",18,71,Left,35.72171004314921,84.49887851088573,1.7860855021574604,1.3273052798318752,Left,Correct,0.0,0.0,-45,45,2010,1346,-2.7
"{'cat': 'RB', 'resp': 'reach'}",18,72,Right,67.23445300146578,57.79414493452001,3.3617226500732893,0.9078283057339591,Right,Correct,0.0,0.0,-45,45,2007,1102,-0.61
"{'cat': 'RB', 'resp': 'reach'}",18,73,Left,42.54298344065195,54.03821899693032,2.1271491720325972,0.8488303590691635,Left,Correct,0.0,0.0,-45,45,2010,3687,-2.8
"{'cat': 'RB', 'resp': 'reach'}",18,74,Right,60.6520335755749,31.68612588897654,3.032601678778745,0.49772450156765025,Right,Correct,0.0,0.0,-45,45,2010,833,-0.73
"{'cat': 'RB', 'resp': 'reach'}",18,75,Left,35.613845088688166,30.08077325292064,1.7806922544344082,0.47250768132837906,Left,Correct,0.0,0.0,-45,45,2005,1161,-2.71
"{'cat': 'RB', 'resp': 'reach'}",18,76,Left,42.202979882024344,55.50618838000663,2.1101489941012175,0.8718891682169998,Left,Correct,0.0,0.0,-45,45,2003,1062,-2.62
"{'cat': 'RB', 'resp': 'reach'}",18,77,Right,54.87965737156987,30.420842969241765,2.7439828685784935,0.4778494839408932,Right,Correct,0.0,0.0,-45,45,2006,917,-0.76
"{'cat': 'RB', 'resp': 'reach'}",18,78,Left,45.63328874509777,74.17537091845074,2.281664437254889,1.165144001773514,Left,Correct,0.0,0.0,-45,45,2007,1254,-2.64
"{'cat': 'RB', 'resp': 'reach'}",18,79,Right,64.95546205638077,46.03577721033441,3.2477731028190386,0.7231282974314148,Right,Correct,0.0,0.0,-45,45,2001,892,-0.79
"{'cat': 'RB', 'resp': 'reach'}",18,80,Right,55.353166539222464,83.40735775691098,2.7676583269611235,1.310159711922236,Right,Correct,0.0,0.0,-45,45,2002,2182,-0.8
"{'cat': 'RB', 'resp': 'reach'}",18,81,Right,66.21778946697601,49.97929571969068,3.3108894733488006,0.7850729413228602,Right,Correct,0.0,0.0,-45,45,2005,895,-0.76
"{'cat': 'RB', 'resp': 'reach'}",18,82,Left,46.309260448923936,67.34175723025123,2.3154630224461967,1.0578018489719232,Left,Correct,0.0,0.0,-45,45,2003,1358,-2.49
"{'cat': 'RB', 'resp': 'reach'}",18,83,Right,51.14046551661313,56.738891213552265,2.5570232758306566,0.8912524190466312,Right,Correct,0.0,0.0,-45,45,2002,1155,-0.83
"{'cat': 'RB', 'resp': 'reach'}",18,84,Left,38.93086355166857,72.00167087136097,1.9465431775834288,1.1309996012782892,Left,Correct,0.0,0.0,-45,45,2007,1298,-2.66
"{'cat': 'RB', 'resp': 'reach'}",18,85,Right,58.520296795240725,51.21876914331363,2.9260148397620362,0.8045425443327284,Right,Correct,0.0,0.0,-45,45,2005,3721,-0.72
"{'cat': 'RB', 'resp': 'reach'}",18,86,Right,52.71473761385267,38.73547885355043,2.6357368806926336,0.608455478997984,Right,Correct,0.0,0.0,-45,45,2004,1091,-0.74
"{'cat': 'RB', 'resp': 'reach'}",18,87,Left,40.758899351606516,81.0222998818398,2.0379449675803256,1.2726953104286853,Left,Correct,0.0,0.0,-45,45,2012,1088,-2.61
"{'cat': 'RB', 'resp': 'reach'}",18,88,Right,58.28174968242899,69.31248691205937,2.914087484121449,1.088757998424822,Right,Correct,0.0,0.0,-45,45,2010,1140,-0.77
"{'cat': 'RB', 'resp': 'reach'}",18,89,Right,56.277896284550955,53.829452678690075,2.813894814227548,0.8455510654106608,Right,Correct,0.0,0.0,-45,45,2003,1488,-0.83
"{'cat': 'RB', 'resp': 'reach'}",18,90,Right,56.491301738165255,62.08592662186233,2.824565086908263,0.9752434548327884,Right,Correct,0.0,0.0,-45,45,2015,3107,-0.78
"{'cat': 'RB', 'resp': 'reach'}",18,91,Right,58.94400219977365,19.724820883444995,2.9472001099886826,0.30983676190402665,Right,Correct,0.0,0.0,-45,45,2009,840,-0.73
"{'cat': 'RB', 'resp': 'reach'}",18,92,Right,67.48524482095002,31.167826607298696,3.374262241047501,0.4895830754892503,Right,Correct,0.0,0.0,-45,45,2005,1001,-0.73
"{'cat': 'RB', 'resp': 'reach'}",18,93,Left,31.982050029717403,43.977650192485626,1.5991025014858702,0.690799313834273,Left,Correct,0.0,0.0,-45,45,2004,877,-2.66
"{'cat': 'RB', 'resp': 'reach'}",18,94,Left,34.48758494933506,31.9085708127558,1.724379247466753,0.5012186582595166,Left,Correct,0.0,0.0,-45,45,2002,969,-2.6
"{'cat': 'RB', 'resp': 'reach'}",18,95,Right,54.51422427145201,63.64048005345364,2.7257112135726005,0.9996623230342888,Right,Correct,0.0,0.0,-45,45,2008,1224,-0.74
"{'cat': 'RB', 'resp': 'reach'}",18,96,Right,66.73600946469634,21.51307831929436,3.336800473234817,0.33792664401998507,Right,Correct,0.0,0.0,-45,45,2007,1031,-0.77
"{'cat': 'RB', 'resp': 'reach'}",18,97,Left,40.99083451888246,61.490235265676134,2.0495417259441226,0.965886356890781,Left,Correct,0.0,0.0,-45,45,2004,1855,-2.55
"{'cat': 'RB', 'resp': 'reach'}",18,98,Left,41.168772158645496,90.28820390164097,2.0584386079322745,1.4182437904160627,Left,Correct,0.0,0.0,-45,45,2001,1150,-2.48
"{'cat': 'RB', 'resp': 'reach'}",18,99,Right,60.88491695979898,34.87941094657039,3.044245847989949,0.5478845059564247,Right,Correct,0.0,0.0,-45,45,2007,965,-0.79
"{'cat': 'RB', 'resp': 'reach'}",18,100,Right,63.48386048406684,76.98446944526131,3.174193024203342,1.2092692182487041,Right,Correct,0.0,0.0,-45,45,2004,1197,-0.7
"{'cat': 'RB', 'resp': 'reach'}",18,101,Left,35.49413632686393,83.65458038972928,1.7747068163431965,1.3140430759575514,Left,Correct,0.0,0.0,-45,45,2008,1028,-2.52
"{'cat': 'RB', 'resp': 'reach'}",18,102,Left,42.32985353855576,73.58345076880006,2.116492676927788,1.1558461418052424,Right,Incorrect,0.0,0.0,-45,45,2003,1358,-0.82
"{'cat': 'RB', 'resp': 'reach'}",18,103,Left,37.92268549006147,67.98954025441564,1.8961342745030734,1.0679772009210984,Left,Correct,0.0,0.0,-45,45,2003,1154,-2.54
"{'cat': 'RB', 'resp': 'reach'}",18,104,Left,39.672100860709875,13.764133416287557,1.9836050430354937,0.2162065021181938,Left,Correct,0.0,0.0,-45,45,2001,3401,-2.55
"{'cat': 'RB', 'resp': 'reach'}",18,105,Right,58.322412648934545,64.66518975541733,2.9161206324467277,1.0157584253930452,Right,Correct,0.0,0.0,-45,45,2004,964,-0.78
"{'cat': 'RB', 'resp': 'reach'}",18,106,Right,52.54833790295607,27.503178226928295,2.6274168951478036,0.4320189133404434,Left,Incorrect,0.0,0.0,-45,45,2005,1834,-2.51
"{'cat': 'RB', 'resp': 'reach'}",18,107,Left,47.374345461018855,34.87076183416447,2.368717273050943,0.5477486460164521,Right,Incorrect,0.0,0.0,-45,45,2001,2001,-0.8
"{'cat': 'RB', 'resp': 'reach'}",18,108,Right,54.4916295295872,79.17767935119461,2.72458147647936,1.243720078890006,Right,Correct,0.0,0.0,-45,45,2012,1861,-0.67
"{'cat': 'RB', 'resp': 'reach'}",18,109,Right,56.17882420421213,80.25896914166353,2.8089412102106066,1.2607049392007001,Right,Correct,0.0,0.0,-45,45,2007,1032,-0.73
"{'cat': 'RB', 'resp': 'reach'}",18,110,Left,37.15501683610553,54.6720182099925,1.8577508418052764,0.8587860538271992,Left,Correct,0.0,0.0,-45,45,2003,1062,-2.56
"{'cat': 'RB', 'resp': 'reach'}",18,111,Right,51.77455901468737,35.887230888510004,2.5887279507343686,0.5637153045851188,Right,Correct,0.0,0.0,-45,45,2007,1138,-0.72
"{'cat': 'RB', 'resp': 'reach'}",18,112,Right,64.97098205578247,27.039116674562425,3.2485491027891236,0.42472945152181296,Left,Incorrect,0.0,0.0,-45,45,2012,1486,-2.43
"{'cat': 'RB', 'resp': 'reach'}",18,113,Right,53.32554890057784,69.78149614634602,2.666277445028892,1.0961251782493255,Left,Incorrect,0.0,0.0,-45,45,2007,1564,-2.51
"{'cat': 'RB', 'resp': 'reach'}",18,114,Left,32.362489731738464,59.27000271141692,1.618124486586923,0.9310110254821726,Left,Correct,0.0,0.0,-45,45,2012,2140,-2.61
"{'cat': 'RB', 'resp': 'reach'}",18,115,Left,40.22045832148836,62.10443391284529,2.011022916074418,0.9755341666797379,Left,Correct,0.0,0.0,-45,45,2005,1132,-2.57
"{'cat': 'RB', 'resp': 'reach'}",18,116,Left,44.802835905414206,45.018290745731996,2.2401417952707106,0.707145657419805,Left,Correct,0.0,0.0,-45,45,2006,2598,-2.51
"{'cat': 'RB', 'resp': 'reach'}",18,117,Left,38.82501954839985,13.701981044884832,1.9412509774199924,0.21523021495118397,Left,Correct,0.0,0.0,-45,45,2008,1408,-2.5
"{'cat': 'RB', 'resp': 'reach'}",18,118,Right,60.4018267327143,59.00345656076538,3.020091336635715,0.9268241283385249,Right,Correct,0.0,0.0,-45,45,2008,1298,-0.71
"{'cat': 'RB', 'resp': 'reach'}",18,119,Left,36.60695674097516,19.142077340570648,1.830347837048758,0.3006830477379219,Left,Correct,0.0,0.0,-45,45,2004,2439,-2.5
"{'cat': 'RB', 'resp': 'reach'}",18,120,Right,65.0520795446977,34.86363139175492,3.252603977234885,0.5476366412889988,Right,Correct,0.0,0.0,-45,45,2008,1251,-0.7
"{'cat': 'RB', 'resp': 'reach'}",18,121,Left,41.959269713696266,51.104620472004065,2.0979634856848133,0.8027495011967125,Left,Correct,0.0,0.0,-45,45,2006,1534,-2.58
"{'cat': 'RB', 'resp': 'reach'}",18,122,Right,65.49614294161724,62.23328744511219,3.2748071470808617,0.9775581932315319,Right,Correct,0.0,0.0,-45,45,2008,1094,-0.81
"{'cat': 'RB', 'resp': 'reach'}",18,123,Right,64.98919519285378,46.00771997562417,3.2494597596426895,0.7226875754191863,Right,Correct,0.0,0.0,-45,45,2013,2120,-0.78
"{'cat': 'RB', 'resp': 'reach'}",18,124,Left,32.37116911087626,71.28287800356372,1.6185584555438128,1.119708829313666,Left,Correct,0.0,0.0,-45,45,2007,1279,-2.33
"{'cat': 'RB', 'resp': 'reach'}",18,125,Left,47.36643419224756,61.75607959680783,2.368321709612378,0.9700622298791899,Left,Correct,0.0,0.0,-45,45,2007,1952,-2.42
"{'cat': 'RB', 'resp': 'reach'}",18,126,Left,39.89430546302418,18.20908340895619,1.994715273151209,0.2860276133309027,Left,Correct,0.0,0.0,-45,45,2005,1223,-2.41
"{'cat': 'RB', 'resp': 'reach'}",18,127,Right,52.62439598634319,31.54505838222816,2.6312197993171593,0.4955086183533456,Right,Correct,0.0,0.0,-45,45,2001,2283,-0.68
"{'cat': 'RB', 'resp': 'reach'}",18,128,Left,34.84301987080069,46.06519324399962,1.7421509935400343,0.7235903634077169,Left,Correct,0.0,0.0,-45,45,2002,2835,-2.54
"{'cat': 'RB', 'resp': 'reach'}",18,129,Right,61.697281985989804,55.67488708204942,3.08486409929949,0.8745390812320386,Right,Correct,0.0,0.0,-45,45,2009,2641,-0.73
"{'cat': 'RB', 'resp': 'reach'}",18,130,Left,45.43439110919783,17.731321368301117,2.2717195554598915,0.27852294474547257,Right,Incorrect,0.0,0.0,-45,45,2003,3426,-0.83
"{'cat': 'RB', 'resp': 'reach'}",18,131,Left,39.72737074745974,58.16234529145803,1.9863685373729867,0.9136119834159873,Left,Correct,0.0,0.0,-45,45,2002,1278,-2.55
"{'cat': 'RB', 'resp': 'reach'}",18,132,Right,59.28178314214157,83.44987726012255,2.9640891571070784,1.3108276067168547,Right,Correct,0.0,0.0,-45,45,2014,1384,-0.86
"{'cat': 'RB', 'resp': 'reach'}",18,133,Right,54.756595076595694,65.99990428050434,2.7378297538297844,1.0367240721263098,Right,Correct,0.0,0.0,-45,45,2012,3267,-0.93
"{'cat': 'RB', 'resp': 'reach'}",18,134,Right,62.278432723515984,20.252324690911827,3.113921636175799,0.31812277233541886,Right,Correct,0.0,0.0,-45,45,2007,1598,-0.9
"{'cat': 'RB', 'resp': 'reach'}",18,135,Right,53.897703978744055,33.163416439280304,2.6948851989372025,0.5209297272679099,Right,Correct,0.0,0.0,-45,45,2012,1268,-1.02
"{'cat': 'RB', 'resp': 'reach'}",18,136,Right,63.651986865708224,28.355327557610373,3.1825993432854114,0.4454044437256047,Right,Correct,0.0,0.0,-45,45,2006,987,-0.96
"{'cat': 'RB', 'resp': 'reach'}",18,137,Left,45.37673121152785,77.46683260152784,2.2688365605763923,1.2168461609891505,Left,Correct,0.0,0.0,-45,45,2006,941,-2.55
"{'cat': 'RB', 'resp': 'reach'}",18,138,Left,32.33293393605995,67.59921466576824,1.6166466968029978,1.0618459809120846,Left,Correct,0.0,0.0,-45,45,2006,1104,-2.58
"{'cat': 'RB', 'resp': 'reach'}",18,139,Right,58.21670263180752,18.95449448773583,2.910835131590376,0.29773650317589556,Right,Correct,0.0,0.0,-45,45,2007,1099,-0.96
"{'cat': 'RB', 'resp': 'reach'}",18,140,Right,51.98481161430802,28.22015017410382,2.599240580715401,0.4432810823508264,Right,Correct,0.0,0.0,-45,45,2004,2079,-0.94
"{'cat': 'RB', 'resp': 'reach'}",18,141,Right,65.93478070397123,44.81471785144268,3.2967390351985615,0.7039479418739585,Right,Correct,0.0,0.0,-45,45,2003,960,-0.98
"{'cat': 'RB', 'resp': 'reach'}",18,142,Right,67.44489961333983,31.241746589008056,3.3722449806669914,0.4907442078467084,Right,Correct,0.0,0.0,-45,45,2001,1194,-0.98
"{'cat': 'RB', 'resp': 'reach'}",18,143,Left,41.77669738271627,18.4109658869055,2.0888348691358134,0.2891987758789731,Left,Correct,0.0,0.0,-45,45,2007,1442,-2.49
"{'cat': 'RB', 'resp': 'reach'}",18,144,Right,59.07785503753787,21.531147701368024,2.9538927518768934,0.33821047720987274,Right,Correct,0.0,0.0,-45,45,2004,1014,-0.9
"{'cat': 'RB', 'resp': 'reach'}",18,145,Right,62.93101134544077,77.94435372682175,3.1465505672720386,1.224347045284937,Right,Correct,0.0,0.0,-45,45,2002,2763,-0.94
"{'cat': 'RB', 'resp': 'reach'}",18,146,Left,35.552228148357436,43.319771938415634,1.777611407417872,0.6804653863845592,Left,Correct,0.0,0.0,-45,45,2002,1072,-2.54
"{'cat': 'RB', 'resp': 'reach'}",18,147,Right,51.42890574354771,40.05134785675344,2.571445287177385,0.6291251009657295,Right,Correct,0.0,0.0,-45,45,2013,1145,-0.75
"{'cat': 'RB', 'resp': 'reach'}",18,148,Left,44.49798517826927,57.63290165790732,2.2248992589134633,0.905295502267723,Left,Correct,0.0,0.0,-45,45,2014,3223,-2.45
"{'cat': 'RB', 'resp': 'reach'}",18,149,Right,62.282216368424244,49.26033248990431,3.1141108184212123,0.7737794933183699,Right,Correct,0.0,0.0,-45,45,2006,1487,-0.75
"{'cat': 'RB', 'resp': 'reach'}",18,150,Left,38.804438265210344,17.973993654422863,1.9402219132605172,0.28233483210202215,Left,Correct,0.0,0.0,-45,45,2005,1325,-2.5
"{'cat': 'RB', 'resp': 'reach'}",18,151,Left,41.80043389634567,14.188665893111192,2.090021694817284,0.22287504267019093,Left,Correct,0.0,0.0,-45,45,2005,2544,-2.51
"{'cat': 'RB', 'resp': 'reach'}",18,152,Right,62.85031411820853,67.46560009190954,3.1425157059104265,1.0597471680938495,Right,Correct,0.0,0.0,-45,45,2003,1493,-0.87
"{'cat': 'RB', 'resp': 'reach'}",18,153,Right,55.953014624043675,14.453198051558132,2.797650731202184,0.22703030409826674,Right,Correct,0.0,0.0,-45,45,2006,2332,-0.7
"{'cat': 'RB', 'resp': 'reach'}",18,154,Left,40.0874263970425,64.33842280492843,2.0043713198521247,1.0106255821375858,Left,Correct,0.0,0.0,-45,45,2003,1297,-2.48
"{'cat': 'RB', 'resp': 'reach'}",18,155,Right,68.46293771563359,39.482393876378744,3.423146885781679,0.6201879927408505,Right,Correct,0.0,0.0,-45,45,2002,1393,-0.73
"{'cat': 'RB', 'resp': 'reach'}",18,156,Left,40.15275736034988,52.599168864822964,2.007637868017494,0.8262258124532841,Left,Correct,0.0,0.0,-45,45,2009,1234,-2.58
"{'cat': 'RB', 'resp': 'reach'}",18,157,Right,51.45048619013339,38.91191980564166,2.5725243095066697,0.611227006992395,Right,Correct,0.0,0.0,-45,45,2004,1040,-0.73
"{'cat': 'RB', 'resp': 'reach'}",18,158,Left,45.972205750854656,77.15709817821553,2.2986102875427328,1.2119808640449417,Left,Correct,0.0,0.0,-45,45,2001,1497,-2.48
"{'cat': 'RB', 'resp': 'reach'}",18,159,Right,60.34559285203958,63.24649671936152,3.017279642601979,0.9934736472941853,Right,Correct,0.0,0.0,-45,45,2004,2230,-0.77
"{'cat': 'RB', 'resp': 'reach'}",18,160,Right,67.62931374667855,47.22858340239351,3.3814656873339275,0.7418648532820615,Right,Correct,0.0,0.0,-45,45,2009,1210,-0.79
"{'cat': 'RB', 'resp': 'reach'}",18,161,Left,44.51063808984828,25.709745179433952,2.225531904492414,0.4038477329068765,Left,Correct,0.0,0.0,-45,45,2009,1340,-2.52
"{'cat': 'RB', 'resp': 'reach'}",18,162,Right,55.37432833736386,43.28788254775275,2.7687164168681933,0.6799644690073893,Right,Correct,0.0,0.0,-45,45,2001,1402,-0.7
"{'cat': 'RB', 'resp': 'reach'}",18,163,Right,62.691722929378,13.228673236285623,3.1345861464688998,0.20779551327927412,Right,Correct,0.0,0.0,-45,45,2004,1895,-0.68
"{'cat': 'RB', 'resp': 'reach'}",18,164,Right,59.90572029816169,42.750792195544946,2.9952860149080847,0.6715278734833393,Right,Correct,0.0,0.0,-45,45,2010,943,-0.74
"{'cat': 'RB', 'resp': 'reach'}",18,165,Right,65.65389676665588,43.228319813917544,3.2826948383327936,0.6790288597721673,Right,Correct,0.0,0.0,-45,45,2010,1045,-0.72
"{'cat': 'RB', 'resp': 'reach'}",18,166,Left,42.73332934301849,71.42197366375098,2.1366664671509246,1.1218937388346186,Left,Correct,0.0,0.0,-45,45,2008,1309,-2.49
"{'cat': 'RB', 'resp': 'reach'}",18,167,Right,64.99645334236774,74.28144472345691,3.2498226671183876,1.1668102052062426,Right,Correct,0.0,0.0,-45,45,2008,1548,-0.72
"{'cat': 'RB', 'resp': 'reach'}",18,168,Left,39.71689114759147,40.05949364357565,1.9858445573795733,0.6292530546859214,Left,Correct,0.0,0.0,-45,45,2003,5568,-2.46
"{'cat': 'RB', 'resp': 'reach'}",18,169,Left,47.74333212018983,69.52769809675829,2.387166606009491,1.0921385278089244,Left,Correct,0.0,0.0,-45,45,2012,2235,-2.48
"{'cat': 'RB', 'resp': 'reach'}",18,170,Left,39.070344341534586,69.00065892714568,1.9535172170767294,1.0838598158918793,Left,Correct,0.0,0.0,-45,45,2001,1547,-2.46
"{'cat': 'RB', 'resp': 'reach'}",18,171,Right,64.4015741287395,78.00595651460276,3.220078706436975,1.2253146996126045,Right,Correct,0.0,0.0,-45,45,2003,1339,-0.68
"{'cat': 'RB', 'resp': 'reach'}",18,172,Left,37.14647573345372,19.4422433787218,1.857323786672686,0.30539804483948596,Left,Correct,0.0,0.0,-45,45,2008,1077,-2.6
"{'cat': 'RB', 'resp': 'reach'}",18,173,Right,68.34337244844565,44.131727564975314,3.4171686224222824,0.6932195555417631,Right,Correct,0.0,0.0,-45,45,2002,1346,-0.68
"{'cat': 'RB', 'resp': 'reach'}",18,174,Left,35.22734076251031,41.37693877513376,1.7613670381255155,0.6499474344199743,Left,Correct,0.0,0.0,-45,45,2007,1150,-2.5
"{'cat': 'RB', 'resp': 'reach'}",18,175,Right,64.01318660626468,36.30197783571164,3.2006593303132345,0.570230134397256,Right,Correct,0.0,0.0,-45,45,2009,1566,-0.69
"{'cat': 'RB', 'resp': 'reach'}",18,176,Left,32.92060102970886,76.01542006033567,1.646030051485443,1.1940474261054637,Left,Correct,0.0,0.0,-45,45,2002,808,-2.55
"{'cat': 'RB', 'resp': 'reach'}",18,177,Right,63.57631001629705,71.93231206015622,3.178815500814853,1.1299101156195763,Right,Correct,0.0,0.0,-45,45,2002,858,-0.84
"{'cat': 'RB', 'resp': 'reach'}",18,178,Left,42.36995192784656,61.97514125434421,2.118497596392328,0.9735032423491875,Left,Correct,0.0,0.0,-45,45,2012,927,-2.56
"{'cat': 'RB', 'resp': 'reach'}",18,179,Right,69.00007695917387,59.377938252613994,3.450003847958693,0.9327064729986024,Right,Correct,0.0,0.0,-45,45,2006,852,-0.84
"{'cat': 'RB', 'resp': 'reach'}",18,180,Left,42.5389606355695,12.816385316384945,2.126948031778475,0.20131930977765522,Left,Correct,0.0,0.0,-45,45,2002,713,-2.64
"{'cat': 'RB', 'resp': 'reach'}",18,181,Right,66.88642701707738,56.23822975955328,3.344321350853869,0.8833880473175373,Right,Correct,0.0,0.0,-45,45,2001,812,-0.86
"{'cat': 'RB', 'resp': 'reach'}",18,182,Left,31.512961717380804,58.87023925423195,1.57564808586904,0.9247315557808429,Left,Correct,0.0,0.0,-45,45,2003,711,-2.57
"{'cat': 'RB', 'resp': 'reach'}",18,183,Left,43.900002729434604,68.8546246173174,2.19500013647173,1.0815659143172363,Left,Correct,0.0,0.0,-45,45,2006,800,-2.57
"{'cat': 'RB', 'resp': 'reach'}",18,184,Left,32.70054115648195,40.99084030917516,1.6350270578240975,0.6438826138988852,Left,Correct,0.0,0.0,-45,45,2007,743,-2.58
"{'cat': 'RB', 'resp': 'reach'}",18,185,Right,59.920314958262324,68.89968422644147,2.996015747913116,1.0822737090022254,Right,Correct,0.0,0.0,-45,45,2005,835,-0.86
"{'cat': 'RB', 'resp': 'reach'}",18,186,Right,60.88388974503652,55.79841296026672,3.0441944872518256,0.8764794211897171,Right,Correct,0.0,0.0,-45,45,2004,763,-0.79
"{'cat': 'RB', 'resp': 'reach'}",18,187,Left,31.827183623048164,46.931014393359206,1.5913591811524084,0.7371906502184706,Left,Correct,0.0,0.0,-45,45,2001,807,-2.48
"{'cat': 'RB', 'resp': 'reach'}",18,188,Left,30.68111796736922,42.59732777908715,1.5340558983684611,0.669117260066683,Left,Correct,0.0,0.0,-45,45,2007,834,-2.52
"{'cat': 'RB', 'resp': 'reach'}",18,189,Right,57.965050545097725,55.342443137738684,2.8982525272548862,0.8693170639661536,Right,Correct,0.0,0.0,-45,45,2010,912,-0.76
"{'cat': 'RB', 'resp': 'reach'}",18,190,Right,63.7042497439381,34.06718993316833,3.185212487196905,0.5351261681124488,Right,Correct,0.0,0.0,-45,45,2005,916,-0.71
"{'cat': 'RB', 'resp': 'reach'}",18,191,Left,32.2561955370178,30.370159364218754,1.61280977685089,0.4770533477349045,Left,Correct,0.0,0.0,-45,45,2009,855,-2.54
"{'cat': 'RB', 'resp': 'reach'}",18,192,Right,58.899373007840424,38.43381805260704,2.9449686503920214,0.6037170022173852,Right,Correct,0.0,0.0,-45,45,2009,829,-0.66
"{'cat': 'RB', 'resp': 'reach'}",18,193,Left,48.69234017649666,55.64216072500608,2.4346170088248327,0.874025016817708,Right,Incorrect,0.0,0.0,-45,45,2006,985,-0.69
"{'cat': 'RB', 'resp': 'reach'}",18,194,Right,67.70236696919041,43.729630872409636,3.38511834845952,0.6869034354647776,Right,Correct,0.0,0.0,-45,45,2006,988,-0.71
"{'cat': 'RB', 'resp': 'reach'}",18,195,Left,36.94554540282081,69.66066740398617,1.8472772701410407,1.0942272048026247,Left,Correct,0.0,0.0,-45,45,2002,1073,-2.46
"{'cat': 'RB', 'resp': 'reach'}",18,196,Right,54.49245424099095,47.27099083725238,2.7246227120495474,0.7425309877111125,Right,Correct,0.0,0.0,-45,45,2006,1207,-0.72
"{'cat': 'RB', 'resp': 'reach'}",18,197,Left,44.34639833353403,25.294078591995536,2.217319916676702,0.3973184574196802,Left,Correct,0.0,0.0,-45,45,2002,1081,-2.45
"{'cat': 'RB', 'resp': 'reach'}",18,198,Left,37.41593635529049,15.503417952200792,1.8707968177645244,0.2435271197208306,Left,Correct,0.0,0.0,-45,45,2008,1480,-2.68
"{'cat': 'RB', 'resp': 'reach'}",18,199,Right,67.43716519399801,73.8672611613879,3.3718582596999003,1.1603042250270743,Right,Correct,0.0,0.0,-45,45,2001,1003,-0.63
"{'cat': 'RB', 'resp': 'reach'}",18,200,Right,57.34822711028317,84.21854958404754,2.8674113555141583,1.3229018833461574,Right,Correct,0.0,0.0,-45,45,2005,1062,-0.72
"{'cat': 'RB', 'resp': 'reach'}",18,201,Left,45.09579235896891,48.926612804557465,2.2547896179484455,0.7685374367591502,Left,Correct,0.0,0.0,-45,45,2003,1476,-2.62
"{'cat': 'RB', 'resp': 'reach'}",18,202,Right,55.11067381430195,75.29358632125825,2.7555336907150974,1.1827088882464694,Right,Correct,0.0,0.0,-45,45,2008,840,-0.75
"{'cat': 'RB', 'resp': 'reach'}",18,203,Right,60.934381938366435,21.259424732057724,3.0467190969183218,0.33394226278888856,Right,Correct,0.0,0.0,-45,45,2005,817,-0.77
"{'cat': 'RB', 'resp': 'reach'}",18,204,Right,67.24351455696144,51.02451688753485,3.362175727848072,0.8014912370342392,Right,Correct,0.0,0.0,-45,45,2008,1018,-0.74
"{'cat': 'RB', 'resp': 'reach'}",18,205,Left,45.50505731960966,19.77614893697839,2.275252865980483,0.3106430210835445,Left,Correct,0.0,0.0,-45,45,2003,1438,-2.54
"{'cat': 'RB', 'resp': 'reach'}",18,206,Left,47.333136248601534,25.110927746217524,2.366656812430077,0.3944415306617053,Left,Correct,0.0,0.0,-45,45,2004,1844,-2.53
"{'cat': 'RB', 'resp': 'reach'}",18,207,Left,32.28874210552469,30.516814267963312,1.6144371052762347,0.4793569975759887,Left,Correct,0.0,0.0,-45,45,2009,934,-2.49
"{'cat': 'RB', 'resp': 'reach'}",18,208,Left,43.361227036262704,84.55588395559948,2.1680613518131353,1.3282007192635121,Left,Correct,0.0,0.0,-45,45,2007,995,-2.56
"{'cat': 'RB', 'resp': 'reach'}",18,209,Right,68.081805296869,65.46548795232603,3.4040902648434503,1.0283294800734928,Right,Correct,0.0,0.0,-45,45,2008,1625,-0.72
"{'cat': 'RB', 'resp': 'reach'}",18,210,Right,54.60623371522737,29.416178659666652,2.7303116857613685,0.46206825386946804,Right,Correct,0.0,0.0,-45,45,2001,1851,-0.74
"{'cat': 'RB', 'resp': 'reach'}",18,211,Right,61.743469222746114,23.906286472560865,3.0871734611373056,0.3755190697840513,Right,Correct,0.0,0.0,-45,45,2012,1192,-0.71
"{'cat': 'RB', 'resp': 'reach'}",18,212,Left,44.25900289096873,66.38004675566197,2.2129501445484365,1.0426953361626732,Left,Correct,0.0,0.0,-45,45,2009,2200,-2.53
"{'cat': 'RB', 'resp': 'reach'}",18,213,Right,67.46714265913842,50.197980780627724,3.3733571329569205,0.7885080382273085,Right,Correct,0.0,0.0,-45,45,2001,977,-0.71
"{'cat': 'RB', 'resp': 'reach'}",18,214,Left,32.55737890074338,51.611606405756135,1.6278689450371688,0.8107132176214569,Left,Correct,0.0,0.0,-45,45,2001,949,-2.47
"{'cat': 'RB', 'resp': 'reach'}",18,215,Right,52.90751476413906,69.15076998409107,2.645375738206953,1.0862177548604905,Right,Correct,0.0,0.0,-45,45,2009,1549,-0.68
"{'cat': 'RB', 'resp': 'reach'}",18,216,Right,64.03909680367184,28.27726848345186,3.2019548401835918,0.4441782946559928,Right,Correct,0.0,0.0,-45,45,2004,894,-0.68
"{'cat': 'RB', 'resp': 'reach'}",18,217,Left,36.11290649023269,84.71629276411804,1.8056453245116344,1.330720414935577,Left,Correct,0.0,0.0,-45,45,2004,1073,-2.57
"{'cat': 'RB', 'resp': 'reach'}",18,218,Left,45.52103832171264,25.49939180246242,2.276051916085632,0.40054350978811865,Right,Incorrect,0.0,0.0,-45,45,2009,1456,-0.72
"{'cat': 'RB', 'resp': 'reach'}",18,219,Left,31.147151530400865,44.3435230608003,1.5573575765200434,0.696546431410499,Left,Correct,0.0,0.0,-45,45,2004,2142,-2.41
"{'cat': 'RB', 'resp': 'reach'}",18,220,Left,40.02598308378991,19.466747051351412,2.0012991541894958,0.3057829476290818,Left,Correct,0.0,0.0,-45,45,2008,1655,-2.45
"{'cat': 'RB', 'resp': 'reach'}",18,221,Left,43.370275235702984,35.153968700566665,2.168513761785149,0.5521972490711288,Left,Correct,0.0,0.0,-45,45,2010,1563,-2.44
"{'cat': 'RB', 'resp': 'reach'}",18,222,Left,44.05882012128912,17.352950398702802,2.202941006064456,0.272579507453364,Left,Correct,0.0,0.0,-45,45,2008,2403,-2.37
"{'cat': 'RB', 'resp': 'reach'}",18,223,Left,38.17385653393878,28.259202600822594,1.9086928266969392,0.4438945164352492,Left,Correct,0.0,0.0,-45,45,2011,1351,-2.45
"{'cat': 'RB', 'resp': 'reach'}",18,224,Right,64.8203688316982,41.334655415728776,3.2410184415849104,0.6492832489635955,Right,Correct,0.0,0.0,-45,45,2004,947,-0.71
"{'cat': 'RB', 'resp': 'reach'}",18,225,Right,60.18728162831533,48.66550419638779,3.0093640814157663,0.7644359523330757,Right,Correct,0.0,0.0,-45,45,2012,1144,-0.75
"{'cat': 'RB', 'resp': 'reach'}",18,226,Right,52.44086367266213,37.074312792796704,2.6220431836331066,0.582361943533701,Right,Correct,0.0,0.0,-45,45,2001,963,-0.74
"{'cat': 'RB', 'resp': 'reach'}",18,227,Left,37.17863586400488,29.01714697027203,1.8589317932002443,0.4558002787497097,Left,Correct,0.0,0.0,-45,45,2014,980,-2.51
"{'cat': 'RB', 'resp': 'reach'}",18,228,Right,62.92983628214331,80.36526628808802,3.1464918141071654,1.262374650872224,Right,Correct,0.0,0.0,-45,45,2004,1778,-0.77
"{'cat': 'RB', 'resp': 'reach'}",18,229,Right,53.24622851814232,53.68134153367333,2.6623114259071157,0.843224540985164,Right,Correct,0.0,0.0,-45,45,2013,988,-0.78
"{'cat': 'RB', 'resp': 'reach'}",18,230,Right,56.99514154531044,22.90718458885443,2.849757077265522,0.3598252140938521,Right,Correct,0.0,0.0,-45,45,2004,1317,-0.73
"{'cat': 'RB', 'resp': 'reach'}",18,231,Left,45.29398458945618,67.65301841937959,2.264699229472809,1.0626911282974896,Left,Correct,0.0,0.0,-45,45,2012,1614,-2.54
"{'cat': 'RB', 'resp': 'reach'}",18,232,Left,43.43695433525838,45.79702947988322,2.171847716762919,0.7193780568511815,Left,Correct,0.0,0.0,-45,45,2001,1095,-2.55
"{'cat': 'RB', 'resp': 'reach'}",18,233,Right,68.10230471853973,51.87922143677058,3.4051152359269863,0.8149169046985827,Right,Correct,0.0,0.0,-45,45,2009,946,-0.8
"{'cat': 'RB', 'resp': 'reach'}",18,234,Left,41.343919816659756,40.229796945513485,2.067195990832988,0.6319281726971712,Left,Correct,0.0,0.0,-45,45,2001,1035,-2.55
"{'cat': 'RB', 'resp': 'reach'}",18,235,Left,48.78781029720968,65.36051923378113,2.439390514860484,1.0266806352983058,Left,Correct,0.0,0.0,-45,45,2003,1616,-2.56
"{'cat': 'RB', 'resp': 'reach'}",18,236,Right,53.25846206766407,50.78928938017045,2.6629231033832035,0.797796291988948,Right,Correct,0.0,0.0,-45,45,2006,1227,-0.85
"{'cat': 'RB', 'resp': 'reach'}",18,237,Right,57.24881292260225,22.55404291058095,2.8624406461301124,0.35427807758315033,Right,Correct,0.0,0.0,-45,45,2013,1132,-0.79
"{'cat': 'RB', 'resp': 'reach'}",18,238,Right,68.43728038881011,58.71658986582662,3.4218640194405054,0.9223180368316289,Right,Correct,0.0,0.0,-45,45,2009,1068,-0.73
"{'cat': 'RB', 'resp': 'reach'}",18,239,Right,55.35630079509478,30.32401853440794,2.767815039754739,0.4763285692750835,Right,Correct,0.0,0.0,-45,45,2014,1101,-0.78
"{'cat': 'RB', 'resp': 'reach'}",18,240,Left,42.08328169967803,36.44963185620517,2.1041640849839016,0.5725494783275332,Left,Correct,0.0,0.0,-45,45,2002,906,-2.6
"{'cat': 'RB', 'resp': 'reach'}",18,241,Right,56.845509160977585,74.99518095994952,2.8422754580488796,1.1780215477920726,Right,Correct,0.0,0.0,-45,45,2013,1022,-0.75
"{'cat': 'RB', 'resp': 'reach'}",18,242,Right,64.74852080129577,73.41243149406024,3.237426040064788,1.1531597773195181,Right,Correct,0.0,0.0,-45,45,2001,1114,-0.71
"{'cat': 'RB', 'resp': 'reach'}",18,243,Left,42.714932731391045,78.82158290728526,2.1357466365695523,1.238126529029231,Left,Correct,0.0,0.0,-45,45,2005,1035,-2.53
"{'cat': 'RB', 'resp': 'reach'}",18,244,Left,46.98530452479805,73.31912139932315,2.3492652262399023,1.151694065778859,Left,Correct,0.0,0.0,-45,45,2013,1492,-2.48
"{'cat': 'RB', 'resp': 'reach'}",18,245,Left,39.875617653011346,31.03621402588923,1.9937808826505674,0.4875157098948705,Left,Correct,0.0,0.0,-45,45,2003,1105,-2.53
"{'cat': 'RB', 'resp': 'reach'}",18,246,Right,57.770248965115684,68.64257729297918,2.888512448255784,1.0782350827354648,Left,Incorrect,0.0,0.0,-45,45,2009,2102,-2.46
"{'cat': 'RB', 'resp': 'reach'}",18,247,Left,45.096769979933185,32.6054890238989,2.2548384989966594,0.512165823920917,Left,Correct,0.0,0.0,-45,45,2012,2476,-2.39
"{'cat': 'RB', 'resp': 'reach'}",18,248,Left,34.58623601903719,50.62572315158881,1.7293118009518593,0.7952269996785107,Left,Correct,0.0,0.0,-45,45,2006,1104,-2.44
"{'cat': 'RB', 'resp': 'reach'}",18,249,Left,37.79116994520517,78.27685353392457,1.8895584972602586,1.2295699400415083,Left,Correct,0.0,0.0,-45,45,2006,1432,-2.43
"{'cat': 'RB', 'resp': 'reach'}",18,250,Left,41.57918235094933,24.952664281635627,2.0789591175474667,0.39195553397339467,Left,Correct,0.0,0.0,-45,45,2006,1592,-2.51
"{'cat': 'RB', 'resp': 'reach'}",18,251,Right,62.50050959548906,26.49450200658454,3.125025479774453,0.41617466432203015,Right,Correct,0.0,0.0,-45,45,2012,1076,-0.7
"{'cat': 'RB', 'resp': 'reach'}",18,252,Left,38.144839772954185,27.800912479647888,1.9072419886477092,0.43669571204577295,Left,Correct,0.0,0.0,-45,45,2009,1297,-2.45
"{'cat': 'RB', 'resp': 'reach'}",18,253,Right,55.95322175483272,41.106618293802896,2.797661087741636,0.6457012502286549,Right,Correct,0.0,0.0,-45,45,2004,1502,-0.74
"{'cat': 'RB', 'resp': 'reach'}",18,254,Left,40.47760222491203,60.8806261186604,2.0238801112456017,0.956310638801652,Left,Correct,0.0,0.0,-45,45,2007,1017,-2.53
"{'cat': 'RB', 'resp': 'reach'}",18,255,Left,43.752287119912545,65.84009630788069,2.187614355995627,1.0342138143624122,Left,Correct,0.0,0.0,-45,45,2001,1632,-2.46
"{'cat': 'RB', 'resp': 'reach'}",18,256,Left,39.12057535127074,22.00293564987471,1.9560287675635368,0.34562130497527677,Left,Correct,0.0,0.0,-45,45,2008,1203,-2.48
"{'cat': 'RB', 'resp': 'reach'}",18,257,Left,38.68930322991235,32.72125173352979,1.9344651614956174,0.5139842203115974,Left,Correct,0.0,0.0,-45,45,2003,1332,-2.45
"{'cat': 'RB', 'resp': 'reach'}",18,258,Right,65.47838593575526,44.12616505717014,3.2739192967877626,0.6931321798734817,Right,Correct,0.0,0.0,-45,45,2005,1192,-0.74
"{'cat': 'RB', 'resp': 'reach'}",18,259,Left,41.24528012658536,83.96025309870848,2.0622640063292677,1.318844571642211,Left,Correct,0.0,0.0,-45,45,2003,1554,-2.45
"{'cat': 'RB', 'resp': 'reach'}",18,260,Right,59.474088312405016,57.10433059140396,2.973704415620251,0.8969927273705879,Right,Correct,0.0,0.0,-45,45,2006,1186,-0.72
"{'cat': 'RB', 'resp': 'reach'}",18,261,Left,33.03664222895576,56.91534445742481,1.6518321114477883,0.8940241401198916,Left,Correct,0.0,0.0,-45,45,2001,904,-2.48
"{'cat': 'RB', 'resp': 'reach'}",18,262,Right,59.54488572550497,43.13071318575215,2.9772442862752486,0.6774956584422369,Right,Correct,0.0,0.0,-45,45,2012,1112,-0.72
"{'cat': 'RB', 'resp': 'reach'}",18,263,Left,32.29378078681324,53.56368435932255,1.6146890393406619,0.8413763864122512,Left,Correct,0.0,0.0,-45,45,2008,1193,-2.55
"{'cat': 'RB', 'resp': 'reach'}",18,264,Left,40.96608375759781,63.03798955613184,2.04830418787989,0.9901984244330695,Left,Correct,0.0,0.0,-45,45,2008,1389,-2.52
"{'cat': 'RB', 'resp': 'reach'}",18,265,Left,36.61080008180346,40.47828799684012,1.8305400040901731,0.6358314610038241,Left,Correct,0.0,0.0,-45,45,2006,1149,-2.51
"{'cat': 'RB', 'resp': 'reach'}",18,266,Right,54.26828835036774,61.658689351886395,2.713414417518387,0.9685324274893076,Right,Correct,0.0,0.0,-45,45,2003,1275,-0.73
"{'cat': 'RB', 'resp': 'reach'}",18,267,Right,58.4284435575671,85.81266706837906,2.921422177878355,1.347942222234832,Right,Correct,0.0,0.0,-45,45,2006,1312,-0.78
"{'cat': 'RB', 'resp': 'reach'}",18,268,Left,42.051437789270956,73.3195539368263,2.102571889463548,1.1517008600620704,Left,Correct,0.0,0.0,-45,45,2009,2201,-2.47
"{'cat': 'RB', 'resp': 'reach'}",18,269,Right,63.18161181266045,36.75891209196585,3.1590805906330224,0.5774076409103646,Right,Correct,0.0,0.0,-45,45,2007,1207,-0.69
"{'cat': 'RB', 'resp': 'reach'}",18,270,Left,39.19546900512289,70.83108088521317,1.9597734502561446,1.1126120167740505,Left,Correct,0.0,0.0,-45,45,2001,1422,-2.43
"{'cat': 'RB', 'resp': 'reach'}",18,271,Left,39.39098296760779,81.52335456681641,1.9695491483803895,1.2805658590155318,Left,Correct,0.0,0.0,-45,45,2005,1284,-2.5
"{'cat': 'RB', 'resp': 'reach'}",18,272,Right,60.01053951678934,89.59352377419032,3.0005269758394673,1.4073317804910939,Right,Correct,0.0,0.0,-45,45,2005,1198,-0.68
"{'cat': 'RB', 'resp': 'reach'}",18,273,Left,35.81790860482923,17.690461074469845,1.7908954302414615,0.2778811127508533,Left,Correct,0.0,0.0,-45,45,2004,1301,-2.52
"{'cat': 'RB', 'resp': 'reach'}",18,274,Left,34.05404523861144,23.748674906802375,1.7027022619305716,0.373043313098513,Left,Correct,0.0,0.0,-45,45,2002,1363,-2.45
"{'cat': 'RB', 'resp': 'reach'}",18,275,Left,40.14929829075088,79.9520615668676,2.007464914537544,1.2558840462891503,Left,Correct,0.0,0.0,-45,45,2010,1565,-2.51
"{'cat': 'RB', 'resp': 'reach'}",18,276,Left,44.39819455289976,55.33407404842525,2.2199097276449877,0.869185602618632,Left,Correct,0.0,0.0,-45,45,2002,2283,-2.47
"{'cat': 'RB', 'resp': 'reach'}",18,277,Left,46.014306435078204,71.94136673642758,2.30071532175391,1.13005234614185,Right,Incorrect,0.0,0.0,-45,45,2002,1094,-0.68
"{'cat': 'RB', 'resp': 'reach'}",18,278,Left,39.46084211619534,77.58401267332493,1.973042105809767,1.2186868212526751,Left,Correct,0.0,0.0,-45,45,2005,1772,-2.51
"{'cat': 'RB', 'resp': 'reach'}",18,279,Right,53.83092390009759,24.40167586470618,2.691546195004879,0.3833006281592015,Right,Correct,0.0,0.0,-45,45,2005,1405,-0.81
"{'cat': 'RB', 'resp': 'reach'}",18,280,Left,36.50240191141583,38.1713262107417,1.8251200955707916,0.5995937900072281,Left,Correct,0.0,0.0,-45,45,2007,1409,-2.38
"{'cat': 'RB', 'resp': 'reach'}",18,281,Right,59.864183372726096,68.07801607599157,2.9932091686363047,1.069366975876515,Right,Correct,0.0,0.0,-45,45,2008,1311,-0.83
"{'cat': 'RB', 'resp': 'reach'}",18,282,Right,65.48683537641277,46.295468287973655,3.274341768820639,0.7272075153399863,Right,Correct,0.0,0.0,-45,45,2001,999,-0.71
"{'cat': 'RB', 'resp': 'reach'}",18,283,Left,42.67058350741636,25.77646292946053,2.133529175370818,0.40489573287361413,Left,Correct,0.0,0.0,-45,45,2008,1504,-2.49
"{'cat': 'RB', 'resp': 'reach'}",18,284,Left,31.919681745102086,47.1245259311213,1.5959840872551043,0.7402303223455619,Left,Correct,0.0,0.0,-45,45,2008,1708,-2.45
"{'cat': 'RB', 'resp': 'reach'}",18,285,Left,35.81851144386316,58.39256951197898,1.7909255721931578,0.9172283370153224,Left,Correct,0.0,0.0,-45,45,2002,1081,-2.43
"{'cat': 'RB', 'resp': 'reach'}",18,286,Right,67.0758222826314,44.395923220135934,3.35379111413157,0.6973695311885778,Right,Correct,0.0,0.0,-45,45,2003,1107,-0.75
"{'cat': 'RB', 'resp': 'reach'}",18,287,Left,36.44305491701529,62.74096021009764,1.8221527458507643,0.9855326983760613,Left,Correct,0.0,0.0,-45,45,2006,3085,-2.36
"{'cat': 'RB', 'resp': 'reach'}",18,288,Right,59.13228293879709,76.83227023342394,2.956614146939854,1.206878478619752,Right,Correct,0.0,0.0,-45,45,2003,1108,-0.66
"{'cat': 'RB', 'resp': 'reach'}",18,289,Left,45.35485341487147,36.54207773525046,2.2677426707435733,0.57400161479985,Left,Correct,0.0,0.0,-45,45,2006,2163,-2.57
"{'cat': 'RB', 'resp': 'reach'}",18,290,Left,40.21214783267829,63.600674531841584,2.0106073916339144,0.9990370593629447,Left,Correct,0.0,0.0,-45,45,2003,1375,-2.51
"{'cat': 'RB', 'resp': 'reach'}",18,291,Right,57.34847507324772,77.24740209620556,2.867423753662386,1.2133993546716808,Right,Correct,0.0,0.0,-45,45,2003,2065,-0.76
"{'cat': 'RB', 'resp': 'reach'}",18,292,Right,53.87661907049915,32.528354395153144,2.693830953524958,0.5109541960058919,Right,Correct,0.0,0.0,-45,45,2003,1078,-0.78
"{'cat': 'RB', 'resp': 'reach'}",18,293,Right,64.25325417173877,73.10241861314637,3.212662708586939,1.148290106373532,Right,Correct,0.0,0.0,-45,45,2008,1113,-0.72
"{'cat': 'RB', 'resp': 'reach'}",18,294,Left,43.6298049573679,21.855091799067484,2.181490247868395,0.3432989791974047,Left,Correct,0.0,0.0,-45,45,2012,1622,-2.48
"{'cat': 'RB', 'resp': 'reach'}",18,295,Right,62.66813635265738,46.96244886657336,3.133406817632869,0.7376844217690659,Right,Correct,0.0,0.0,-45,45,2009,1199,-0.77
"{'cat': 'RB', 'resp': 'reach'}",18,296,Left,49.00968842566913,58.2125145087042,2.450484421283457,0.9144000396376719,Left,Correct,0.0,0.0,-45,45,2012,1884,-2.46
"{'cat': 'RB', 'resp': 'reach'}",18,297,Right,53.630348041611576,46.740110786206714,2.681517402080579,0.7341919433696005,Right,Correct,0.0,0.0,-45,45,2007,1152,-0.78
"{'cat': 'RB', 'resp': 'reach'}",18,298,Left,31.91597289302325,33.28945449056515,1.5957986446511623,0.5229095283478562,Left,Correct,0.0,0.0,-45,45,2005,982,-2.54
"{'cat': 'RB', 'resp': 'reach'}",18,299,Right,66.29739847729188,37.935294466892415,3.314869923864594,0.5958862120447737,Right,Correct,0.0,0.0,-45,45,2003,973,-0.67
"{'cat': 'RB', 'resp': 'reach'}",18,300,Right,60.96553139989055,51.39024300466361,3.0482765699945276,0.8072360494482271,Right,Correct,0.0,0.0,-45,45,2008,947,-0.7
"{'cat': 'RB', 'resp': 'reach'}",18,301,Right,53.72778873237922,63.04474396849476,2.6863894366189607,0.9903045224943628,Right,Correct,0.0,0.0,-45,45,2008,1955,-0.72
"{'cat': 'RB', 'resp': 'reach'}",18,302,Right,51.27500547379162,65.8713925159281,2.563750273689581,1.034705414048847,Right,Correct,0.0,0.0,-45,45,2004,976,-0.73
"{'cat': 'RB', 'resp': 'reach'}",18,303,Left,37.00240037912527,47.6322358385582,1.8501200189562637,0.7482054109223545,Left,Correct,0.0,0.0,-45,45,2009,1097,-2.41
"{'cat': 'RB', 'resp': 'reach'}",18,304,Left,46.65415098248701,70.65998981684069,2.3327075491243505,1.1099245245565814,Left,Correct,0.0,0.0,-45,45,2008,1363,-2.48
"{'cat': 'RB', 'resp': 'reach'}",18,305,Right,60.9464837517201,27.85914915760307,3.047324187586005,0.43761049164394045,Right,Correct,0.0,0.0,-45,45,2009,1062,-0.7
"{'cat': 'RB', 'resp': 'reach'}",18,306,Right,64.45755775138346,13.72920400513123,3.222877887569173,0.21565783221077917,Right,Correct,0.0,0.0,-45,45,2009,4249,-0.73
"{'cat': 'RB', 'resp': 'reach'}",18,307,Left,38.941978959212115,67.72354111436978,1.9470989479606058,1.063798896199952,Left,Correct,0.0,0.0,-45,45,2005,1069,-2.47
"{'cat': 'RB', 'resp': 'reach'}",18,308,Right,53.66312231392741,66.61273226966821,2.6831561156963706,1.046350351669667,Right,Correct,0.0,0.0,-45,45,2002,1301,-0.69
"{'cat': 'RB', 'resp': 'reach'}",18,309,Right,69.41467900144407,46.57897989748361,3.4707339500722036,0.7316609052882057,Right,Correct,0.0,0.0,-45,45,2003,1137,-0.73
"{'cat': 'RB', 'resp': 'reach'}",18,310,Left,36.101322472717754,33.049058936087505,1.8050661236358878,0.5191334038083432,Left,Correct,0.0,0.0,-45,45,2008,894,-2.52
"{'cat': 'RB', 'resp': 'reach'}",18,311,Left,38.838490877953866,76.69093931217614,1.9419245438976933,1.204658457700166,Left,Correct,0.0,0.0,-45,45,2011,1249,-2.5
"{'cat': 'RB', 'resp': 'reach'}",18,312,Left,44.59222412006539,71.75040697691753,2.2296112060032693,1.1270527572538096,Left,Correct,0.0,0.0,-45,45,2001,1422,-2.56
"{'cat': 'RB', 'resp': 'reach'}",18,313,Right,56.93492105080202,79.00000498490715,2.8467460525401007,1.2409291764707067,Right,Correct,0.0,0.0,-45,45,2005,1845,-0.71
"{'cat': 'RB', 'resp': 'reach'}",18,314,Left,40.67806828332175,49.64140689113634,2.0339034141660877,0.7797653960152783,Left,Correct,0.0,0.0,-45,45,2006,887,-2.48
"{'cat': 'RB', 'resp': 'reach'}",18,315,Right,68.46554778465095,44.34619724910908,3.423277389232547,0.6965884374622249,Right,Correct,0.0,0.0,-45,45,2005,762,-0.72
"{'cat': 'RB', 'resp': 'reach'}",18,316,Left,34.60488608370738,81.94711613646922,1.730244304185369,1.2872222901860064,Left,Correct,0.0,0.0,-45,45,2012,954,-2.46
"{'cat': 'RB', 'resp': 'reach'}",18,317,Left,43.639415876137015,21.46112067786536,2.1819707938068507,0.3371104952969291,Left,Correct,0.0,0.0,-45,45,2009,1035,-2.34
"{'cat': 'RB', 'resp': 'reach'}",18,318,Right,60.55051894925834,18.435284991707736,3.0275259474629173,0.289580779483916,Right,Correct,0.0,0.0,-45,45,2006,1074,-0.71
"{'cat': 'RB', 'resp': 'reach'}",18,319,Left,36.695370754707746,67.00354903653106,1.8347685377353873,1.0524892870880471,Left,Correct,0.0,0.0,-45,45,2012,1009,-2.62
"{'cat': 'RB', 'resp': 'reach'}",18,320,Right,51.96200190314781,61.6763608918125,2.59810009515739,0.9688100113893549,Right,Correct,0.0,0.0,-45,45,2010,2507,-0.68
"{'cat': 'RB', 'resp': 'reach'}",18,321,Right,60.688872722944026,26.171856000442585,3.0344436361472016,0.4111065527090018,Right,Correct,0.0,0.0,-45,45,2006,926,-0.72
"{'cat': 'RB', 'resp': 'reach'}",18,322,Left,47.37761081441279,51.7068860925349,2.3688805407206392,0.8122098674415595,Left,Correct,0.0,0.0,-45,45,2008,2822,-2.5
"{'cat': 'RB', 'resp': 'reach'}",18,323,Left,34.413284038888406,49.535293824498446,1.7206642019444203,0.7780985758622806,Left,Correct,0.0,0.0,-45,45,2002,1457,-2.41
"{'cat': 'RB', 'resp': 'reach'}",18,324,Left,37.97469359782958,27.666099167412675,1.8987346798914788,0.4345780694891518,Left,Correct,0.0,0.0,-45,45,2004,1431,-2.41
"{'cat': 'RB', 'resp': 'reach'}",18,325,Left,47.27077905690409,32.996873317466196,2.363538952845204,0.5183136740279243,Left,Correct,0.0,0.0,-45,45,2004,2056,-2.42
"{'cat': 'RB', 'resp': 'reach'}",18,326,Right,54.71189480705513,66.93697381941358,2.7355947403527567,1.0514435260230102,Right,Correct,0.0,0.0,-45,45,2012,2148,-0.69
"{'cat': 'RB', 'resp': 'reach'}",18,327,Left,40.03781753850716,53.636784584322584,2.001890876925358,0.8425246420614305,Left,Correct,0.0,0.0,-45,45,2003,1359,-2.38
"{'cat': 'RB', 'resp': 'reach'}",18,328,Left,41.96761895274744,81.83685400841017,2.0983809476373723,1.285490296728609,Left,Correct,0.0,0.0,-45,45,2003,1263,-2.48
"{'cat': 'RB', 'resp': 'reach'}",18,329,Right,59.88208730084921,46.53883754884626,2.9941043650424604,0.731030350750321,Right,Correct,0.0,0.0,-45,45,2008,905,-0.76
"{'cat': 'RB', 'resp': 'reach'}",18,330,Right,63.15148163334194,32.07958841900154,3.157574081667097,0.5039049965365971,Right,Correct,0.0,0.0,-45,45,2006,822,-0.75
"{'cat': 'RB', 'resp': 'reach'}",18,331,Left,39.72406224067551,40.63254186833777,1.9862031120337753,0.6382544751512481,Left,Correct,0.0,0.0,-45,45,2002,907,-2.44
"{'cat': 'RB', 'resp': 'reach'}",18,332,Left,42.62276226833256,34.780052153254104,2.131138113416628,0.5463237816806649,Left,Correct,0.0,0.0,-45,45,2008,1281,-2.47
"{'cat': 'RB', 'resp': 'reach'}",18,333,Left,34.999498459960016,36.88772106781891,1.7499749229980008,0.5794309675716467,Left,Correct,0.0,0.0,-45,45,2006,815,-2.48
"{'cat': 'RB', 'resp': 'reach'}",18,334,Right,61.24282703507816,55.91055285144248,3.062141351753908,0.8782409104811778,Right,Correct,0.0,0.0,-45,45,2003,1038,-0.7
"{'cat': 'RB', 'resp': 'reach'}",18,335,Right,59.151605795941336,25.00366684880659,2.957580289797067,0.3927566804250871,Right,Correct,0.0,0.0,-45,45,2004,1144,-0.75
"{'cat': 'RB', 'resp': 'reach'}",18,336,Left,42.67752289975922,46.9583512934359,2.133876144987961,0.737620057240735,Left,Correct,0.0,0.0,-45,45,2007,1177,-2.53
"{'cat': 'RB', 'resp': 'reach'}",18,337,Right,60.012278586609426,18.50361424619324,3.0006139293304717,0.29065409290350064,Right,Correct,0.0,0.0,-45,45,2004,983,-0.71
"{'cat': 'RB', 'resp': 'reach'}",18,338,Left,35.98645782252883,60.240364554776136,1.7993228911264412,0.9462534336742784,Left,Correct,0.0,0.0,-45,45,2010,878,-2.33
"{'cat': 'RB', 'resp': 'reach'}",18,339,Left,36.38538755022453,61.094793472059195,1.8192693775112263,0.9596747717220341,Left,Correct,0.0,0.0,-45,45,2006,1246,-2.3
"{'cat': 'RB', 'resp': 'reach'}",18,340,Right,66.16607675045408,78.09016814989832,3.308303837522704,1.226637492886561,Right,Correct,0.0,0.0,-45,45,2008,881,-0.69
"{'cat': 'RB', 'resp': 'reach'}",18,341,Right,56.67235257572897,77.76098356956349,2.8336176287864485,1.2214666735902864,Right,Correct,0.0,0.0,-45,45,2008,1542,-0.73
"{'cat': 'RB', 'resp': 'reach'}",18,342,Left,42.399502972780894,27.45739165113924,2.119975148639045,0.4312996994897838,Left,Correct,0.0,0.0,-45,45,2009,1904,-2.39
"{'cat': 'RB', 'resp': 'reach'}",18,343,Right,62.328136495780726,67.08072975306365,3.116406824789036,1.0537016389483351,Right,Correct,0.0,0.0,-45,45,2001,932,-0.68
"{'cat': 'RB', 'resp': 'reach'}",18,344,Right,55.303219657573855,80.93034484906042,2.765160982878693,1.2712508841514838,Right,Correct,0.0,0.0,-45,45,2002,860,-0.71
"{'cat': 'RB', 'resp': 'reach'}",18,345,Right,61.35005249696453,55.95106224350454,3.0675026248482267,0.8788772305236956,Right,Correct,0.0,0.0,-45,45,2003,757,-0.72
"{'cat': 'RB', 'resp': 'reach'}",18,346,Left,40.3532828026611,74.79986047651443,2.0176641401330553,1.1749534608127963,Left,Correct,0.0,0.0,-45,45,2007,991,-2.48
"{'cat': 'RB', 'resp': 'reach'}",18,347,Right,55.36732875335787,14.62930473196144,2.7683664376678934,0.22979658136528225,Right,Correct,0.0,0.0,-45,45,2012,895,-0.73
"{'cat': 'RB', 'resp': 'reach'}",18,348,Left,42.600712113293454,75.64054082160848,2.130035605664673,1.1881588367936202,Left,Correct,0.0,0.0,-45,45,2005,1330,-2.48
"{'cat': 'RB', 'resp': 'reach'}",18,349,Right,59.580129766325705,71.16867408689647,2.9790064883162852,1.117914918385601,Right,Correct,0.0,0.0,-45,45,2009,925,-0.7
"{'cat': 'RB', 'resp': 'reach'}",18,350,Left,41.42222633420766,69.09876449763546,2.071111316710383,1.0854008545895137,Left,Correct,0.0,0.0,-45,45,2007,1208,-2.47
"{'cat': 'RB', 'resp': 'reach'}",18,351,Right,64.05876680738643,36.633065119787474,3.2029383403693212,0.5754308412940041,Right,Correct,0.0,0.0,-45,45,2002,928,-0.74
"{'cat': 'RB', 'resp': 'reach'}",18,352,Right,62.240653856858486,44.74180480676455,3.1120326928429245,0.7028026264464,Right,Correct,0.0,0.0,-45,45,2008,1598,-0.76
"{'cat': 'RB', 'resp': 'reach'}",18,353,Right,65.7994330775016,21.968775596381725,3.28997165387508,0.34508472010977775,Right,Correct,0.0,0.0,-45,45,2001,1037,-0.74
"{'cat': 'RB', 'resp': 'reach'}",18,354,Left,35.63505575058404,74.4461046435602,1.7817527875292019,1.1693966771829287,Left,Correct,0.0,0.0,-45,45,2004,996,-2.47
"{'cat': 'RB', 'resp': 'reach'}",18,355,Right,64.37419476976372,16.351564866574307,3.218709738488186,0.25684978029763406,Right,Correct,0.0,0.0,-45,45,2006,823,-0.77
"{'cat': 'RB', 'resp': 'reach'}",18,356,Left,47.00901133220633,63.7728257514298,2.3504505666103164,1.0017412043967693,Left,Correct,0.0,0.0,-45,45,2013,1126,-2.5
"{'cat': 'RB', 'resp': 'reach'}",18,357,Left,36.435051013354865,49.19028459320081,1.8217525506677432,0.7726791835299541,Left,Correct,0.0,0.0,-45,45,2009,1289,-2.4
"{'cat': 'RB', 'resp': 'reach'}",18,358,Right,54.647323724300506,53.50399986661652,2.7323661862150255,0.8404388645931585,Right,Correct,0.0,0.0,-45,45,2005,991,-0.74
"{'cat': 'RB', 'resp': 'reach'}",18,359,Right,60.23123981674311,23.001051841142157,3.011561990837156,0.361299677444851,Right,Correct,0.0,0.0,-45,45,2008,1887,-0.72
"{'cat': 'RB', 'resp': 'reach'}",18,360,Left,34.23338240174333,62.29408991979967,1.7116691200871663,0.9785132762705231,Left,Correct,0.0,0.0,-45,45,2002,995,-2.56
"{'cat': 'RB', 'resp': 'reach'}",18,361,Right,54.327526085299084,60.082940126388785,2.7163763042649545,0.9437806165356921,Left,Incorrect,0.0,0.0,-45,45,2007,2241,-2.57
"{'cat': 'RB', 'resp': 'reach'}",18,362,Right,53.78365778711294,42.50034674601334,2.689182889355647,0.6675938855614719,Right,Correct,0.0,0.0,-45,45,2007,1105,-0.63
"{'cat': 'RB', 'resp': 'reach'}",18,363,Left,42.65087240805024,13.640700758979442,2.132543620402512,0.21426762647113265,Left,Correct,0.0,0.0,-45,45,2004,2525,-2.4
"{'cat': 'RB', 'resp': 'reach'}",18,364,Left,33.77061168287502,77.57019719805152,1.6885305841437512,1.2184698082745509,Left,Correct,0.0,0.0,-45,45,2009,1092,-2.41
"{'cat': 'RB', 'resp': 'reach'}",18,365,Left,32.21484256079373,36.4826431842878,1.6107421280396863,0.5730680190564814,Left,Correct,0.0,0.0,-45,45,2010,932,-2.37
"{'cat': 'RB', 'resp': 'reach'}",18,366,Right,51.89001522088179,29.820875467793172,2.5945007610440896,0.4684252164661755,Right,Correct,0.0,0.0,-45,45,2006,1427,-0.68
"{'cat': 'RB', 'resp': 'reach'}",18,367,Left,33.34322008834298,69.33824896709787,1.667161004417149,1.0891626678390738,Left,Correct,0.0,0.0,-45,45,2006,1014,-2.47
"{'cat': 'RB', 'resp': 'reach'}",18,368,Left,42.06421843522111,44.14085106356659,2.1032109217610553,0.69336286712251,Right,Incorrect,0.0,0.0,-45,45,2006,813,-0.7
"{'cat': 'RB', 'resp': 'reach'}",18,369,Left,32.76192221067399,33.33397898503165,1.6380961105336993,0.5236089174714599,Left,Correct,0.0,0.0,-45,45,2009,895,-2.49
"{'cat': 'RB', 'resp': 'reach'}",18,370,Left,38.86728435299622,86.47438043199628,1.9433642176498112,1.3583363914444424,Left,Correct,0.0,0.0,-45,45,2001,773,-2.39
"{'cat': 'RB', 'resp': 'reach'}",18,371,Right,61.4032722344473,87.54315097214668,3.0701636117223647,1.3751245998309907,Left,Incorrect,0.0,0.0,-45,45,2009,877,-2.49
"{'cat': 'RB', 'resp': 'reach'}",18,372,Right,60.40160983443361,79.80954499346639,3.0200804917216804,1.2536454011890903,Right,Correct,0.0,0.0,-45,45,2010,764,-0.69
"{'cat': 'RB', 'resp': 'reach'}",18,373,Left,36.35944569832023,32.903486012609406,1.8179722849160114,0.5168467496735412,Left,Correct,0.0,0.0,-45,45,2008,807,-2.45
"{'cat': 'RB', 'resp': 'reach'}",18,374,Left,32.13398383246802,46.07056031520903,1.6066991916234008,0.7236746691651307,Right,Incorrect,0.0,0.0,-45,45,2005,1003,-0.68
"{'cat': 'RB', 'resp': 'reach'}",18,375,Right,55.88905336047209,34.42086898215293,2.794452668023604,0.5406817456225421,Right,Correct,0.0,0.0,-45,45,2002,1343,-0.67
"{'cat': 'RB', 'resp': 'reach'}",18,376,Left,35.03406376960482,40.5340126950793,1.751703188480241,0.6367067825168827,Left,Correct,0.0,0.0,-45,45,2003,933,-2.51
"{'cat': 'RB', 'resp': 'reach'}",18,377,Right,51.03407238669412,36.93427232403496,2.551703619334706,0.5801621929943652,Right,Correct,0.0,0.0,-45,45,2003,961,-0.72
"{'cat': 'RB', 'resp': 'reach'}",18,378,Left,38.59188771378322,28.058886093652923,1.929594385689161,0.4407479520986642,Right,Incorrect,0.0,0.0,-45,45,2008,995,-0.69
"{'cat': 'RB', 'resp': 'reach'}",18,379,Left,34.90953411583844,47.08998881006001,1.7454767057919218,0.7396878145165503,Left,Correct,0.0,0.0,-45,45,2001,1144,-2.3
"{'cat': 'RB', 'resp': 'reach'}",18,380,Left,39.805756559498754,73.33710785600252,1.9902878279749376,1.151976596379699,Left,Correct,0.0,0.0,-45,45,2007,1386,-2.29
"{'cat': 'RB', 'resp': 'reach'}",18,381,Right,64.84491472071113,75.24203993659441,3.2422457360355565,1.181899199529574,Right,Correct,0.0,0.0,-45,45,2006,891,-0.71
"{'cat': 'RB', 'resp': 'reach'}",18,382,Right,60.66925868899038,13.483877005609408,3.033462934449519,0.21180424471365428,Right,Correct,0.0,0.0,-45,45,2003,1159,-0.68
"{'cat': 'RB', 'resp': 'reach'}",18,383,Right,63.74518136316453,82.02051560320825,3.1872590681582262,1.2883752463134301,Right,Correct,0.0,0.0,-45,45,2008,852,-0.7
"{'cat': 'RB', 'resp': 'reach'}",18,384,Right,65.1462790654782,68.86976907660006,3.25731395327391,1.0818038029273613,Right,Correct,0.0,0.0,-45,45,2008,838,-0.73
"{'cat': 'RB', 'resp': 'reach'}",18,385,Right,60.88374810099357,90.88414381256678,3.044187405049678,1.4276047926467903,Right,Correct,0.0,0.0,-45,45,2008,867,-0.73
"{'cat': 'RB', 'resp': 'reach'}",18,386,Right,59.34756349060653,46.508637939796934,2.9673781745303267,0.7305559764006678,Right,Correct,0.0,0.0,-45,45,2003,902,-0.74
"{'cat': 'RB', 'resp': 'reach'}",18,387,Right,67.15618931928546,43.90035106720036,3.3578094659642725,0.6895851020136474,Right,Correct,0.0,0.0,-45,45,2001,823,-0.63
"{'cat': 'RB', 'resp': 'reach'}",18,388,Left,36.42515136988943,70.34463662760838,1.8212575684944712,1.10497096824369,Left,Correct,0.0,0.0,-45,45,2002,1138,-2.65
"{'cat': 'RB', 'resp': 'reach'}",18,389,Right,56.410266575197184,56.984647451686556,2.820513328759859,0.8951127490081141,Right,Correct,0.0,0.0,-45,45,2009,891,-0.6
"{'cat': 'RB', 'resp': 'reach'}",18,390,Right,53.04261084644099,55.61158269814492,2.652130542322049,0.8735446982949665,Right,Correct,0.0,0.0,-45,45,2008,1083,-0.63
"{'cat': 'RB', 'resp': 'reach'}",18,391,Right,58.10304416997611,86.97827131316777,2.9051522084988055,1.3662514908969388,Right,Correct,0.0,0.0,-45,45,2003,783,-0.65
"{'cat': 'RB', 'resp': 'reach'}",18,392,Right,51.528617121555506,64.19573610659155,2.5764308560777756,1.0083842647212853,Right,Correct,0.0,0.0,-45,45,2005,653,-0.63
"{'cat': 'RB', 'resp': 'reach'}",18,393,Right,52.98053435192083,26.075989167008853,2.649026717596042,0.4096006800108101,Right,Correct,0.0,0.0,-45,45,2004,743,-0.63
"{'cat': 'RB', 'resp': 'reach'}",18,394,Left,36.23813458493559,13.743279602536944,1.8119067292467792,0.21587893117780257,Left,Correct,0.0,0.0,-45,45,2009,1526,-2.59
"{'cat': 'RB', 'resp': 'reach'}",18,395,Left,35.464829601122716,36.064039250563255,1.7732414800561358,0.5664926038417174,Left,Correct,0.0,0.0,-45,45,2009,754,-2.43
"{'cat': 'RB', 'resp': 'reach'}",18,396,Left,47.39126886945253,37.24993952619053,2.3695634434726265,0.5851206818107212,Right,Incorrect,0.0,0.0,-45,45,2009,2516,-0.66
"{'cat': 'RB', 'resp': 'reach'}",18,397,Left,41.558038305019856,74.19344026433966,2.077901915250993,1.165427834395013,Left,Correct,0.0,0.0,-45,45,2003,1055,-2.4
"{'cat': 'RB', 'resp': 'reach'}",18,398,Right,53.78602983758114,33.64686954933249,2.6893014918790574,0.5285237909623853,Right,Correct,0.0,0.0,-45,45,2009,1070,-0.69
"{'cat': 'RB', 'resp': 'reach'}",18,399,Left,39.362789579003945,30.22133142407137,1.9681394789501974,0.4747155639178248,Left,Correct,0.0,0.0,-45,45,2003,959,-2.54
