condition,subject,trial,cat,x,y,xt,yt,resp,fb,rotation,su,target_angle_left,target_angle_right,rt,mt,ep
"{'cat': 'RB', 'resp': 'button'}",9,0,Right,63.90025563659067,33.41273094980358,3.1950127818295333,0.5248459504413763,Right,Correct,0.0,0.0,-45,45,1992,-1,-1
"{'cat': 'RB', 'resp': 'button'}",9,1,Right,62.068441185657065,67.10476765234766,3.1034220592828534,1.054079225387327,Right,Correct,0.0,0.0,-45,45,1420,-1,-1
"{'cat': 'RB', 'resp': 'button'}",9,2,Left,31.62150644583591,45.672159655477984,1.5810753222917955,0.7174166062361489,Right,Incorrect,0.0,0.0,-45,45,1334,-1,-1
"{'cat': 'RB', 'resp': 'button'}",9,3,Right,59.080854998854875,10.645974499174358,2.9540427499427437,0.1672265763845522,Left,Incorrect,0.0,0.0,-45,45,1461,-1,-1
"{'cat': 'RB', 'resp': 'button'}",9,4,Left,46.94940475613604,71.43810716249453,2.3474702378068018,1.1221471632402662,Left,Correct,0.0,0.0,-45,45,2071,-1,-1
"{'cat': 'RB', 'resp': 'button'}",9,5,Right,64.81968401210315,14.703034193155375,3.2409842006051575,0.23095472103348227,Right,Correct,0.0,0.0,-45,45,1477,-1,-1
"{'cat': 'RB', 'resp': 'button'}",9,6,Right,68.71180099366053,58.58456209489615,3.4355900496830265,0.920244149455504,Right,Correct,0.0,0.0,-45,45,1223,-1,-1
"{'cat': 'RB', 'resp': 'button'}",9,7,Right,65.75442212950732,69.88819773048152,3.2877211064753658,1.097801242813558,Left,Incorrect,0.0,0.0,-45,45,897,-1,-1
"{'cat': 'RB', 'resp': 'button'}",9,8,Right,63.144962055764836,19.041283806937667,3.157248102788242,0.2990997866139683,Right,Correct,0.0,0.0,-45,45,2190,-1,-1
"{'cat': 'RB', 'resp': 'button'}",9,9,Right,59.185784832901156,23.80012801712009,2.959289241645058,0.37385153666540544,Left,Incorrect,0.0,0.0,-45,45,1607,-1,-1
"{'cat': 'RB', 'resp': 'button'}",9,10,Right,68.16528817232945,63.0069002647223,3.4082644086164726,0.9897100749855817,Right,Correct,0.0,0.0,-45,45,1661,-1,-1
"{'cat': 'RB', 'resp': 'button'}",9,11,Left,40.07692723214328,59.13540135831135,2.003846361607164,0.9288967123717741,Left,Correct,0.0,0.0,-45,45,1101,-1,-1
"{'cat': 'RB', 'resp': 'button'}",9,12,Right,60.172333994107454,71.39824007472431,3.0086166997053727,1.1215209324899715,Right,Correct,0.0,0.0,-45,45,1720,-1,-1
"{'cat': 'RB', 'resp': 'button'}",9,13,Right,54.63441252682263,16.34827153785144,2.7317206263411316,0.25679804881102597,Left,Incorrect,0.0,0.0,-45,45,1675,-1,-1
"{'cat': 'RB', 'resp': 'button'}",9,14,Right,62.414438256017796,85.28380245271772,3.12072191280089,1.339634836278306,Left,Incorrect,0.0,0.0,-45,45,1725,-1,-1
"{'cat': 'RB', 'resp': 'button'}",9,15,Left,36.60637687034657,55.86963769922486,1.8303188435173285,0.877598216773041,Right,Incorrect,0.0,0.0,-45,45,1624,-1,-1
"{'cat': 'RB', 'resp': 'button'}",9,16,Left,43.28881147484104,81.18406722601081,2.164440573742052,1.2752363459288774,Left,Correct,0.0,0.0,-45,45,1766,-1,-1
"{'cat': 'RB', 'resp': 'button'}",9,17,Left,33.12207405610962,54.858247667766456,1.656103702805481,0.8617113393093224,Right,Incorrect,0.0,0.0,-45,45,1562,-1,-1
"{'cat': 'RB', 'resp': 'button'}",9,18,Right,50.90877932052515,48.850397490316915,2.5454389660262575,0.7673402494026045,Left,Incorrect,0.0,0.0,-45,45,2221,-1,-1
"{'cat': 'RB', 'resp': 'button'}",9,19,Right,58.631203319912835,59.71773833536496,2.931560165995642,0.9380440402169007,Left,Incorrect,0.0,0.0,-45,45,2270,-1,-1
"{'cat': 'RB', 'resp': 'button'}",9,20,Right,63.58481444684257,75.73627965001941,3.179240722342129,1.1896626987936156,Right,Correct,0.0,0.0,-45,45,1627,-1,-1
"{'cat': 'RB', 'resp': 'button'}",9,21,Right,58.42383203616863,89.28245717669304,2.9211916018084314,1.4024455578037207,Right,Correct,0.0,0.0,-45,45,1275,-1,-1
"{'cat': 'RB', 'resp': 'button'}",9,22,Right,62.20402965887531,35.909374024627425,3.1102014829437654,0.5640631281538884,Right,Correct,0.0,0.0,-45,45,1126,-1,-1
"{'cat': 'RB', 'resp': 'button'}",9,23,Right,59.09368111616068,46.76517209617653,2.954684055808034,0.7345856055060529,Right,Correct,0.0,0.0,-45,45,1055,-1,-1
"{'cat': 'RB', 'resp': 'button'}",9,24,Right,51.93610035437918,33.675640876553416,2.5968050177189586,0.5289757299135418,Right,Correct,0.0,0.0,-45,45,1061,-1,-1
"{'cat': 'RB', 'resp': 'button'}",9,25,Left,33.91934621703703,26.96966682234677,1.6959673108518516,0.423638535794245,Right,Incorrect,0.0,0.0,-45,45,1498,-1,-1
"{'cat': 'RB', 'resp': 'button'}",9,26,Right,54.620890720040926,33.71645497933064,2.7310445360020466,0.5296168363407807,Left,Incorrect,0.0,0.0,-45,45,1176,-1,-1
"{'cat': 'RB', 'resp': 'button'}",9,27,Right,68.19361906434165,44.36134219932638,3.4096809532170824,0.6968263337839331,Right,Correct,0.0,0.0,-45,45,2092,-1,-1
"{'cat': 'RB', 'resp': 'button'}",9,28,Right,53.45544295995647,37.57852109924218,2.672772147997824,0.5902820290907413,Right,Correct,0.0,0.0,-45,45,1018,-1,-1
"{'cat': 'RB', 'resp': 'button'}",9,29,Right,50.9978795660197,43.28043743081144,2.5498939783009846,0.6798475213839495,Right,Correct,0.0,0.0,-45,45,1111,-1,-1
"{'cat': 'RB', 'resp': 'button'}",9,30,Right,67.59973114974751,40.36331954048036,3.379986557487376,0.6340255407143522,Right,Correct,0.0,0.0,-45,45,1074,-1,-1
"{'cat': 'RB', 'resp': 'button'}",9,31,Right,66.08292817311698,51.08495113624985,3.3041464086558494,0.8024405359931803,Right,Correct,0.0,0.0,-45,45,828,-1,-1
"{'cat': 'RB', 'resp': 'button'}",9,32,Left,40.653651025822455,11.266034739403132,2.032682551291123,0.1769664598619814,Left,Correct,0.0,0.0,-45,45,871,-1,-1
"{'cat': 'RB', 'resp': 'button'}",9,33,Left,38.8956708374226,59.69018001418651,1.94478354187113,0.9376111551201032,Right,Incorrect,0.0,0.0,-45,45,925,-1,-1
"{'cat': 'RB', 'resp': 'button'}",9,34,Right,65.4134361176383,49.3659968653795,3.270671805881915,0.7754392654470651,Right,Correct,0.0,0.0,-45,45,800,-1,-1
"{'cat': 'RB', 'resp': 'button'}",9,35,Left,39.18228842600465,44.425739352017224,1.9591144213002323,0.6978378818929615,Right,Incorrect,0.0,0.0,-45,45,665,-1,-1
"{'cat': 'RB', 'resp': 'button'}",9,36,Right,64.46160663321582,75.78206625204338,3.2230803316607908,1.1903819130563722,Right,Correct,0.0,0.0,-45,45,1612,-1,-1
"{'cat': 'RB', 'resp': 'button'}",9,37,Right,62.591183195713555,38.402777482001355,3.1295591597856776,0.6032294180744949,Right,Correct,0.0,0.0,-45,45,1239,-1,-1
"{'cat': 'RB', 'resp': 'button'}",9,38,Right,57.42108215739067,24.554126650252428,2.8710541078695337,0.3856953194987319,Right,Correct,0.0,0.0,-45,45,958,-1,-1
"{'cat': 'RB', 'resp': 'button'}",9,39,Right,61.527175609796444,44.334326729769494,3.0763587804898225,0.6964019757804671,Right,Correct,0.0,0.0,-45,45,1473,-1,-1
"{'cat': 'RB', 'resp': 'button'}",9,40,Left,34.042542683659875,23.761446785174595,1.7021271341829936,0.37324393329484656,Right,Incorrect,0.0,0.0,-45,45,1199,-1,-1
"{'cat': 'RB', 'resp': 'button'}",9,41,Right,59.70360526904522,75.90658297627682,2.9851802634522606,1.1923378171868766,Left,Incorrect,0.0,0.0,-45,45,1657,-1,-1
"{'cat': 'RB', 'resp': 'button'}",9,42,Right,57.75873467902955,19.125064265905525,2.8879367339514777,0.3004158069860073,Right,Correct,0.0,0.0,-45,45,1498,-1,-1
"{'cat': 'RB', 'resp': 'button'}",9,43,Right,56.085709723220745,68.94618810194439,2.8042854861610373,1.0830041901704424,Right,Correct,0.0,0.0,-45,45,766,-1,-1
"{'cat': 'RB', 'resp': 'button'}",9,44,Right,62.30749750582325,83.69306563534833,3.1153748752911623,1.3146476007820935,Right,Correct,0.0,0.0,-45,45,495,-1,-1
"{'cat': 'RB', 'resp': 'button'}",9,45,Right,68.33416142807502,67.92113459814531,3.416708071403751,1.0669026873850842,Left,Incorrect,0.0,0.0,-45,45,253,-1,-1
"{'cat': 'RB', 'resp': 'button'}",9,46,Left,42.01115992221353,87.48214142369466,2.1005579961106764,1.3741662640849124,Right,Incorrect,0.0,0.0,-45,45,612,-1,-1
"{'cat': 'RB', 'resp': 'button'}",9,47,Right,62.9861061236839,33.76460208821909,3.1493053061841954,0.5303731293586584,Right,Correct,0.0,0.0,-45,45,1063,-1,-1
"{'cat': 'RB', 'resp': 'button'}",9,48,Left,37.8367944895177,88.53445369957069,1.891839724475885,1.3906959466607847,Right,Incorrect,0.0,0.0,-45,45,784,-1,-1
"{'cat': 'RB', 'resp': 'button'}",9,49,Right,65.11914181478589,76.60102769891448,3.2559570907392947,1.2032461293816898,Left,Incorrect,0.0,0.0,-45,45,815,-1,-1
"{'cat': 'RB', 'resp': 'button'}",9,50,Left,46.808790489347935,40.904970744633644,2.3404395244673966,0.6425337779332323,Right,Incorrect,0.0,0.0,-45,45,800,-1,-1
"{'cat': 'RB', 'resp': 'button'}",9,51,Left,45.45396215839055,26.385840874465117,2.2726981079195276,0.41446781925004444,Right,Incorrect,0.0,0.0,-45,45,1428,-1,-1
"{'cat': 'RB', 'resp': 'button'}",9,52,Left,48.13034180444102,31.425491011497392,2.4065170902220507,0.4936304584858614,Left,Correct,0.0,0.0,-45,45,456,-1,-1
"{'cat': 'RB', 'resp': 'button'}",9,53,Left,42.897542084640925,46.38632120862664,2.1448771042320462,0.7286346296803893,100,Incorrect,0.0,0.0,-45,45,1031,-1,-1
"{'cat': 'RB', 'resp': 'button'}",9,54,Left,43.470647490353485,45.89683615980826,2.1735323745176744,0.72094581651334,Right,Incorrect,0.0,0.0,-45,45,2119,-1,-1
"{'cat': 'RB', 'resp': 'button'}",9,55,Right,59.42445248461269,81.39582877234596,2.9712226242306343,1.2785626885202739,Right,Correct,0.0,0.0,-45,45,1935,-1,-1
"{'cat': 'RB', 'resp': 'button'}",9,56,Left,49.017456420004876,39.80635232911068,2.4508728210002437,0.6252767202167053,Right,Incorrect,0.0,0.0,-45,45,1977,-1,-1
"{'cat': 'RB', 'resp': 'button'}",9,57,Right,56.72173569991466,78.54617807613494,2.836086784995733,1.233800480057706,107,Incorrect,0.0,0.0,-45,45,1682,-1,-1
"{'cat': 'RB', 'resp': 'button'}",9,58,Left,38.30663626154954,72.58886016459526,1.9153318130774772,1.1402231491277461,Right,Incorrect,0.0,0.0,-45,45,973,-1,-1
"{'cat': 'RB', 'resp': 'button'}",9,59,Left,39.77102141645341,77.23405841201773,1.9885510708226704,1.2131897525705992,Right,Incorrect,0.0,0.0,-45,45,1956,-1,-1
"{'cat': 'RB', 'resp': 'button'}",9,60,Left,41.59938439502863,17.082977478295334,2.0799692197514315,0.26833878273626255,Left,Correct,0.0,0.0,-45,45,2128,-1,-1
"{'cat': 'RB', 'resp': 'button'}",9,61,Right,56.774262498754425,83.98791925744152,2.838713124937721,1.319279150647355,Right,Correct,0.0,0.0,-45,45,337,-1,-1
"{'cat': 'RB', 'resp': 'button'}",9,62,Left,37.909662796582175,57.22939483722067,1.8954831398291088,0.8989572319500104,Right,Incorrect,0.0,0.0,-45,45,1986,-1,-1
"{'cat': 'RB', 'resp': 'button'}",9,63,Right,62.679351149453936,17.16432703601565,3.133967557472697,0.2696166186007972,Right,Correct,0.0,0.0,-45,45,3001,-1,-1
"{'cat': 'RB', 'resp': 'button'}",9,64,Left,36.4979119707886,44.22807285786428,1.8248955985394302,0.6947329438635027,107,Correct,0.0,0.0,-45,45,2840,-1,-1
"{'cat': 'RB', 'resp': 'button'}",9,65,Left,31.83806517032924,51.04948250199588,1.591903258516462,0.8018833959891547,Right,Incorrect,0.0,0.0,-45,45,2262,-1,-1
"{'cat': 'RB', 'resp': 'button'}",9,66,Left,43.48491778890901,46.41930753890716,2.17424588944545,0.7291527777447804,Left,Correct,0.0,0.0,-45,45,1842,-1,-1
"{'cat': 'RB', 'resp': 'button'}",9,67,Right,55.385333355519734,14.19100987223014,2.7692666677759865,0.2229118618080922,Left,Incorrect,0.0,0.0,-45,45,2474,-1,-1
"{'cat': 'RB', 'resp': 'button'}",9,68,Right,62.91005199140839,80.09636623179053,3.145502599570419,1.2581507786651536,Right,Correct,0.0,0.0,-45,45,980,-1,-1
"{'cat': 'RB', 'resp': 'button'}",9,69,Left,37.65968113725764,45.331619073610376,1.8829840568628822,0.7120674072849266,Right,Incorrect,0.0,0.0,-45,45,243,-1,-1
"{'cat': 'RB', 'resp': 'button'}",9,70,Right,65.63880942630371,19.73108814664621,3.2819404713151856,0.3099352078441819,Right,Correct,0.0,0.0,-45,45,1188,-1,-1
"{'cat': 'RB', 'resp': 'button'}",9,71,Left,47.691816523272465,71.34304995538656,2.384590826163623,1.1206540081226601,Right,Incorrect,0.0,0.0,-45,45,570,-1,-1
"{'cat': 'RB', 'resp': 'button'}",9,72,Right,67.83890947399442,37.9523714266879,3.391945473699721,0.5961544563019694,Right,Correct,0.0,0.0,-45,45,276,-1,-1
"{'cat': 'RB', 'resp': 'button'}",9,73,Left,44.31561607679873,23.473317878584258,2.2157808038399365,0.3687180150136912,Left,Correct,0.0,0.0,-45,45,252,-1,-1
"{'cat': 'RB', 'resp': 'button'}",9,74,Right,59.98044501944598,16.143092241806755,2.999022250972299,0.25357509996541244,Right,Correct,0.0,0.0,-45,45,313,-1,-1
"{'cat': 'RB', 'resp': 'button'}",9,75,Left,47.7315285370213,71.87628206001853,2.386576426851065,1.1290299984355103,Left,Correct,0.0,0.0,-45,45,286,-1,-1
"{'cat': 'RB', 'resp': 'button'}",9,76,Right,53.84307292242614,28.573732206624104,2.692153646121307,0.44883513592986174,Right,Correct,0.0,0.0,-45,45,264,-1,-1
"{'cat': 'RB', 'resp': 'button'}",9,77,Left,39.76834480931398,23.413378217990623,1.988417240465699,0.3677764850267931,Left,Correct,0.0,0.0,-45,45,772,-1,-1
"{'cat': 'RB', 'resp': 'button'}",9,78,Left,37.282386720001874,34.584998772729435,1.8641193360000938,0.543259890344094,Right,Incorrect,0.0,0.0,-45,45,678,-1,-1
"{'cat': 'RB', 'resp': 'button'}",9,79,Left,38.65123000472094,40.960394724139306,1.9325615002360468,0.6434043757674708,Right,Incorrect,0.0,0.0,-45,45,277,-1,-1
"{'cat': 'RB', 'resp': 'button'}",9,80,Right,53.663395225199096,38.99207974628433,2.683169761259955,0.6124861563955711,Right,Correct,0.0,0.0,-45,45,365,-1,-1
"{'cat': 'RB', 'resp': 'button'}",9,81,Left,43.18720210045329,74.98047092546673,2.1593601050226647,1.1777904831107469,Right,Incorrect,0.0,0.0,-45,45,327,-1,-1
"{'cat': 'RB', 'resp': 'button'}",9,82,Left,36.64101346273109,33.04704883903456,1.8320506731365542,0.5191018292776703,Left,Correct,0.0,0.0,-45,45,365,-1,-1
"{'cat': 'RB', 'resp': 'button'}",9,83,Left,40.03057353106402,12.699258500853595,2.001528676553201,0.19947948606159693,Right,Incorrect,0.0,0.0,-45,45,608,-1,-1
"{'cat': 'RB', 'resp': 'button'}",9,84,Left,46.990425537517915,45.9360303855258,2.3495212768758957,0.7215614779712268,Right,Incorrect,0.0,0.0,-45,45,341,-1,-1
"{'cat': 'RB', 'resp': 'button'}",9,85,Left,40.45439033915634,40.73030525665436,2.022719516957817,0.6397901388638754,Left,Correct,0.0,0.0,-45,45,374,-1,-1
"{'cat': 'RB', 'resp': 'button'}",9,86,Left,41.30017696962778,69.35379810878601,2.065008848481389,1.089406913185559,Left,Correct,0.0,0.0,-45,45,269,-1,-1
"{'cat': 'RB', 'resp': 'button'}",9,87,Right,64.81829746821273,46.89515344980199,3.2409148734106368,0.7366273478343199,Left,Incorrect,0.0,0.0,-45,45,806,-1,-1
"{'cat': 'RB', 'resp': 'button'}",9,88,Left,46.854078746603996,30.391091677811573,2.3427039373302,0.4773821517479337,Right,Incorrect,0.0,0.0,-45,45,225,-1,-1
"{'cat': 'RB', 'resp': 'button'}",9,89,Right,56.5229755770757,16.186684054216677,2.8261487788537853,0.25425983855353085,Left,Incorrect,0.0,0.0,-45,45,633,-1,-1
"{'cat': 'RB', 'resp': 'button'}",9,90,Right,61.60864647347195,84.19962917412576,3.0804323236735973,1.3226046822420916,Left,Incorrect,0.0,0.0,-45,45,261,-1,-1
"{'cat': 'RB', 'resp': 'button'}",9,91,Left,31.88934060947176,51.51690985436602,1.594467030473588,0.8092257276706195,Right,Incorrect,0.0,0.0,-45,45,1140,-1,-1
"{'cat': 'RB', 'resp': 'button'}",9,92,Right,52.985661356756516,69.36405112823188,2.649283067837826,1.0895679672384004,Right,Correct,0.0,0.0,-45,45,2338,-1,-1
"{'cat': 'RB', 'resp': 'button'}",9,93,Right,56.25655293509151,82.49773355325127,2.8128276467545756,1.295871368343512,Left,Incorrect,0.0,0.0,-45,45,1169,-1,-1
"{'cat': 'RB', 'resp': 'button'}",9,94,Left,39.88758222819742,10.575534445692838,1.9943791114098708,0.1661201066118721,Left,Correct,0.0,0.0,-45,45,2422,-1,-1
"{'cat': 'RB', 'resp': 'button'}",9,95,Right,50.560561194874715,53.70183518595349,2.5280280597437357,0.8435464545224067,Right,Correct,0.0,0.0,-45,45,1069,-1,-1
"{'cat': 'RB', 'resp': 'button'}",9,96,Left,45.63083037314946,44.07845282435215,2.281541518657473,0.6923827178729449,Right,Incorrect,0.0,0.0,-45,45,980,-1,-1
"{'cat': 'RB', 'resp': 'button'}",9,97,Right,54.79217063538276,20.390149110879214,2.739608531769138,0.3202877132616929,Left,Incorrect,0.0,0.0,-45,45,2600,-1,-1
"{'cat': 'RB', 'resp': 'button'}",9,98,Left,30.87895839629637,60.28931289350759,1.5439479198148183,0.9470223123810992,Right,Incorrect,0.0,0.0,-45,45,2167,-1,-1
"{'cat': 'RB', 'resp': 'button'}",9,99,Left,39.88569682125215,76.08730953178399,1.9942848410626073,1.195176663282326,Left,Correct,0.0,0.0,-45,45,2450,-1,-1
"{'cat': 'RB', 'resp': 'button'}",9,100,Right,64.76576424086839,64.87781733092396,3.23828821204342,1.0190983715388564,Left,Incorrect,0.0,0.0,-45,45,3260,-1,-1
"{'cat': 'RB', 'resp': 'button'}",9,101,Left,40.00874921638929,83.19337999270738,2.000437460819464,1.3067985570619678,Left,Correct,0.0,0.0,-45,45,3217,-1,-1
"{'cat': 'RB', 'resp': 'button'}",9,102,Left,41.8505224366498,58.80392749300689,2.0925261218324898,0.9236899330712866,Right,Incorrect,0.0,0.0,-45,45,765,-1,-1
"{'cat': 'RB', 'resp': 'button'}",9,103,Left,47.312149970682725,35.19655882873941,2.3656074985341364,0.5528662532400436,Right,Incorrect,0.0,0.0,-45,45,1420,-1,-1
"{'cat': 'RB', 'resp': 'button'}",9,104,Left,46.88463470958597,76.954387042072,2.344231735479298,1.208796684964395,Right,Incorrect,0.0,0.0,-45,45,1712,-1,-1
"{'cat': 'RB', 'resp': 'button'}",9,105,Right,59.4087952234179,24.320157635406844,2.9704397611708946,0.3820201428076993,Left,Incorrect,0.0,0.0,-45,45,510,-1,-1
"{'cat': 'RB', 'resp': 'button'}",9,106,Right,59.1988644339469,27.73145454232482,2.9599432216973454,0.4356046693176348,Right,Correct,0.0,0.0,-45,45,3121,-1,-1
"{'cat': 'RB', 'resp': 'button'}",9,107,Right,62.37785063812015,75.83219158421865,3.1188925319060075,1.1911692799329752,Left,Incorrect,0.0,0.0,-45,45,786,-1,-1
"{'cat': 'RB', 'resp': 'button'}",9,108,Right,60.28759788620563,45.25447554234351,3.0143798943102813,0.7108556395294268,Right,Correct,0.0,0.0,-45,45,824,-1,-1
"{'cat': 'RB', 'resp': 'button'}",9,109,Left,47.78483847916974,36.81529437948911,2.3892419239584872,0.5782932918117429,Right,Incorrect,0.0,0.0,-45,45,1280,-1,-1
"{'cat': 'RB', 'resp': 'button'}",9,110,Left,33.32130851800496,41.38359212461806,1.666065425900248,0.6500519449892826,Left,Correct,0.0,0.0,-45,45,1808,-1,-1
"{'cat': 'RB', 'resp': 'button'}",9,111,Left,39.13143924892765,51.84802809607561,1.9565719624463824,0.8144269208487416,Left,Correct,0.0,0.0,-45,45,1157,-1,-1
"{'cat': 'RB', 'resp': 'button'}",9,112,Left,33.46842807295225,58.68394640135298,1.6734214036476123,0.9218052744907386,Right,Incorrect,0.0,0.0,-45,45,1321,-1,-1
"{'cat': 'RB', 'resp': 'button'}",9,113,Left,32.01891206867143,42.97057255495504,1.6009456034335716,0.6749801752959697,Right,Incorrect,0.0,0.0,-45,45,757,-1,-1
"{'cat': 'RB', 'resp': 'button'}",9,114,Right,58.9635214449462,39.412781744217874,2.9481760722473105,0.619094527925864,Left,Incorrect,0.0,0.0,-45,45,542,-1,-1
"{'cat': 'RB', 'resp': 'button'}",9,115,Left,34.687639856287554,34.48625598749595,1.7343819928143775,0.5417088423006715,Right,Incorrect,0.0,0.0,-45,45,749,-1,-1
"{'cat': 'RB', 'resp': 'button'}",9,116,Right,57.091079140998346,73.28056099501423,2.854553957049917,1.1510883603643771,Right,Correct,0.0,0.0,-45,45,443,-1,-1
"{'cat': 'RB', 'resp': 'button'}",9,117,Left,45.5227754609105,21.950249165637455,2.2761387730455254,0.34479370761616057,Right,Incorrect,0.0,0.0,-45,45,2290,-1,-1
"{'cat': 'RB', 'resp': 'button'}",9,118,Left,43.92727350758539,20.79229461990177,2.1963636753792697,0.3266046001457899,Left,Correct,0.0,0.0,-45,45,2920,-1,-1
"{'cat': 'RB', 'resp': 'button'}",9,119,Left,44.88991662744232,27.088452415180416,2.2444958313721157,0.4255044155232375,Left,Correct,0.0,0.0,-45,45,1794,-1,-1
"{'cat': 'RB', 'resp': 'button'}",9,120,Left,42.77590285920342,87.28416191509532,2.1387951429601713,1.3710564092360276,Left,Correct,0.0,0.0,-45,45,345,-1,-1
"{'cat': 'RB', 'resp': 'button'}",9,121,Left,31.24398007907384,57.248571280504265,1.562199003953692,0.8992584548167192,Right,Incorrect,0.0,0.0,-45,45,285,-1,-1
"{'cat': 'RB', 'resp': 'button'}",9,122,Left,47.80290769734393,42.8430714138526,2.3901453848671967,0.6729773920549109,Left,Correct,0.0,0.0,-45,45,410,-1,-1
"{'cat': 'RB', 'resp': 'button'}",9,123,Right,54.67122071995093,36.49676162297504,2.7335610359975466,0.5732897909727814,Left,Incorrect,0.0,0.0,-45,45,1245,-1,-1
"{'cat': 'RB', 'resp': 'button'}",9,124,Left,34.28236034676312,22.140739724532484,1.7141180173381558,0.3477859263181748,Right,Incorrect,0.0,0.0,-45,45,2805,-1,-1
"{'cat': 'RB', 'resp': 'button'}",9,125,Right,67.12022647856426,76.09393729277713,3.356011323928213,1.195280771908555,Right,Correct,0.0,0.0,-45,45,371,-1,-1
"{'cat': 'RB', 'resp': 'button'}",9,126,Right,66.0130475018093,51.35311043675109,3.300652375090465,0.8066527724354128,Right,Correct,0.0,0.0,-45,45,361,-1,-1
"{'cat': 'RB', 'resp': 'button'}",9,127,Left,36.989350358993335,56.73496289312851,1.8494675179496667,0.8911907131337102,Left,Correct,0.0,0.0,-45,45,511,-1,-1
"{'cat': 'RB', 'resp': 'button'}",9,128,Right,56.959149192728844,69.04332243883769,2.847957459636442,1.084529972766419,Left,Incorrect,0.0,0.0,-45,45,323,-1,-1
"{'cat': 'RB', 'resp': 'button'}",9,129,Right,58.49876933308018,87.12560642768972,2.924938466654009,1.3685658254639284,Right,Correct,0.0,0.0,-45,45,199,-1,-1
"{'cat': 'RB', 'resp': 'button'}",9,130,Left,32.89987363066455,30.674576845705833,1.6449936815332276,0.48183512635222514,Left,Correct,0.0,0.0,-45,45,1099,-1,-1
"{'cat': 'RB', 'resp': 'button'}",9,131,Left,44.836426792347886,79.70873163163037,2.241821339617394,1.2520618286044514,Left,Correct,0.0,0.0,-45,45,423,-1,-1
"{'cat': 'RB', 'resp': 'button'}",9,132,Right,61.39591394168073,21.745303865195904,3.0697956970840368,0.3415744343648859,Left,Incorrect,0.0,0.0,-45,45,234,-1,-1
"{'cat': 'RB', 'resp': 'button'}",9,133,Right,63.556429572356805,32.5266624966808,3.1778214786178403,0.5109276197268352,Right,Correct,0.0,0.0,-45,45,214,-1,-1
"{'cat': 'RB', 'resp': 'button'}",9,134,Right,66.44375565871208,40.200137833753104,3.322187782935604,0.6314622884590793,Left,Incorrect,0.0,0.0,-45,45,288,-1,-1
"{'cat': 'RB', 'resp': 'button'}",9,135,Right,61.40464299512581,32.15493184609929,3.0702321497562908,0.50508848832193,Right,Correct,0.0,0.0,-45,45,348,-1,-1
"{'cat': 'RB', 'resp': 'button'}",9,136,Right,52.118237651613256,72.3435842497447,2.6059118825806626,1.1363703640667613,Right,Correct,0.0,0.0,-45,45,275,-1,-1
"{'cat': 'RB', 'resp': 'button'}",9,137,Left,38.92245354238115,75.06722430532278,1.9461226771190576,1.179153202014896,Right,Incorrect,0.0,0.0,-45,45,1230,-1,-1
"{'cat': 'RB', 'resp': 'button'}",9,138,Right,58.70308359637185,24.71629252346394,2.9351541798185923,0.3882426150784532,Left,Incorrect,0.0,0.0,-45,45,1209,-1,-1
"{'cat': 'RB', 'resp': 'button'}",9,139,Left,38.371918914961256,57.598569246709715,1.918595945748063,0.9047562100137311,Right,Incorrect,0.0,0.0,-45,45,1110,-1,-1
"{'cat': 'RB', 'resp': 'button'}",9,140,Right,67.00073688856506,54.14671542401813,3.3500368444282524,0.8505346169605625,Right,Correct,0.0,0.0,-45,45,1653,-1,-1
"{'cat': 'RB', 'resp': 'button'}",9,141,Left,37.04501815674408,53.033997364900685,1.8522509078372038,0.8330560825603622,Left,Correct,0.0,0.0,-45,45,320,-1,-1
"{'cat': 'RB', 'resp': 'button'}",9,142,Right,53.40898159807285,31.175108861681842,2.6704490799036424,0.48969746487360866,Right,Correct,0.0,0.0,-45,45,1740,-1,-1
"{'cat': 'RB', 'resp': 'button'}",9,143,Left,44.64758893519327,14.926904741652436,2.2323794467596634,0.23447127138604967,Left,Correct,0.0,0.0,-45,45,879,-1,-1
"{'cat': 'RB', 'resp': 'button'}",9,144,Right,64.24090779528612,17.989899801036948,3.2120453897643064,0.2825846852687708,Right,Correct,0.0,0.0,-45,45,605,-1,-1
"{'cat': 'RB', 'resp': 'button'}",9,145,Right,64.89009675493868,51.5133339278681,3.244504837746934,0.8091695571485416,Left,Incorrect,0.0,0.0,-45,45,386,-1,-1
"{'cat': 'RB', 'resp': 'button'}",9,146,Right,61.07446292021073,21.289357119875053,3.0537231460105363,0.3344124396372451,Right,Correct,0.0,0.0,-45,45,334,-1,-1
"{'cat': 'RB', 'resp': 'button'}",9,147,Left,41.50696892858658,52.63187134662922,2.075348446429329,0.8267395018362672,Right,Incorrect,0.0,0.0,-45,45,855,-1,-1
"{'cat': 'RB', 'resp': 'button'}",9,148,Left,47.55241240488301,72.44404185025093,2.37762062024415,1.1379483483654993,Left,Correct,0.0,0.0,-45,45,851,-1,-1
"{'cat': 'RB', 'resp': 'button'}",9,149,Left,40.288421521732324,63.78459014853766,2.014421076086616,1.001925999114409,Left,Correct,0.0,0.0,-45,45,782,-1,-1
"{'cat': 'RB', 'resp': 'button'}",9,150,Left,33.471629162094075,52.714108407527206,1.6735814581047037,0.8280312785681171,Left,Correct,0.0,0.0,-45,45,289,-1,-1
"{'cat': 'RB', 'resp': 'button'}",9,151,Left,33.81466669107409,22.28442218272518,1.6907333345537043,0.3500428850937143,Left,Correct,0.0,0.0,-45,45,918,-1,-1
"{'cat': 'RB', 'resp': 'button'}",9,152,Left,44.155923653438236,75.26219048373856,2.207796182671912,1.1822157235839434,Left,Correct,0.0,0.0,-45,45,593,-1,-1
"{'cat': 'RB', 'resp': 'button'}",9,153,Left,40.00527055864458,10.297458718656294,2.000263527932229,0.1617521033058739,Right,Incorrect,0.0,0.0,-45,45,274,-1,-1
"{'cat': 'RB', 'resp': 'button'}",9,154,Left,37.58491083025497,63.91053351782224,1.8792455415127483,1.0039043129329728,Left,Correct,0.0,0.0,-45,45,661,-1,-1
"{'cat': 'RB', 'resp': 'button'}",9,155,Left,39.894299346670095,84.26080289937526,1.9947149673335047,1.3235655968712743,Left,Correct,0.0,0.0,-45,45,426,-1,-1
"{'cat': 'RB', 'resp': 'button'}",9,156,Left,31.419947976441307,44.36796974799329,1.5709973988220653,0.6969304390749496,Left,Correct,0.0,0.0,-45,45,332,-1,-1
"{'cat': 'RB', 'resp': 'button'}",9,157,Left,47.37817906808516,65.82887853370856,2.368908953404258,1.0340376059777685,Left,Correct,0.0,0.0,-45,45,369,-1,-1
"{'cat': 'RB', 'resp': 'button'}",9,158,Left,37.420756686481184,19.624286554080857,1.8710378343240592,0.3082575723512069,Left,Correct,0.0,0.0,-45,45,420,-1,-1
"{'cat': 'RB', 'resp': 'button'}",9,159,Right,58.741515553369524,61.04745009822628,2.9370757776684764,0.958931103744886,Left,Incorrect,0.0,0.0,-45,45,988,-1,-1
"{'cat': 'RB', 'resp': 'button'}",9,160,Left,40.551302988508304,65.14845999076866,2.027565149425415,1.0233496164984368,Right,Incorrect,0.0,0.0,-45,45,237,-1,-1
"{'cat': 'RB', 'resp': 'button'}",9,161,Right,60.70423073922741,59.16093384210104,3.0352115369613704,0.929297775689282,Right,Correct,0.0,0.0,-45,45,257,-1,-1
"{'cat': 'RB', 'resp': 'button'}",9,162,Left,40.57502541925018,75.26201055329012,2.028751270962509,1.1822128972430688,Left,Correct,0.0,0.0,-45,45,242,-1,-1
"{'cat': 'RB', 'resp': 'button'}",9,163,Right,56.32036813721468,83.91406466133606,2.8160184068607337,1.318119045364561,Right,Correct,0.0,0.0,-45,45,352,-1,-1
"{'cat': 'RB', 'resp': 'button'}",9,164,Left,31.43943810304099,37.695527684912044,1.5719719051520498,0.5921199642405517,Left,Correct,0.0,0.0,-45,45,235,-1,-1
"{'cat': 'RB', 'resp': 'button'}",9,165,Right,63.90723337389054,22.21243622419656,3.195361668694527,0.34891213230133855,Right,Correct,0.0,0.0,-45,45,303,-1,-1
"{'cat': 'RB', 'resp': 'button'}",9,166,Left,38.42955446565881,77.14037789721232,1.9214777232829405,1.2117182224851133,Left,Correct,0.0,0.0,-45,45,464,-1,-1
"{'cat': 'RB', 'resp': 'button'}",9,167,Right,58.58238553499583,12.610553211256885,2.9291192767497916,0.198086106630939,Right,Correct,0.0,0.0,-45,45,383,-1,-1
"{'cat': 'RB', 'resp': 'button'}",9,168,Left,31.08828211791759,58.62664304575352,1.5544141058958794,0.9209051554858518,Left,Correct,0.0,0.0,-45,45,271,-1,-1
"{'cat': 'RB', 'resp': 'button'}",9,169,Right,59.669530521484866,28.25332288135192,2.9834765260742433,0.443802158017778,Right,Correct,0.0,0.0,-45,45,271,-1,-1
"{'cat': 'RB', 'resp': 'button'}",9,170,Left,37.12150516046898,14.00087745112777,1.856075258023449,0.21992526872136994,Left,Correct,0.0,0.0,-45,45,319,-1,-1
"{'cat': 'RB', 'resp': 'button'}",9,171,Right,54.698237938310456,82.69344146119333,2.7349118969155226,1.2989455409727129,Right,Correct,0.0,0.0,-45,45,658,-1,-1
"{'cat': 'RB', 'resp': 'button'}",9,172,Right,59.014464719968885,65.80602349720198,2.9507232359984443,1.0336785999038351,Left,Incorrect,0.0,0.0,-45,45,627,-1,-1
"{'cat': 'RB', 'resp': 'button'}",9,173,Right,63.30607874350255,66.09982567560306,3.1653039371751275,1.0382936337302027,Left,Incorrect,0.0,0.0,-45,45,315,-1,-1
"{'cat': 'RB', 'resp': 'button'}",9,174,Right,55.12679006120891,60.371654890023095,2.7563395030604454,0.9483157374377743,Right,Correct,0.0,0.0,-45,45,131,-1,-1
"{'cat': 'RB', 'resp': 'button'}",9,175,Right,64.28470372193887,38.724834476470576,3.214235186096943,0.6082882775138035,Right,Correct,0.0,0.0,-45,45,307,-1,-1
"{'cat': 'RB', 'resp': 'button'}",9,176,Left,35.46606340236603,63.66785793736537,1.7733031701183017,1.0000923738291283,Right,Incorrect,0.0,0.0,-45,45,282,-1,-1
"{'cat': 'RB', 'resp': 'button'}",9,177,Right,56.995816046186675,57.22547744082322,2.849790802309334,0.8988956976312933,Left,Incorrect,0.0,0.0,-45,45,570,-1,-1
"{'cat': 'RB', 'resp': 'button'}",9,178,Left,39.261570920124974,43.91270099946339,1.9630785460062485,0.6897790942959967,Left,Correct,0.0,0.0,-45,45,276,-1,-1
"{'cat': 'RB', 'resp': 'button'}",9,179,Left,48.54451264311215,66.94960603513235,2.4272256321556074,1.0516419524035132,Right,Incorrect,0.0,0.0,-45,45,222,-1,-1
"{'cat': 'RB', 'resp': 'button'}",9,180,Right,68.77196615955238,42.28286273762445,3.4385983079776192,0.664177654746333,Left,Incorrect,0.0,0.0,-45,45,657,-1,-1
"{'cat': 'RB', 'resp': 'button'}",9,181,Left,41.91446401440955,20.386413626701145,2.0957232007204776,0.3202290364134358,Left,Correct,0.0,0.0,-45,45,338,-1,-1
"{'cat': 'RB', 'resp': 'button'}",9,182,Right,58.780727063355286,46.7331524176246,2.9390363531677646,0.7340826415715076,Right,Correct,0.0,0.0,-45,45,307,-1,-1
"{'cat': 'RB', 'resp': 'button'}",9,183,Right,52.225732862633855,46.337430402847644,2.611286643131693,0.7278666546990724,Left,Incorrect,0.0,0.0,-45,45,304,-1,-1
"{'cat': 'RB', 'resp': 'button'}",9,184,Right,50.75435051650176,41.91093285609652,2.5377175258250877,0.6583353938290396,Left,Incorrect,0.0,0.0,-45,45,828,-1,-1
"{'cat': 'RB', 'resp': 'button'}",9,185,Left,32.81550943712505,76.23389652376076,1.6407754718562526,1.1974792463678563,100,Incorrect,0.0,0.0,-45,45,966,-1,-1
"{'cat': 'RB', 'resp': 'button'}",9,186,Right,66.57138600018146,35.626085190554214,3.328569300009073,0.5596132375540462,Right,Correct,0.0,0.0,-45,45,1021,-1,-1
"{'cat': 'RB', 'resp': 'button'}",9,187,Left,38.17796281252478,20.541291828918297,1.908898140626239,0.32266185752486887,Left,Correct,0.0,0.0,-45,45,1681,-1,-1
"{'cat': 'RB', 'resp': 'button'}",9,188,Right,53.400985048372696,68.6062823960469,2.6700492524186346,1.0776649638276383,Right,Correct,0.0,0.0,-45,45,1743,-1,-1
"{'cat': 'RB', 'resp': 'button'}",9,189,Right,67.77757634800449,33.10876263236672,3.388878817400224,0.5200712272764577,Left,Incorrect,0.0,0.0,-45,45,898,-1,-1
"{'cat': 'RB', 'resp': 'button'}",9,190,Right,51.43385062746746,48.31965082135069,2.571692531373373,0.7590033002218968,Left,Incorrect,0.0,0.0,-45,45,599,-1,-1
"{'cat': 'RB', 'resp': 'button'}",9,191,Right,55.93596830324734,37.249423674751796,2.796798415162367,0.5851125788352698,Left,Incorrect,0.0,0.0,-45,45,1914,-1,-1
"{'cat': 'RB', 'resp': 'button'}",9,192,Right,67.7851381189382,48.99481113471254,3.3892569059469104,0.7696086936241616,Right,Correct,0.0,0.0,-45,45,455,-1,-1
"{'cat': 'RB', 'resp': 'button'}",9,193,Left,44.299257968790855,43.62182094273501,2.214962898439543,0.6852099610495286,Right,Incorrect,0.0,0.0,-45,45,229,-1,-1
"{'cat': 'RB', 'resp': 'button'}",9,194,Right,59.50826978192825,41.58432518529448,2.9754134890964123,0.6532050525330508,Right,Correct,0.0,0.0,-45,45,1492,-1,-1
"{'cat': 'RB', 'resp': 'button'}",9,195,Right,64.54849507744368,48.50943467774117,3.227424753872184,0.7619844180669281,Left,Incorrect,0.0,0.0,-45,45,331,-1,-1
"{'cat': 'RB', 'resp': 'button'}",9,196,Left,38.318019949249596,48.16025274087597,1.9159009974624797,0.7564994810288183,Left,Correct,0.0,0.0,-45,45,751,-1,-1
"{'cat': 'RB', 'resp': 'button'}",9,197,Right,59.69930123565917,54.53289210574721,2.9849650617829586,0.8566006660921013,Left,Incorrect,0.0,0.0,-45,45,275,-1,-1
"{'cat': 'RB', 'resp': 'button'}",9,198,Left,31.659360189227474,46.031320612522315,1.5829680094613738,0.7230582933566827,Right,Incorrect,0.0,0.0,-45,45,1203,-1,-1
"{'cat': 'RB', 'resp': 'button'}",9,199,Right,60.886184168386954,73.21179800202923,3.0443092084193477,1.1500082337963744,Right,Correct,0.0,0.0,-45,45,388,-1,-1
"{'cat': 'RB', 'resp': 'button'}",9,200,Left,36.931285535151524,84.91419029738906,1.846564276757576,1.3338289821190157,Left,Correct,0.0,0.0,-45,45,247,-1,-1
"{'cat': 'RB', 'resp': 'button'}",9,201,Right,60.40004649612642,40.10647724786415,3.0200023248063212,0.6299910714162809,Right,Correct,0.0,0.0,-45,45,415,-1,-1
"{'cat': 'RB', 'resp': 'button'}",9,202,Left,41.180715105181726,21.140447653195814,2.059035755259086,0.3320733752043977,Left,Correct,0.0,0.0,-45,45,360,-1,-1
"{'cat': 'RB', 'resp': 'button'}",9,203,Right,57.05838506561629,74.82945581182965,2.8529192532808145,1.1754183432528305,Right,Correct,0.0,0.0,-45,45,394,-1,-1
"{'cat': 'RB', 'resp': 'button'}",9,204,Left,42.43266800921768,86.368313759725,2.121633400460884,1.3566703000524518,Left,Correct,0.0,0.0,-45,45,584,-1,-1
"{'cat': 'RB', 'resp': 'button'}",9,205,Left,35.578266459847434,23.476587444629715,1.7789133229923717,0.3687693732370354,Right,Incorrect,0.0,0.0,-45,45,341,-1,-1
"{'cat': 'RB', 'resp': 'button'}",9,206,Left,48.28724607428349,55.93708072390149,2.4143623037141744,0.8786576093273407,Left,Correct,0.0,0.0,-45,45,620,-1,-1
"{'cat': 'RB', 'resp': 'button'}",9,207,Left,46.62505781983596,68.99146475029694,2.3312528909917978,1.0837153940996602,Left,Correct,0.0,0.0,-45,45,295,-1,-1
"{'cat': 'RB', 'resp': 'button'}",9,208,Left,33.54826704912856,67.89340302017933,1.677413352456428,1.0664670807770325,Left,Correct,0.0,0.0,-45,45,381,-1,-1
"{'cat': 'RB', 'resp': 'button'}",9,209,Right,67.19269138547013,43.80418939565253,3.3596345692735063,0.6880745980091895,Left,Incorrect,0.0,0.0,-45,45,287,-1,-1
"{'cat': 'RB', 'resp': 'button'}",9,210,Right,61.537170565366814,74.52632691481985,3.0768585282683407,1.1706568056731466,Left,Incorrect,0.0,0.0,-45,45,568,-1,-1
"{'cat': 'RB', 'resp': 'button'}",9,211,Left,36.466794121892164,33.50470067408392,1.8233397060946084,0.5262906074921352,Right,Incorrect,0.0,0.0,-45,45,293,-1,-1
"{'cat': 'RB', 'resp': 'button'}",9,212,Right,57.90149148595131,39.38039799199001,2.895074574297565,0.6185858451353903,Right,Correct,0.0,0.0,-45,45,1921,-1,-1
"{'cat': 'RB', 'resp': 'button'}",9,213,Right,55.14172814577363,44.670965761202076,2.7570864072886816,0.701689889320768,Left,Incorrect,0.0,0.0,-45,45,830,-1,-1
"{'cat': 'RB', 'resp': 'button'}",9,214,Right,55.74921016746774,16.08832196803464,2.7874605083733868,0.25271477051682456,Right,Correct,0.0,0.0,-45,45,711,-1,-1
"{'cat': 'RB', 'resp': 'button'}",9,215,Right,58.29343208593782,42.47994708451211,2.914671604296891,0.6672734484279319,Right,Correct,0.0,0.0,-45,45,1960,-1,-1
"{'cat': 'RB', 'resp': 'button'}",9,216,Right,63.762647666645556,31.655331083319922,3.188132383332278,0.49724077789155235,Right,Correct,0.0,0.0,-45,45,1013,-1,-1
"{'cat': 'RB', 'resp': 'button'}",9,217,Right,54.86056082401335,32.81850366264485,2.7430280412006676,0.5155118500418739,Right,Correct,0.0,0.0,-45,45,274,-1,-1
"{'cat': 'RB', 'resp': 'button'}",9,218,Left,46.73950156984884,63.5899889438217,2.336975078492442,0.9988692105388322,Right,Incorrect,0.0,0.0,-45,45,759,-1,-1
"{'cat': 'RB', 'resp': 'button'}",9,219,Right,68.512569033723,47.842681502210866,3.42562845168615,0.7515110836769097,Right,Correct,0.0,0.0,-45,45,311,-1,-1
"{'cat': 'RB', 'resp': 'button'}",9,220,Right,62.3268995905607,39.706270001923286,3.116344979528035,0.6237046306974748,Left,Incorrect,0.0,0.0,-45,45,373,-1,-1
"{'cat': 'RB', 'resp': 'button'}",9,221,Left,45.32965163844823,33.2900164656244,2.266482581922412,0.5229183558314443,Right,Incorrect,0.0,0.0,-45,45,1855,-1,-1
"{'cat': 'RB', 'resp': 'button'}",9,222,Right,62.596163229929005,34.24438958155666,3.12980816149645,0.5379096136804263,Left,Incorrect,0.0,0.0,-45,45,419,-1,-1
"{'cat': 'RB', 'resp': 'button'}",9,223,Right,59.05082929887942,52.32115746726844,2.952541464943971,0.8218588196324266,Left,Incorrect,0.0,0.0,-45,45,919,-1,-1
"{'cat': 'RB', 'resp': 'button'}",9,224,Left,32.11959329306967,43.504825668908154,1.6059796646534834,0.6833722035857325,Right,Incorrect,0.0,0.0,-45,45,1524,-1,-1
"{'cat': 'RB', 'resp': 'button'}",9,225,Right,59.47537545099553,85.21493117263569,2.973768772549777,1.3385530087405604,107,Incorrect,0.0,0.0,-45,45,2111,-1,-1
"{'cat': 'RB', 'resp': 'button'}",9,226,Right,61.46853107128722,86.3253149056494,3.0734265535643606,1.355994875632068,Right,Correct,0.0,0.0,-45,45,1544,-1,-1
"{'cat': 'RB', 'resp': 'button'}",9,227,Left,33.57336899698039,51.780764385564034,1.6786684498490194,0.8133703449547599,Left,Correct,0.0,0.0,-45,45,2070,-1,-1
"{'cat': 'RB', 'resp': 'button'}",9,228,Right,61.06916063066821,89.71307929325093,3.05345803153341,1.4092097541929787,Right,Correct,0.0,0.0,-45,45,976,-1,-1
"{'cat': 'RB', 'resp': 'button'}",9,229,Left,43.82489954576068,49.22780993290691,2.191244977288034,0.7732686301876749,Left,Correct,0.0,0.0,-45,45,1751,-1,-1
"{'cat': 'RB', 'resp': 'button'}",9,230,Right,65.1778121527254,80.48380636919488,3.2588906076362694,1.2642366741120301,Right,Correct,0.0,0.0,-45,45,331,-1,-1
"{'cat': 'RB', 'resp': 'button'}",9,231,Left,42.68655973657288,23.789074195888595,2.134327986828644,0.37367790364753056,Left,Correct,0.0,0.0,-45,45,1493,-1,-1
"{'cat': 'RB', 'resp': 'button'}",9,232,Left,45.53614760325957,78.39084557262355,2.2768073801629787,1.2313605227982305,Right,Incorrect,0.0,0.0,-45,45,2088,-1,-1
"{'cat': 'RB', 'resp': 'button'}",9,233,Right,59.345921092030345,48.223224666045134,2.9672960546015172,0.7574886417162876,Right,Correct,0.0,0.0,-45,45,1276,-1,-1
"{'cat': 'RB', 'resp': 'button'}",9,234,Left,39.475651936571474,56.30267138006802,1.9737825968285736,0.8844002939255099,Left,Correct,0.0,0.0,-45,45,1343,-1,-1
"{'cat': 'RB', 'resp': 'button'}",9,235,Right,66.37410216080843,30.1421476961859,3.3187051080404215,0.4734717488287806,Left,Incorrect,0.0,0.0,-45,45,1038,-1,-1
"{'cat': 'RB', 'resp': 'button'}",9,236,Right,68.32255984463919,46.24226701798723,3.416127992231959,0.7263718317452312,Right,Correct,0.0,0.0,-45,45,819,-1,-1
"{'cat': 'RB', 'resp': 'button'}",9,237,Left,33.9573345985297,40.626019482217515,1.6978667299264851,0.6381520217496518,Left,Correct,0.0,0.0,-45,45,977,-1,-1
"{'cat': 'RB', 'resp': 'button'}",9,238,Right,62.23523363510341,46.04342339898503,3.111761681755171,0.7232484034818787,Right,Correct,0.0,0.0,-45,45,501,-1,-1
"{'cat': 'RB', 'resp': 'button'}",9,239,Right,51.239240915823245,62.51726289075191,2.5619620457911623,0.98201886910064,Left,Incorrect,0.0,0.0,-45,45,1269,-1,-1
"{'cat': 'RB', 'resp': 'button'}",9,240,Left,32.25373632461373,65.4565450116747,1.6126868162306867,1.0281890046902344,100,Incorrect,0.0,0.0,-45,45,1477,-1,-1
"{'cat': 'RB', 'resp': 'button'}",9,241,Right,57.75630485009799,42.17778850051368,2.8878152425048995,0.6625271524893891,Right,Correct,0.0,0.0,-45,45,1239,-1,-1
"{'cat': 'RB', 'resp': 'button'}",9,242,Right,62.6567998886506,75.64462054686489,3.1328399944325303,1.1882229209680912,Left,Incorrect,0.0,0.0,-45,45,445,-1,-1
"{'cat': 'RB', 'resp': 'button'}",9,243,Right,56.72200526816176,69.0648583548341,2.8361002634080883,1.0848682581438323,Right,Correct,0.0,0.0,-45,45,2014,-1,-1
"{'cat': 'RB', 'resp': 'button'}",9,244,Left,37.04366746835723,83.7248945983967,1.8521833734178614,1.3151475689645142,Left,Correct,0.0,0.0,-45,45,2986,-1,-1
"{'cat': 'RB', 'resp': 'button'}",9,245,Left,43.68082944333702,64.07093437598617,2.184041472166851,1.0064238837211594,Left,Correct,0.0,0.0,-45,45,570,-1,-1
"{'cat': 'RB', 'resp': 'button'}",9,246,Left,40.83475114644843,53.27639466151745,2.041737557322422,0.8368636503918684,Right,Incorrect,0.0,0.0,-45,45,2975,-1,-1
"{'cat': 'RB', 'resp': 'button'}",9,247,Left,41.365196581692935,50.608723416776165,2.068259829084647,0.7949599684685086,Right,Incorrect,0.0,0.0,-45,45,1887,-1,-1
"{'cat': 'RB', 'resp': 'button'}",9,248,Left,41.13015502670976,67.4572122308599,2.056507751335488,1.0596154118805847,Right,Incorrect,0.0,0.0,-45,45,549,-1,-1
"{'cat': 'RB', 'resp': 'button'}",9,249,Right,62.189194200667856,18.537246792550327,3.109459710033393,0.2911823917062853,Left,Incorrect,0.0,0.0,-45,45,1821,-1,-1
"{'cat': 'RB', 'resp': 'button'}",9,250,Left,34.64246834046456,64.73279867085033,1.7321234170232283,1.0168204237532525,Left,Correct,0.0,0.0,-45,45,2233,-1,-1
"{'cat': 'RB', 'resp': 'button'}",9,251,Left,36.819834451021336,31.087250842975106,1.8409917225510668,0.4883173943429685,Right,Incorrect,0.0,0.0,-45,45,485,-1,-1
"{'cat': 'RB', 'resp': 'button'}",9,252,Left,37.63976791622837,62.38643050395949,1.8819883958114187,0.9799637587746466,Right,Incorrect,0.0,0.0,-45,45,1690,-1,-1
"{'cat': 'RB', 'resp': 'button'}",9,253,Right,58.21570844249961,38.354305080863924,2.9107854221249805,0.6024680153779189,Right,Correct,0.0,0.0,-45,45,2225,-1,-1
"{'cat': 'RB', 'resp': 'button'}",9,254,Left,39.55426394920069,37.54730518156526,1.9777131974600344,0.5897916906024969,Right,Incorrect,0.0,0.0,-45,45,351,-1,-1
"{'cat': 'RB', 'resp': 'button'}",9,255,Left,39.3959268263184,18.636690168827986,1.96979634131592,0.2927444446080956,Left,Correct,0.0,0.0,-45,45,297,-1,-1
"{'cat': 'RB', 'resp': 'button'}",9,256,Left,46.064212371999076,18.63499993895802,2.303210618599954,0.2927178945393838,Left,Correct,0.0,0.0,-45,45,298,-1,-1
"{'cat': 'RB', 'resp': 'button'}",9,257,Left,40.014135251692295,45.307378844852714,2.0007067625846147,0.7116866426619946,Left,Correct,0.0,0.0,-45,45,1459,-1,-1
"{'cat': 'RB', 'resp': 'button'}",9,258,Left,40.73290518730511,21.53014298374393,2.0366452593652555,0.33819469514233874,Left,Correct,0.0,0.0,-45,45,3567,-1,-1
"{'cat': 'RB', 'resp': 'button'}",9,259,Left,36.32229827836502,66.28284982705702,1.816114913918251,1.041168570378389,Left,Correct,0.0,0.0,-45,45,448,-1,-1
"{'cat': 'RB', 'resp': 'button'}",9,260,Right,64.65545815290777,77.66575762330214,3.232772907645389,1.2199708679242576,Left,Incorrect,0.0,0.0,-45,45,285,-1,-1
"{'cat': 'RB', 'resp': 'button'}",9,261,Right,56.36565799129472,52.34702133109086,2.818282899564736,0.8222650882553162,Right,Correct,0.0,0.0,-45,45,176,-1,-1
"{'cat': 'RB', 'resp': 'button'}",9,262,Right,57.74678195833179,58.56684979879195,2.8873390979165894,0.9199659253589082,Left,Incorrect,0.0,0.0,-45,45,250,-1,-1
"{'cat': 'RB', 'resp': 'button'}",9,263,Left,37.598006139358816,59.39954724485535,1.8799003069679407,0.9330459062549872,Right,Incorrect,0.0,0.0,-45,45,779,-1,-1
"{'cat': 'RB', 'resp': 'button'}",9,264,Left,41.64570087291648,13.954791976574832,2.082285043645824,0.2192013597799064,Right,Incorrect,0.0,0.0,-45,45,426,-1,-1
"{'cat': 'RB', 'resp': 'button'}",9,265,Left,36.2173364250945,18.820594398427126,1.8108668212547252,0.2956332054914593,Left,Correct,0.0,0.0,-45,45,693,-1,-1
"{'cat': 'RB', 'resp': 'button'}",9,266,Left,42.7848386024839,53.91197099765051,2.1392419301241947,0.8468472601338243,Left,Correct,0.0,0.0,-45,45,359,-1,-1
"{'cat': 'RB', 'resp': 'button'}",9,267,Left,48.86352116146397,44.61529431276816,2.4431760580731985,0.7008154042536946,Left,Correct,0.0,0.0,-45,45,391,-1,-1
"{'cat': 'RB', 'resp': 'button'}",9,268,Right,59.71710696101042,82.05661491700528,2.985855348050521,1.2889422930085521,Left,Incorrect,0.0,0.0,-45,45,303,-1,-1
"{'cat': 'RB', 'resp': 'button'}",9,269,Right,57.47718709157847,31.06974364880848,2.8738593545789235,0.48804239198007426,Right,Correct,0.0,0.0,-45,45,530,-1,-1
"{'cat': 'RB', 'resp': 'button'}",9,270,Left,37.10880230446993,18.834523769702994,1.8554401152234965,0.2958520075438063,Right,Incorrect,0.0,0.0,-45,45,339,-1,-1
"{'cat': 'RB', 'resp': 'button'}",9,271,Left,44.518891342984055,40.88718745736889,2.225944567149203,0.6422544387100941,Left,Correct,0.0,0.0,-45,45,211,-1,-1
"{'cat': 'RB', 'resp': 'button'}",9,272,Right,59.38249071613941,41.949252579854374,2.9691245358069707,0.6589373186422658,Left,Incorrect,0.0,0.0,-45,45,383,-1,-1
"{'cat': 'RB', 'resp': 'button'}",9,273,Right,61.47967538103314,88.11946149888882,3.073983769051657,1.3841772644159887,Right,Correct,0.0,0.0,-45,45,435,-1,-1
"{'cat': 'RB', 'resp': 'button'}",9,274,Left,37.26792294808203,52.37726741654889,1.8633961474041016,0.82274019265469,Right,Incorrect,0.0,0.0,-45,45,329,-1,-1
"{'cat': 'RB', 'resp': 'button'}",9,275,Right,64.75250939730897,71.89935383794393,3.2376254698654487,1.1293924090756888,Left,Incorrect,0.0,0.0,-45,45,1414,-1,-1
"{'cat': 'RB', 'resp': 'button'}",9,276,Left,49.07657516586928,61.241097679928345,2.453828758293464,0.961972912845189,Right,Incorrect,0.0,0.0,-45,45,803,-1,-1
"{'cat': 'RB', 'resp': 'button'}",9,277,Right,66.70271755815872,41.79810525346251,3.3351358779079363,0.6565631019912537,Right,Correct,0.0,0.0,-45,45,1287,-1,-1
"{'cat': 'RB', 'resp': 'button'}",9,278,Right,63.92656165384634,15.594822337324374,3.196328082692317,0.24496289644488128,Left,Incorrect,0.0,0.0,-45,45,778,-1,-1
"{'cat': 'RB', 'resp': 'button'}",9,279,Right,55.2943310670691,21.518865329791538,2.7647165533534555,0.338017546168306,Right,Correct,0.0,0.0,-45,45,942,-1,-1
"{'cat': 'RB', 'resp': 'button'}",9,280,Right,50.85953176203649,51.77652291951762,2.5429765881018245,0.8133037201619006,Right,Correct,0.0,0.0,-45,45,1284,-1,-1
"{'cat': 'RB', 'resp': 'button'}",9,281,Right,62.8254734305071,58.24985972294948,3.141273671525355,0.9149866568912705,Left,Incorrect,0.0,0.0,-45,45,1733,-1,-1
"{'cat': 'RB', 'resp': 'button'}",9,282,Right,67.00483960796453,30.95008205158026,3.350241980398226,0.4861627520062292,Right,Correct,0.0,0.0,-45,45,809,-1,-1
"{'cat': 'RB', 'resp': 'button'}",9,283,Left,40.226985606391686,77.58849850234466,2.011349280319584,1.2187572844901433,Right,Incorrect,0.0,0.0,-45,45,1746,-1,-1
"{'cat': 'RB', 'resp': 'button'}",9,284,Left,39.66575971043698,35.178032938019555,1.983287985521849,0.5525752492291099,Right,Incorrect,0.0,0.0,-45,45,1915,-1,-1
"{'cat': 'RB', 'resp': 'button'}",9,285,Right,59.73631262566509,26.465178182975208,2.986815631283255,0.41571404677789897,Left,Incorrect,0.0,0.0,-45,45,1948,-1,-1
"{'cat': 'RB', 'resp': 'button'}",9,286,Left,44.65464044465378,68.242984115697,2.232732022232689,1.0719582877845932,Left,Correct,0.0,0.0,-45,45,2947,-1,-1
"{'cat': 'RB', 'resp': 'button'}",9,287,Right,60.98488925852279,87.60816440588609,3.0492444629261395,1.3761458284600927,Right,Correct,0.0,0.0,-45,45,352,-1,-1
"{'cat': 'RB', 'resp': 'button'}",9,288,Left,47.74749848541339,50.73255451242045,2.387374924270669,0.7969051027703191,Left,Correct,0.0,0.0,-45,45,847,-1,-1
"{'cat': 'RB', 'resp': 'button'}",9,289,Right,52.70230589077869,53.12822585004499,2.6351152945389344,0.8345362201438035,Right,Correct,0.0,0.0,-45,45,542,-1,-1
"{'cat': 'RB', 'resp': 'button'}",9,290,Right,66.58808133401008,25.482141006342253,3.3294040667005045,0.4002725349163202,Left,Incorrect,0.0,0.0,-45,45,421,-1,-1
"{'cat': 'RB', 'resp': 'button'}",9,291,Left,36.27172624060116,32.353914821190784,1.8135863120300582,0.5082141055856145,Left,Correct,0.0,0.0,-45,45,1718,-1,-1
"{'cat': 'RB', 'resp': 'button'}",9,292,Right,53.244551464029,31.694946699457685,2.66222757320145,0.49786305853468166,Right,Correct,0.0,0.0,-45,45,381,-1,-1
"{'cat': 'RB', 'resp': 'button'}",9,293,Right,61.339134595746074,70.09450134680445,3.0669567297873037,1.1010418524408037,Left,Incorrect,0.0,0.0,-45,45,366,-1,-1
"{'cat': 'RB', 'resp': 'button'}",9,294,Right,57.75657586626216,79.0934173256112,2.8878287933131084,1.2423964940872587,Left,Incorrect,0.0,0.0,-45,45,2378,-1,-1
"{'cat': 'RB', 'resp': 'button'}",9,295,Left,33.27099984064578,71.24989081074041,1.663549992032289,1.119190667700485,Right,Incorrect,0.0,0.0,-45,45,1683,-1,-1
"{'cat': 'RB', 'resp': 'button'}",9,296,Left,45.018601938970924,50.43224657792924,2.2509300969485464,0.7921878767662575,Left,Correct,0.0,0.0,-45,45,1414,-1,-1
"{'cat': 'RB', 'resp': 'button'}",9,297,Right,52.08782035540361,56.8060382238078,2.6043910177701806,0.8923071618172778,Left,Incorrect,0.0,0.0,-45,45,393,-1,-1
"{'cat': 'RB', 'resp': 'button'}",9,298,Left,34.03925016036481,61.07083079152286,1.7019625080182406,0.9592983668163677,Right,Incorrect,0.0,0.0,-45,45,491,-1,-1
"{'cat': 'RB', 'resp': 'button'}",9,299,Right,62.619671405554065,51.03518856898596,3.130983570277703,0.8016588674144803,Right,Correct,0.0,0.0,-45,45,1314,-1,-1
"{'cat': 'RB', 'resp': 'button'}",9,300,Left,46.19914473467422,31.077247278568514,2.309957236733711,0.48816025872072116,Left,Correct,0.0,0.0,-45,45,325,-1,-1
"{'cat': 'RB', 'resp': 'button'}",9,301,Right,57.27662817700778,55.68535863394511,2.863831408850389,0.8747035679845745,Right,Correct,0.0,0.0,-45,45,353,-1,-1
"{'cat': 'RB', 'resp': 'button'}",9,302,Right,56.7967773061923,28.99635750349928,2.839838865309615,0.45547371856928304,Left,Incorrect,0.0,0.0,-45,45,636,-1,-1
"{'cat': 'RB', 'resp': 'button'}",9,303,Right,65.25827441114365,19.5400376220141,3.262913720557182,0.30693419322093835,Right,Correct,0.0,0.0,-45,45,432,-1,-1
"{'cat': 'RB', 'resp': 'button'}",9,304,Right,57.7546439616372,11.076530784535237,2.88773219808186,0.17398973869978543,Right,Correct,0.0,0.0,-45,45,447,-1,-1
"{'cat': 'RB', 'resp': 'button'}",9,305,Left,48.581343450536,62.875744936527106,2.4290671725268,0.987649891907896,Right,Incorrect,0.0,0.0,-45,45,517,-1,-1
"{'cat': 'RB', 'resp': 'button'}",9,306,Right,54.35311753222676,41.97199146768878,2.717655876611338,0.6592945002571229,Left,Incorrect,0.0,0.0,-45,45,399,-1,-1
"{'cat': 'RB', 'resp': 'button'}",9,307,Right,55.71799953120931,33.56263546205987,2.7858999765604655,0.5272006450135979,Left,Incorrect,0.0,0.0,-45,45,400,-1,-1
"{'cat': 'RB', 'resp': 'button'}",9,308,Left,41.38246182231486,64.82295241434535,2.069123091115743,1.0182365554445405,Right,Incorrect,0.0,0.0,-45,45,226,-1,-1
"{'cat': 'RB', 'resp': 'button'}",9,309,Right,66.75638101129171,55.12352560231509,3.337819050564585,0.8658783153610099,Left,Incorrect,0.0,0.0,-45,45,372,-1,-1
"{'cat': 'RB', 'resp': 'button'}",9,310,Right,56.39652699578344,32.44149317711954,2.819826349789172,0.5095897831836108,Right,Correct,0.0,0.0,-45,45,1767,-1,-1
"{'cat': 'RB', 'resp': 'button'}",9,311,Left,46.027756556114355,56.38344661336143,2.301387827805718,0.8856691083230429,Right,Incorrect,0.0,0.0,-45,45,739,-1,-1
"{'cat': 'RB', 'resp': 'button'}",9,312,Right,66.85110366254204,67.53112305994604,3.3425551831271023,1.060776400468974,Left,Incorrect,0.0,0.0,-45,45,1229,-1,-1
"{'cat': 'RB', 'resp': 'button'}",9,313,Left,43.27107787592529,27.3153139875543,2.163553893796265,0.4290679487689956,Left,Correct,0.0,0.0,-45,45,1003,-1,-1
"{'cat': 'RB', 'resp': 'button'}",9,314,Left,43.13009635289237,62.67059389695571,2.1565048176446187,0.9844273869139268,Right,Incorrect,0.0,0.0,-45,45,833,-1,-1
"{'cat': 'RB', 'resp': 'button'}",9,315,Left,40.442078358667935,67.11790854728923,2.022103917933397,1.0542856420823772,Right,Incorrect,0.0,0.0,-45,45,271,-1,-1
"{'cat': 'RB', 'resp': 'button'}",9,316,Left,36.09439413487299,74.05238562186472,1.8047197067436498,1.163212153252243,Right,Incorrect,0.0,0.0,-45,45,335,-1,-1
"{'cat': 'RB', 'resp': 'button'}",9,317,Left,43.44186345232511,60.625624262314574,2.1720931726162553,0.9523050790089129,Right,Incorrect,0.0,0.0,-45,45,493,-1,-1
"{'cat': 'RB', 'resp': 'button'}",9,318,Left,38.460387486274676,17.50339678964785,1.9230193743137338,0.2749427138361243,Left,Correct,0.0,0.0,-45,45,354,-1,-1
"{'cat': 'RB', 'resp': 'button'}",9,319,Left,46.00225290646526,29.59291245014794,2.3001126453232628,0.4648443817585535,Left,Correct,0.0,0.0,-45,45,350,-1,-1
"{'cat': 'RB', 'resp': 'button'}",9,320,Right,55.02818000254237,17.383900434114103,2.751409000127119,0.2730656694727464,Left,Incorrect,0.0,0.0,-45,45,374,-1,-1
"{'cat': 'RB', 'resp': 'button'}",9,321,Left,39.41099544233164,38.98456800119116,1.9705497721165819,0.6123681621795694,Left,Correct,0.0,0.0,-45,45,565,-1,-1
"{'cat': 'RB', 'resp': 'button'}",9,322,Right,52.4221539150128,68.1527471397282,2.62110769575064,1.0705408486806647,Right,Correct,0.0,0.0,-45,45,231,-1,-1
"{'cat': 'RB', 'resp': 'button'}",9,323,Right,61.97774225820343,36.552501612867424,3.0988871129101714,0.5741653526865668,Left,Incorrect,0.0,0.0,-45,45,370,-1,-1
"{'cat': 'RB', 'resp': 'button'}",9,324,Left,43.391488182969404,44.51314070028177,2.16957440914847,0.6992107790610701,Right,Incorrect,0.0,0.0,-45,45,685,-1,-1
"{'cat': 'RB', 'resp': 'button'}",9,325,Left,45.43948280877326,39.48407144388774,2.2719741404386635,0.6202143439096613,Right,Incorrect,0.0,0.0,-45,45,2010,-1,-1
"{'cat': 'RB', 'resp': 'button'}",9,326,Left,44.89960635842515,21.761050039786074,2.2449803179212577,0.341821774696959,Left,Correct,0.0,0.0,-45,45,669,-1,-1
"{'cat': 'RB', 'resp': 'button'}",9,327,Left,39.58525447384429,76.91347477022005,1.9792627236922145,1.208154036500936,Right,Incorrect,0.0,0.0,-45,45,2139,-1,-1
"{'cat': 'RB', 'resp': 'button'}",9,328,Right,60.907334117360335,51.166684080064776,3.045366705868017,0.8037243940724066,Left,Incorrect,0.0,0.0,-45,45,1918,-1,-1
"{'cat': 'RB', 'resp': 'button'}",9,329,Right,64.66493789595302,85.75146451973018,3.233246894797651,1.3469808548487505,Left,Incorrect,0.0,0.0,-45,45,1920,-1,-1
"{'cat': 'RB', 'resp': 'button'}",9,330,Left,41.17823464248935,72.59091829707035,2.0589117321244674,1.1402554781970655,Right,Incorrect,0.0,0.0,-45,45,1915,-1,-1
"{'cat': 'RB', 'resp': 'button'}",9,331,Left,48.543747943071914,44.40471205870073,2.4271873971535958,0.6975075859419215,Right,Incorrect,0.0,0.0,-45,45,1992,-1,-1
"{'cat': 'RB', 'resp': 'button'}",9,332,Left,41.646022880927845,47.86740509892889,2.082301144046392,0.751899441026008,Left,Correct,0.0,0.0,-45,45,267,-1,-1
"{'cat': 'RB', 'resp': 'button'}",9,333,Right,58.80199225343803,9.401921660217909,2.9400996126719012,0.14768504008683664,Left,Incorrect,0.0,0.0,-45,45,711,-1,-1
"{'cat': 'RB', 'resp': 'button'}",9,334,Right,64.02365952264624,52.503421072132504,3.201182976132312,0.8247218096427149,Left,Incorrect,0.0,0.0,-45,45,371,-1,-1
"{'cat': 'RB', 'resp': 'button'}",9,335,Right,59.61545994375315,69.50525470466141,2.9807729971876573,1.0917859878302585,Right,Correct,0.0,0.0,-45,45,392,-1,-1
"{'cat': 'RB', 'resp': 'button'}",9,336,Right,53.08567877277894,45.92001094987462,2.654283938638947,0.7213098452644449,Left,Incorrect,0.0,0.0,-45,45,1348,-1,-1
"{'cat': 'RB', 'resp': 'button'}",9,337,Left,44.74173944139306,74.48076588712708,2.237086972069653,1.1699411347236983,Right,Incorrect,0.0,0.0,-45,45,1110,-1,-1
"{'cat': 'RB', 'resp': 'button'}",9,338,Right,56.67341999739641,23.814365350587554,2.8336709998698204,0.37407517617654584,Right,Correct,0.0,0.0,-45,45,2875,-1,-1
"{'cat': 'RB', 'resp': 'button'}",9,339,Left,32.08168668471131,47.4357098876681,1.6040843342355655,0.745118388504574,Right,Incorrect,0.0,0.0,-45,45,2564,-1,-1
"{'cat': 'RB', 'resp': 'button'}",9,340,Left,42.17029257923102,68.826053611014,2.108514628961551,1.081117121999694,Left,Correct,0.0,0.0,-45,45,1987,-1,-1
"{'cat': 'RB', 'resp': 'button'}",9,341,Left,48.23385597562418,59.96037818452142,2.411692798781209,0.9418554180547909,Left,Correct,0.0,0.0,-45,45,382,-1,-1
"{'cat': 'RB', 'resp': 'button'}",9,342,Left,41.969025087837025,27.77851027020716,2.0984512543918514,0.4363438189627572,Left,Correct,0.0,0.0,-45,45,793,-1,-1
"{'cat': 'RB', 'resp': 'button'}",9,343,Right,59.94978382298312,61.740657484819565,2.9974891911491564,0.969819979910564,Left,Incorrect,0.0,0.0,-45,45,1196,-1,-1
"{'cat': 'RB', 'resp': 'button'}",9,344,Left,45.09600661304663,39.11856214350149,2.2548003306523317,0.6144729372451004,Left,Correct,0.0,0.0,-45,45,1353,-1,-1
"{'cat': 'RB', 'resp': 'button'}",9,345,Left,44.72957894293317,40.77149504864339,2.236478947146659,0.6404371466034534,Right,Incorrect,0.0,0.0,-45,45,1685,-1,-1
"{'cat': 'RB', 'resp': 'button'}",9,346,Right,56.97652244931024,20.32218623323593,2.848826122465512,0.3192201548760881,Right,Correct,0.0,0.0,-45,45,299,-1,-1
"{'cat': 'RB', 'resp': 'button'}",9,347,Left,42.33791268832135,49.52630342798762,2.1168956344160677,0.7779573550441246,Right,Incorrect,0.0,0.0,-45,45,803,-1,-1
"{'cat': 'RB', 'resp': 'button'}",9,348,Right,66.65896554836246,34.50737799391764,3.332948277418123,0.5420406260016888,Right,Correct,0.0,0.0,-45,45,200,-1,-1
"{'cat': 'RB', 'resp': 'button'}",9,349,Right,62.53014993066398,14.837553711196655,3.126507496533199,0.2330677486816969,Right,Correct,0.0,0.0,-45,45,377,-1,-1
"{'cat': 'RB', 'resp': 'button'}",9,350,Left,36.50434697204626,18.707363177531832,1.8252173486023127,0.293854573632851,Right,Incorrect,0.0,0.0,-45,45,397,-1,-1
"{'cat': 'RB', 'resp': 'button'}",9,351,Right,61.255333735591456,75.7620626957083,3.0627666867795726,1.1900676979282325,Right,Correct,0.0,0.0,-45,45,348,-1,-1
"{'cat': 'RB', 'resp': 'button'}",9,352,Left,34.693824095134715,48.10776107171676,1.7346912047567358,0.755674943817792,Left,Correct,0.0,0.0,-45,45,449,-1,-1
"{'cat': 'RB', 'resp': 'button'}",9,353,Left,36.1456303874168,66.73562439250881,1.8072815193708403,1.0482807366211673,Right,Incorrect,0.0,0.0,-45,45,321,-1,-1
"{'cat': 'RB', 'resp': 'button'}",9,354,Right,57.65695744462685,66.82937785615002,2.882847872231342,1.0497534125842867,Right,Correct,0.0,0.0,-45,45,244,-1,-1
"{'cat': 'RB', 'resp': 'button'}",9,355,Right,60.98578056823442,47.176654842854916,3.049289028411721,0.7410491613762717,Left,Incorrect,0.0,0.0,-45,45,199,-1,-1
"{'cat': 'RB', 'resp': 'button'}",9,356,Left,34.049033685671375,49.60904463802205,1.7024516842835686,0.7792570509320909,Left,Correct,0.0,0.0,-45,45,553,-1,-1
"{'cat': 'RB', 'resp': 'button'}",9,357,Right,62.176313468071676,68.00568832459481,3.108815673403584,1.0682308542143213,Left,Incorrect,0.0,0.0,-45,45,320,-1,-1
"{'cat': 'RB', 'resp': 'button'}",9,358,Left,37.98572302036321,44.71328559941441,1.8992861510181605,0.7023546477849131,Left,Correct,0.0,0.0,-45,45,323,-1,-1
"{'cat': 'RB', 'resp': 'button'}",9,359,Right,54.51934794833492,56.95438918397207,2.725967397416746,0.8946374532503031,Right,Correct,0.0,0.0,-45,45,259,-1,-1
"{'cat': 'RB', 'resp': 'button'}",9,360,Right,56.22795833575829,79.51532933210179,2.8113979167879144,1.24902387238752,Right,Correct,0.0,0.0,-45,45,320,-1,-1
"{'cat': 'RB', 'resp': 'button'}",9,361,Right,57.30924737825705,44.38111362097743,2.865462368912852,0.697136902548983,Left,Incorrect,0.0,0.0,-45,45,271,-1,-1
"{'cat': 'RB', 'resp': 'button'}",9,362,Left,34.748796623631236,60.81532830380745,1.7374398311815618,0.9552849431244643,Left,Correct,0.0,0.0,-45,45,255,-1,-1
"{'cat': 'RB', 'resp': 'button'}",9,363,Left,42.05403580553925,65.21418025250998,2.1027017902769627,1.0243819479558296,Left,Correct,0.0,0.0,-45,45,388,-1,-1
"{'cat': 'RB', 'resp': 'button'}",9,364,Right,57.03910460603534,13.196159954728863,2.851955230301767,0.20728479584686002,Left,Incorrect,0.0,0.0,-45,45,334,-1,-1
"{'cat': 'RB', 'resp': 'button'}",9,365,Left,47.026179868235936,36.36455016922255,2.3513089934117968,0.5712130183136351,Left,Correct,0.0,0.0,-45,45,226,-1,-1
"{'cat': 'RB', 'resp': 'button'}",9,366,Right,65.91379192316506,42.15807579829665,3.295689596158253,0.662217506087052,Right,Correct,0.0,0.0,-45,45,400,-1,-1
"{'cat': 'RB', 'resp': 'button'}",9,367,Left,41.4447567100641,69.03112706521152,2.0722378355032047,1.0843384082854604,Right,Incorrect,0.0,0.0,-45,45,320,-1,-1
"{'cat': 'RB', 'resp': 'button'}",9,368,Left,43.17496041143226,29.173766372379536,2.158748020571613,0.4582604505650625,Right,Incorrect,0.0,0.0,-45,45,298,-1,-1
"{'cat': 'RB', 'resp': 'button'}",9,369,Left,39.53545656929189,71.49149890804863,1.9767728284645942,1.1229858388182414,Right,Incorrect,0.0,0.0,-45,45,648,-1,-1
"{'cat': 'RB', 'resp': 'button'}",9,370,Left,34.33148360944105,59.71117045320036,1.7165741804720525,0.9379408721651108,Left,Correct,0.0,0.0,-45,45,231,-1,-1
"{'cat': 'RB', 'resp': 'button'}",9,371,Right,55.092771123685495,15.302246909650691,2.754638556184275,0.24036713237387863,Left,Incorrect,0.0,0.0,-45,45,397,-1,-1
"{'cat': 'RB', 'resp': 'button'}",9,372,Left,45.144362749023365,47.243672831504966,2.257218137451168,0.7421018774802784,Right,Incorrect,0.0,0.0,-45,45,275,-1,-1
"{'cat': 'RB', 'resp': 'button'}",9,373,Left,33.197669005807235,47.789827836014766,1.6598834502903617,0.7506808602297249,107,Incorrect,0.0,0.0,-45,45,253,-1,-1
"{'cat': 'RB', 'resp': 'button'}",9,374,Left,37.38515025336959,83.68270648874119,1.8692575126684796,1.3144848796877011,Right,Incorrect,0.0,0.0,-45,45,778,-1,-1
"{'cat': 'RB', 'resp': 'button'}",9,375,Right,59.702539013688394,24.169852855543947,2.98512695068442,0.3796591608466158,Left,Incorrect,0.0,0.0,-45,45,254,-1,-1
"{'cat': 'RB', 'resp': 'button'}",9,376,Left,38.53029670877409,32.390613347138725,1.9265148354387043,0.5087905646831926,Left,Correct,0.0,0.0,-45,45,1026,-1,-1
"{'cat': 'RB', 'resp': 'button'}",9,377,Left,37.74321067405748,54.470396122006186,1.887160533702874,0.855618981475103,Right,Incorrect,0.0,0.0,-45,45,835,-1,-1
"{'cat': 'RB', 'resp': 'button'}",9,378,Right,59.24837443942266,44.29701946443896,2.962418721971133,0.6958159546270276,Right,Correct,0.0,0.0,-45,45,369,-1,-1
"{'cat': 'RB', 'resp': 'button'}",9,379,Right,63.494300222836834,68.85055278996096,3.1747150111418416,1.081501954202688,Right,Correct,0.0,0.0,-45,45,403,-1,-1
"{'cat': 'RB', 'resp': 'button'}",9,380,Left,36.0174589043846,36.02420441454518,1.8008729452192298,0.5658668797007607,Left,Correct,0.0,0.0,-45,45,511,-1,-1
"{'cat': 'RB', 'resp': 'button'}",9,381,Right,65.09420495626622,48.62990458258567,3.2547102478133114,0.7638767549071187,Left,Incorrect,0.0,0.0,-45,45,285,-1,-1
"{'cat': 'RB', 'resp': 'button'}",9,382,Right,65.0529223932744,58.62544570226676,3.25264611966372,0.9208863476583429,Left,Incorrect,0.0,0.0,-45,45,222,-1,-1
"{'cat': 'RB', 'resp': 'button'}",9,383,Left,44.15475087070449,51.240052785259415,2.2077375435352247,0.804876866998621,Right,Incorrect,0.0,0.0,-45,45,255,-1,-1
"{'cat': 'RB', 'resp': 'button'}",9,384,Left,41.05092427337835,64.68072595377538,2.052546213668917,1.016002467426177,Left,Correct,0.0,0.0,-45,45,203,-1,-1
"{'cat': 'RB', 'resp': 'button'}",9,385,Right,55.498202517003236,39.591759979609996,2.7749101258501616,0.6219059114731655,Right,Correct,0.0,0.0,-45,45,381,-1,-1
"{'cat': 'RB', 'resp': 'button'}",9,386,Left,33.86308607621895,72.63488085854172,1.6931543038109476,1.1409460404978229,Left,Correct,0.0,0.0,-45,45,346,-1,-1
"{'cat': 'RB', 'resp': 'button'}",9,387,Right,62.93320245404827,44.14316628047119,3.146660122702414,0.6933992344646048,Right,Correct,0.0,0.0,-45,45,280,-1,-1
"{'cat': 'RB', 'resp': 'button'}",9,388,Right,62.28324074978893,29.517243046421935,3.1141620374894465,0.4636557695443178,Right,Correct,0.0,0.0,-45,45,227,-1,-1
"{'cat': 'RB', 'resp': 'button'}",9,389,Right,66.04371006913378,22.721764405613282,3.3021855034566894,0.35691264066636375,Left,Incorrect,0.0,0.0,-45,45,427,-1,-1
"{'cat': 'RB', 'resp': 'button'}",9,390,Right,62.70882642225267,35.07930315927152,3.1354413211126335,0.5510244054910831,Right,Correct,0.0,0.0,-45,45,436,-1,-1
"{'cat': 'RB', 'resp': 'button'}",9,391,Right,69.16421546325167,60.52998035402891,3.458210773162583,0.9508027080107586,Right,Correct,0.0,0.0,-45,45,562,-1,-1
"{'cat': 'RB', 'resp': 'button'}",9,392,Left,45.362839587968,24.95541913165578,2.2681419793983997,0.3919988070563199,Left,Correct,0.0,0.0,-45,45,258,-1,-1
"{'cat': 'RB', 'resp': 'button'}",9,393,Left,45.143797721487985,48.095992022148366,2.2571898860743995,0.7554900760194729,Right,Incorrect,0.0,0.0,-45,45,341,-1,-1
"{'cat': 'RB', 'resp': 'button'}",9,394,Left,31.00460004608224,54.61755164075322,1.5502300023041118,0.8579304949582574,Right,Incorrect,0.0,0.0,-45,45,367,-1,-1
"{'cat': 'RB', 'resp': 'button'}",9,395,Left,40.87600360441015,73.9628320471861,2.0438001802205075,1.161805448990678,Right,Incorrect,0.0,0.0,-45,45,354,-1,-1
"{'cat': 'RB', 'resp': 'button'}",9,396,Right,52.50831812870632,55.87064444540451,2.625415906435316,0.877614030705051,Right,Correct,0.0,0.0,-45,45,340,-1,-1
"{'cat': 'RB', 'resp': 'button'}",9,397,Left,34.84219710506075,51.475606051956696,1.7421098552530372,0.8085769290595473,Right,Incorrect,0.0,0.0,-45,45,184,-1,-1
"{'cat': 'RB', 'resp': 'button'}",9,398,Left,46.998387431567046,45.48537684997368,2.3499193715783524,0.7144826287882028,Left,Correct,0.0,0.0,-45,45,219,-1,-1
"{'cat': 'RB', 'resp': 'button'}",9,399,Left,36.7711856456592,39.50964016013867,1.8385592822829602,0.6206159763653395,Left,Correct,0.0,0.0,-45,45,181,-1,-1
