condition,subject,trial,cat,x,y,xt,yt,resp,fb,rotation,su,target_angle_left,target_angle_right,rt,mt,ep
"{'cat': 'RB', 'resp': 'button'}",13,0,Right,61.51073512023555,71.87817287016848,3.0755367560117777,1.1290596992118922,Left,Incorrect,0.0,0.0,-45,45,792,-1,-1
"{'cat': 'RB', 'resp': 'button'}",13,1,Left,35.564186275728176,50.75127388708533,1.7782093137864086,0.7971991460199539,Right,Incorrect,0.0,0.0,-45,45,1382,-1,-1
"{'cat': 'RB', 'resp': 'button'}",13,2,Right,62.579575635617594,83.45489396779647,3.1289787817808796,1.3109064089767226,Left,Incorrect,0.0,0.0,-45,45,847,-1,-1
"{'cat': 'RB', 'resp': 'button'}",13,3,Left,32.59395673723455,45.10725975463245,1.6296978368617274,0.7085431793435992,Left,Correct,0.0,0.0,-45,45,888,-1,-1
"{'cat': 'RB', 'resp': 'button'}",13,4,Left,43.875763838522644,59.57579053418973,2.193788191926132,0.9358143293700739,Right,Incorrect,0.0,0.0,-45,45,954,-1,-1
"{'cat': 'RB', 'resp': 'button'}",13,5,Left,38.481183821766436,20.423482582309568,1.9240591910883216,0.3208113142065142,Left,Correct,0.0,0.0,-45,45,824,-1,-1
"{'cat': 'RB', 'resp': 'button'}",13,6,Right,52.944860441312485,59.79205941071858,2.647243022065624,0.9392114729385899,Left,Incorrect,0.0,0.0,-45,45,1327,-1,-1
"{'cat': 'RB', 'resp': 'button'}",13,7,Right,52.26197037000755,58.8609521489199,2.6130985185003777,0.9245856742717355,Left,Incorrect,0.0,0.0,-45,45,1076,-1,-1
"{'cat': 'RB', 'resp': 'button'}",13,8,Left,40.33247118977507,20.184894116064594,2.0166235594887536,0.31706357534258184,Right,Incorrect,0.0,0.0,-45,45,946,-1,-1
"{'cat': 'RB', 'resp': 'button'}",13,9,Left,45.41830039429875,44.323338197324105,2.2709150197149373,0.6962293683164463,Left,Correct,0.0,0.0,-45,45,661,-1,-1
"{'cat': 'RB', 'resp': 'button'}",13,10,Left,34.707941000671774,72.06038077304441,1.7353970500335887,1.1319218142573975,Left,Correct,0.0,0.0,-45,45,1083,-1,-1
"{'cat': 'RB', 'resp': 'button'}",13,11,Left,42.87194177665436,22.88600566049031,2.143597088832718,0.35949253626505384,Left,Correct,0.0,0.0,-45,45,796,-1,-1
"{'cat': 'RB', 'resp': 'button'}",13,12,Left,33.93303824192235,32.55886370199411,1.6966519120961174,0.5114334350770804,Left,Correct,0.0,0.0,-45,45,1135,-1,-1
"{'cat': 'RB', 'resp': 'button'}",13,13,Right,67.24351156156992,55.63546393433531,3.362175578078496,0.8739198238758384,Right,Correct,0.0,0.0,-45,45,1181,-1,-1
"{'cat': 'RB', 'resp': 'button'}",13,14,Left,41.16840769247244,58.838654584674586,2.058420384623622,0.9242354249516053,Left,Correct,0.0,0.0,-45,45,993,-1,-1
"{'cat': 'RB', 'resp': 'button'}",13,15,Right,55.062141285048156,64.21532522151588,2.753107064252408,1.0086919698189682,Left,Incorrect,0.0,0.0,-45,45,729,-1,-1
"{'cat': 'RB', 'resp': 'button'}",13,16,Right,53.81465653652966,56.171799198530046,2.690732826826483,0.882344558505115,Left,Incorrect,0.0,0.0,-45,45,950,-1,-1
"{'cat': 'RB', 'resp': 'button'}",13,17,Right,61.10560876232434,72.70421703639096,3.055280438116217,1.1420351706326186,Right,Correct,0.0,0.0,-45,45,1148,-1,-1
"{'cat': 'RB', 'resp': 'button'}",13,18,Right,57.77874700827154,54.48030690075685,2.8889373504135767,0.8557746596236753,Left,Incorrect,0.0,0.0,-45,45,731,-1,-1
"{'cat': 'RB', 'resp': 'button'}",13,19,Left,39.767309512255764,90.36949640335277,1.9883654756127882,1.4195207300469113,Left,Correct,0.0,0.0,-45,45,1179,-1,-1
"{'cat': 'RB', 'resp': 'button'}",13,20,Right,51.87916747008095,31.570860166684252,2.5939583735040475,0.49591391183582934,Left,Incorrect,0.0,0.0,-45,45,844,-1,-1
"{'cat': 'RB', 'resp': 'button'}",13,21,Right,54.37163566054805,20.047383944700208,2.718581783027403,0.3149035706218207,Left,Incorrect,0.0,0.0,-45,45,641,-1,-1
"{'cat': 'RB', 'resp': 'button'}",13,22,Right,65.37256422908175,23.192133982344963,3.268628211454087,0.36430118870002565,Left,Incorrect,0.0,0.0,-45,45,1091,-1,-1
"{'cat': 'RB', 'resp': 'button'}",13,23,Right,53.1581914638198,34.80641609663794,2.65790957319099,0.5467379055349364,Right,Correct,0.0,0.0,-45,45,1003,-1,-1
"{'cat': 'RB', 'resp': 'button'}",13,24,Left,47.79404406791985,34.72991474357768,2.3897022033959927,0.5455362250911174,Right,Incorrect,0.0,0.0,-45,45,641,-1,-1
"{'cat': 'RB', 'resp': 'button'}",13,25,Left,46.72487402077735,29.985253602934645,2.3362437010388675,0.47100726217503175,Left,Correct,0.0,0.0,-45,45,745,-1,-1
"{'cat': 'RB', 'resp': 'button'}",13,26,Left,45.65166838418598,75.11257088179693,2.282583419209299,1.1798655043724793,Left,Correct,0.0,0.0,-45,45,858,-1,-1
"{'cat': 'RB', 'resp': 'button'}",13,27,Right,51.02168475471424,47.26175835193141,2.551084237735712,0.7423859641708188,Right,Correct,0.0,0.0,-45,45,670,-1,-1
"{'cat': 'RB', 'resp': 'button'}",13,28,Right,67.66356746970598,46.80841709279178,3.383178373485299,0.7352648963244078,Left,Incorrect,0.0,0.0,-45,45,568,-1,-1
"{'cat': 'RB', 'resp': 'button'}",13,29,Right,59.998103652350736,69.67670816717359,2.9999051826175367,1.0944791725215626,Left,Incorrect,0.0,0.0,-45,45,630,-1,-1
"{'cat': 'RB', 'resp': 'button'}",13,30,Left,47.40316953620001,47.860643340264524,2.3701584768100004,0.7517932275692815,Right,Incorrect,0.0,0.0,-45,45,1066,-1,-1
"{'cat': 'RB', 'resp': 'button'}",13,31,Right,55.76639747629866,23.859555241755007,2.788319873814933,0.3747850173270868,Left,Incorrect,0.0,0.0,-45,45,839,-1,-1
"{'cat': 'RB', 'resp': 'button'}",13,32,Right,66.33606654935514,80.65456269354893,3.3168033274677566,1.2669189081827534,Left,Incorrect,0.0,0.0,-45,45,881,-1,-1
"{'cat': 'RB', 'resp': 'button'}",13,33,Left,45.62176005546843,39.92719935855709,2.2810880027734215,0.6271749809162902,Left,Correct,0.0,0.0,-45,45,1227,-1,-1
"{'cat': 'RB', 'resp': 'button'}",13,34,Left,34.94922888078776,56.990163485762096,1.7474614440393879,0.8951993946687573,Left,Correct,0.0,0.0,-45,45,918,-1,-1
"{'cat': 'RB', 'resp': 'button'}",13,35,Left,45.27120163486593,25.03627851177942,2.2635600817432966,0.39326894322917116,Right,Incorrect,0.0,0.0,-45,45,942,-1,-1
"{'cat': 'RB', 'resp': 'button'}",13,36,Right,53.3459815253547,61.54324659877284,2.667299076267735,0.966719056963849,Left,Incorrect,0.0,0.0,-45,45,839,-1,-1
"{'cat': 'RB', 'resp': 'button'}",13,37,Right,68.32755125908452,49.08787151684302,3.416377562954226,0.7710704826883685,Left,Incorrect,0.0,0.0,-45,45,1297,-1,-1
"{'cat': 'RB', 'resp': 'button'}",13,38,Right,53.72571182720181,62.81429733224433,2.686285591360091,0.9866846751969187,Left,Incorrect,0.0,0.0,-45,45,1461,-1,-1
"{'cat': 'RB', 'resp': 'button'}",13,39,Right,53.195086758328145,40.772376225258114,2.6597543379164073,0.6404509880933502,Left,Incorrect,0.0,0.0,-45,45,1113,-1,-1
"{'cat': 'RB', 'resp': 'button'}",13,40,Right,61.91683398951516,57.01988783128951,3.095841699475758,0.8956663035964658,Right,Correct,0.0,0.0,-45,45,1375,-1,-1
"{'cat': 'RB', 'resp': 'button'}",13,41,Left,42.08608951095628,75.67668602496241,2.104304475547814,1.1887266043202163,Right,Incorrect,0.0,0.0,-45,45,1147,-1,-1
"{'cat': 'RB', 'resp': 'button'}",13,42,Left,46.17574889881457,54.364070273735464,2.3087874449407284,0.8539488189560329,Left,Correct,0.0,0.0,-45,45,696,-1,-1
"{'cat': 'RB', 'resp': 'button'}",13,43,Left,43.89253935900024,24.51088191477632,2.194626967950012,0.3850160327823411,Right,Incorrect,0.0,0.0,-45,45,653,-1,-1
"{'cat': 'RB', 'resp': 'button'}",13,44,Right,56.9814700680224,20.549335697809926,2.8490735034011205,0.32278821032195076,Left,Incorrect,0.0,0.0,-45,45,708,-1,-1
"{'cat': 'RB', 'resp': 'button'}",13,45,Left,33.98281287463353,71.85735184605463,1.6991406437316767,1.128732643329911,Left,Correct,0.0,0.0,-45,45,744,-1,-1
"{'cat': 'RB', 'resp': 'button'}",13,46,Right,64.60220628507362,53.416169052198015,3.230110314253681,0.8390592213864788,Left,Incorrect,0.0,0.0,-45,45,751,-1,-1
"{'cat': 'RB', 'resp': 'button'}",13,47,Right,59.7837077746514,54.50357163378685,2.9891853887325697,0.856140101195549,Right,Correct,0.0,0.0,-45,45,1757,-1,-1
"{'cat': 'RB', 'resp': 'button'}",13,48,Left,47.394647565547416,29.138602308384158,2.3697323782773707,0.45770809473947127,Left,Correct,0.0,0.0,-45,45,905,-1,-1
"{'cat': 'RB', 'resp': 'button'}",13,49,Right,61.82265170552724,47.1662356470888,3.091132585276362,0.7408854970318959,Left,Incorrect,0.0,0.0,-45,45,798,-1,-1
"{'cat': 'RB', 'resp': 'button'}",13,50,Right,55.39420871097362,63.89465166475561,2.769710435548681,1.0036548413683752,Right,Correct,0.0,0.0,-45,45,1332,-1,-1
"{'cat': 'RB', 'resp': 'button'}",13,51,Left,44.877542834354045,81.88635911127335,2.2438771417177024,1.28626792106596,Left,Correct,0.0,0.0,-45,45,964,-1,-1
"{'cat': 'RB', 'resp': 'button'}",13,52,Left,35.62999650893069,35.81279040305904,1.7814998254465342,0.5625459961740067,Left,Correct,0.0,0.0,-45,45,1157,-1,-1
"{'cat': 'RB', 'resp': 'button'}",13,53,Left,39.255935235048184,14.372618800055221,1.9627967617524091,0.22576456817550014,Left,Correct,0.0,0.0,-45,45,1180,-1,-1
"{'cat': 'RB', 'resp': 'button'}",13,54,Left,31.22522820843067,55.19213831662382,1.5612614104215337,0.8669560813570857,Left,Correct,0.0,0.0,-45,45,977,-1,-1
"{'cat': 'RB', 'resp': 'button'}",13,55,Right,53.74667353236445,60.71956354037383,2.687333676618222,0.9537806737380853,Left,Incorrect,0.0,0.0,-45,45,941,-1,-1
"{'cat': 'RB', 'resp': 'button'}",13,56,Right,56.67999937232015,46.058361473189315,2.8339999686160073,0.7234830502027735,Left,Incorrect,0.0,0.0,-45,45,1286,-1,-1
"{'cat': 'RB', 'resp': 'button'}",13,57,Left,35.20282216410909,26.710455798254976,1.7601411082054543,0.4195668585491637,Right,Incorrect,0.0,0.0,-45,45,775,-1,-1
"{'cat': 'RB', 'resp': 'button'}",13,58,Right,64.64466583436945,82.23610756042984,3.2322332917184724,1.2917617568583322,Left,Incorrect,0.0,0.0,-45,45,553,-1,-1
"{'cat': 'RB', 'resp': 'button'}",13,59,Right,62.727732646867004,71.48454340410105,3.13638663234335,1.122876582017723,Left,Incorrect,0.0,0.0,-45,45,646,-1,-1
"{'cat': 'RB', 'resp': 'button'}",13,60,Left,40.69634076604842,88.77822430172478,2.034817038302421,1.3945250863252268,Left,Correct,0.0,0.0,-45,45,747,-1,-1
"{'cat': 'RB', 'resp': 'button'}",13,61,Left,43.85512178098887,70.13105300464173,2.1927560890494435,1.1016160045394943,Left,Correct,0.0,0.0,-45,45,591,-1,-1
"{'cat': 'RB', 'resp': 'button'}",13,62,Right,50.97961042907307,49.26603002786136,2.5489805214536534,0.7738689900353172,Right,Correct,0.0,0.0,-45,45,965,-1,-1
"{'cat': 'RB', 'resp': 'button'}",13,63,Right,55.09344985035727,42.54937147650654,2.754672492517863,0.6683639642272803,Left,Incorrect,0.0,0.0,-45,45,828,-1,-1
"{'cat': 'RB', 'resp': 'button'}",13,64,Left,34.677337927848754,65.28230021753981,1.7338668963924377,1.0254519738643322,Right,Incorrect,0.0,0.0,-45,45,1150,-1,-1
"{'cat': 'RB', 'resp': 'button'}",13,65,Left,39.402270652415304,32.329208638984596,1.970113532620765,0.5078260217830285,Left,Correct,0.0,0.0,-45,45,657,-1,-1
"{'cat': 'RB', 'resp': 'button'}",13,66,Right,65.28755114052238,64.84343116148247,3.264377557026119,1.0185582348523439,Left,Incorrect,0.0,0.0,-45,45,1067,-1,-1
"{'cat': 'RB', 'resp': 'button'}",13,67,Right,56.85299607817167,22.990407736873877,2.8426498039085835,0.36113248024598454,Right,Correct,0.0,0.0,-45,45,1173,-1,-1
"{'cat': 'RB', 'resp': 'button'}",13,68,Right,60.08937531681649,11.39715985238984,3.0044687658408247,0.17902616832028231,Left,Incorrect,0.0,0.0,-45,45,629,-1,-1
"{'cat': 'RB', 'resp': 'button'}",13,69,Left,35.68701612057718,41.2768915813168,1.7843508060288586,0.6483758967744362,Right,Incorrect,0.0,0.0,-45,45,829,-1,-1
"{'cat': 'RB', 'resp': 'button'}",13,70,Left,44.490945542316034,37.334164878213315,2.2245472771158017,0.5864436905465251,Left,Correct,0.0,0.0,-45,45,1072,-1,-1
"{'cat': 'RB', 'resp': 'button'}",13,71,Left,33.550125871286674,67.54939230197894,1.6775062935643337,1.0610633730517598,Left,Correct,0.0,0.0,-45,45,532,-1,-1
"{'cat': 'RB', 'resp': 'button'}",13,72,Left,31.95480426721585,71.57134531662696,1.5977402133607925,1.1242400632712677,Right,Incorrect,0.0,0.0,-45,45,782,-1,-1
"{'cat': 'RB', 'resp': 'button'}",13,73,Left,45.73943905941853,33.311321024429745,2.2869719529709265,0.5232530070585985,Left,Correct,0.0,0.0,-45,45,593,-1,-1
"{'cat': 'RB', 'resp': 'button'}",13,74,Left,44.42316959600705,35.91889622510911,2.2211584798003527,0.5642127025292846,Left,Correct,0.0,0.0,-45,45,780,-1,-1
"{'cat': 'RB', 'resp': 'button'}",13,75,Right,51.959099029868256,71.53350034417102,2.5979549514934126,1.123645595834053,Left,Incorrect,0.0,0.0,-45,45,787,-1,-1
"{'cat': 'RB', 'resp': 'button'}",13,76,Left,47.805923400322385,58.81017740720711,2.3902961700161196,0.9237881064939713,Right,Incorrect,0.0,0.0,-45,45,729,-1,-1
"{'cat': 'RB', 'resp': 'button'}",13,77,Right,58.771922690357854,67.96141920889134,2.938596134517893,1.0675354765709466,Left,Incorrect,0.0,0.0,-45,45,912,-1,-1
"{'cat': 'RB', 'resp': 'button'}",13,78,Right,65.93806129698346,40.01251783703683,3.296903064849173,0.6285151604423272,Left,Incorrect,0.0,0.0,-45,45,876,-1,-1
"{'cat': 'RB', 'resp': 'button'}",13,79,Left,37.58360807063782,70.33697481806868,1.879180403531891,1.1048506168208743,Right,Incorrect,0.0,0.0,-45,45,750,-1,-1
"{'cat': 'RB', 'resp': 'button'}",13,80,Left,38.3728602591019,60.92731359503242,1.918643012955095,0.9570440039655769,Left,Correct,0.0,0.0,-45,45,994,-1,-1
"{'cat': 'RB', 'resp': 'button'}",13,81,Right,68.04767324481955,66.05014604430244,3.402383662240977,1.0375132679065673,Left,Incorrect,0.0,0.0,-45,45,853,-1,-1
"{'cat': 'RB', 'resp': 'button'}",13,82,Left,36.15152659695167,48.99542228099125,1.8075763298475835,0.769618293487459,Right,Incorrect,0.0,0.0,-45,45,692,-1,-1
"{'cat': 'RB', 'resp': 'button'}",13,83,Right,56.12627697018888,37.3003889240648,2.8063138485094443,0.5859131390994202,Left,Incorrect,0.0,0.0,-45,45,802,-1,-1
"{'cat': 'RB', 'resp': 'button'}",13,84,Left,33.54724637245169,66.91106552849382,1.6773623186225846,1.0510365595409072,Right,Incorrect,0.0,0.0,-45,45,843,-1,-1
"{'cat': 'RB', 'resp': 'button'}",13,85,Left,40.846843523747935,82.04868307145759,2.0423421761873968,1.288817699870042,Left,Correct,0.0,0.0,-45,45,1053,-1,-1
"{'cat': 'RB', 'resp': 'button'}",13,86,Right,59.586490119135405,36.391075171569604,2.9793245059567703,0.571629672076185,Left,Incorrect,0.0,0.0,-45,45,843,-1,-1
"{'cat': 'RB', 'resp': 'button'}",13,87,Right,51.17014134051236,45.82453515377571,2.558507067025618,0.719810114966345,Left,Incorrect,0.0,0.0,-45,45,893,-1,-1
"{'cat': 'RB', 'resp': 'button'}",13,88,Right,68.72585067147399,33.77839471294659,3.4362925335737,0.5305897834012466,Right,Correct,0.0,0.0,-45,45,826,-1,-1
"{'cat': 'RB', 'resp': 'button'}",13,89,Right,59.9275086884794,8.694184982120028,2.9963754344239697,0.1365679383438949,Left,Incorrect,0.0,0.0,-45,45,905,-1,-1
"{'cat': 'RB', 'resp': 'button'}",13,90,Left,35.088229154830856,65.60667226351555,1.7544114577415428,1.0305471980476686,Right,Incorrect,0.0,0.0,-45,45,680,-1,-1
"{'cat': 'RB', 'resp': 'button'}",13,91,Right,67.14312607544291,54.739233479456075,3.3571563037721455,0.8598418688109782,Left,Incorrect,0.0,0.0,-45,45,724,-1,-1
"{'cat': 'RB', 'resp': 'button'}",13,92,Right,60.43829811882963,45.200718014938474,3.0219149059414816,0.7100112182635726,Right,Correct,0.0,0.0,-45,45,1292,-1,-1
"{'cat': 'RB', 'resp': 'button'}",13,93,Right,59.17049657889697,79.98997218346477,2.9585248289448485,1.2564795448621242,Left,Incorrect,0.0,0.0,-45,45,855,-1,-1
"{'cat': 'RB', 'resp': 'button'}",13,94,Left,48.12376763509978,66.77574333426915,2.406188381754989,1.0489109234846876,Left,Correct,0.0,0.0,-45,45,494,-1,-1
"{'cat': 'RB', 'resp': 'button'}",13,95,Left,38.857039741777214,79.59095855325032,1.9428519870888608,1.2502118534153046,Left,Correct,0.0,0.0,-45,45,683,-1,-1
"{'cat': 'RB', 'resp': 'button'}",13,96,Left,40.6239131209865,70.7154936088307,2.0311956560493254,1.1107963760823925,Left,Correct,0.0,0.0,-45,45,570,-1,-1
"{'cat': 'RB', 'resp': 'button'}",13,97,Left,42.55362010055245,18.499273838292947,2.1276810050276227,0.2905859139356349,Right,Incorrect,0.0,0.0,-45,45,445,-1,-1
"{'cat': 'RB', 'resp': 'button'}",13,98,Left,48.658815105764624,46.11275294689481,2.4329407552882314,0.7243374294738292,Left,Correct,0.0,0.0,-45,45,360,-1,-1
"{'cat': 'RB', 'resp': 'button'}",13,99,Left,45.451121437127874,83.38349684693607,2.272556071856394,1.3097849056248103,Left,Correct,0.0,0.0,-45,45,433,-1,-1
"{'cat': 'RB', 'resp': 'button'}",13,100,Right,53.04559730378231,77.74450302695149,2.6522798651891155,1.221207797832301,Right,Correct,0.0,0.0,-45,45,425,-1,-1
"{'cat': 'RB', 'resp': 'button'}",13,101,Left,40.51734819755024,16.314745114101108,2.025867409877512,0.25627141697825007,Left,Correct,0.0,0.0,-45,45,325,-1,-1
"{'cat': 'RB', 'resp': 'button'}",13,102,Left,47.551845018800925,51.92533711785697,2.377592250940046,0.8156412881231643,Right,Incorrect,0.0,0.0,-45,45,484,-1,-1
"{'cat': 'RB', 'resp': 'button'}",13,103,Left,36.810223428794174,58.30198877943583,1.8405111714397089,0.9158054981957509,Left,Correct,0.0,0.0,-45,45,450,-1,-1
"{'cat': 'RB', 'resp': 'button'}",13,104,Left,37.25417109896029,67.4359092738932,1.8627085549480145,1.0592807858150535,Left,Correct,0.0,0.0,-45,45,338,-1,-1
"{'cat': 'RB', 'resp': 'button'}",13,105,Left,39.633161830681196,38.026726044185224,1.9816580915340598,0.5973224159024199,Right,Incorrect,0.0,0.0,-45,45,574,-1,-1
"{'cat': 'RB', 'resp': 'button'}",13,106,Right,64.71809925467541,74.02123347942253,3.23590496273377,1.1627228165430434,Left,Incorrect,0.0,0.0,-45,45,424,-1,-1
"{'cat': 'RB', 'resp': 'button'}",13,107,Left,40.50321059521023,34.666220102333,2.025160529760511,0.5445357120060808,Right,Incorrect,0.0,0.0,-45,45,478,-1,-1
"{'cat': 'RB', 'resp': 'button'}",13,108,Right,57.41802772401136,20.160541475158425,2.870901386200568,0.3166810449537502,Left,Incorrect,0.0,0.0,-45,45,720,-1,-1
"{'cat': 'RB', 'resp': 'button'}",13,109,Left,33.053060771587155,75.55104333134473,1.6526530385793579,1.1867530135039839,Left,Correct,0.0,0.0,-45,45,337,-1,-1
"{'cat': 'RB', 'resp': 'button'}",13,110,Left,37.25259895130684,35.70546202295873,1.8626299475653416,0.5608600859217825,Left,Correct,0.0,0.0,-45,45,457,-1,-1
"{'cat': 'RB', 'resp': 'button'}",13,111,Left,38.14369974079887,18.03375573368775,1.9071849870399435,0.28327357264793124,Left,Correct,0.0,0.0,-45,45,594,-1,-1
"{'cat': 'RB', 'resp': 'button'}",13,112,Left,38.76760029448314,30.499494239646932,1.938380014724157,0.4790849352073951,Left,Correct,0.0,0.0,-45,45,910,-1,-1
"{'cat': 'RB', 'resp': 'button'}",13,113,Left,42.60066413694497,26.67922596837228,2.1300332068472487,0.41907630152850195,Right,Incorrect,0.0,0.0,-45,45,1267,-1,-1
"{'cat': 'RB', 'resp': 'button'}",13,114,Right,59.14312182410832,88.72963779688789,2.957156091205416,1.3937618912919312,Left,Incorrect,0.0,0.0,-45,45,387,-1,-1
"{'cat': 'RB', 'resp': 'button'}",13,115,Left,43.39617966420472,68.37011279745147,2.1698089832102365,1.073955220447895,Left,Correct,0.0,0.0,-45,45,466,-1,-1
"{'cat': 'RB', 'resp': 'button'}",13,116,Right,57.465228759844464,39.07507403444786,2.873261437992223,0.6137898276254934,Right,Correct,0.0,0.0,-45,45,880,-1,-1
"{'cat': 'RB', 'resp': 'button'}",13,117,Right,50.81165379240867,48.60413303641667,2.5405826896204333,0.7634719364065379,Left,Incorrect,0.0,0.0,-45,45,524,-1,-1
"{'cat': 'RB', 'resp': 'button'}",13,118,Left,42.259171820009925,68.88308652506862,2.1129585910004964,1.0820129929187283,Left,Correct,0.0,0.0,-45,45,824,-1,-1
"{'cat': 'RB', 'resp': 'button'}",13,119,Right,56.3396274616251,43.85049506240525,2.8169813730812554,0.6888019657216391,Right,Correct,0.0,0.0,-45,45,493,-1,-1
"{'cat': 'RB', 'resp': 'button'}",13,120,Right,64.21610850462845,72.56818183635863,3.210805425231422,1.1398983347073626,Right,Correct,0.0,0.0,-45,45,289,-1,-1
"{'cat': 'RB', 'resp': 'button'}",13,121,Left,41.38881282544125,46.21428395776625,2.0694406412720623,0.7259322748631555,Left,Correct,0.0,0.0,-45,45,399,-1,-1
"{'cat': 'RB', 'resp': 'button'}",13,122,Left,35.08472710705373,64.92474619523485,1.7542363553526865,1.0198355284156584,Right,Incorrect,0.0,0.0,-45,45,489,-1,-1
"{'cat': 'RB', 'resp': 'button'}",13,123,Right,63.76230107127133,43.97381359148099,3.1881150535635663,0.6907390486466183,Left,Incorrect,0.0,0.0,-45,45,405,-1,-1
"{'cat': 'RB', 'resp': 'button'}",13,124,Right,67.63985181186713,49.924282488991125,3.3819925905933563,0.7842087955157804,Right,Correct,0.0,0.0,-45,45,1094,-1,-1
"{'cat': 'RB', 'resp': 'button'}",13,125,Left,33.214980009959035,49.12985408067336,1.660749000497952,0.7717299432589098,Right,Incorrect,0.0,0.0,-45,45,400,-1,-1
"{'cat': 'RB', 'resp': 'button'}",13,126,Left,31.907873651439502,58.76045181774543,1.595393682571975,0.9230070187612301,Left,Correct,0.0,0.0,-45,45,322,-1,-1
"{'cat': 'RB', 'resp': 'button'}",13,127,Left,39.46010996237379,19.08763990249888,1.9730054981186895,0.2998279464602894,Left,Correct,0.0,0.0,-45,45,269,-1,-1
"{'cat': 'RB', 'resp': 'button'}",13,128,Left,44.865346707338276,64.56632880946201,2.243267335366914,1.0142055212853442,Right,Incorrect,0.0,0.0,-45,45,450,-1,-1
"{'cat': 'RB', 'resp': 'button'}",13,129,Right,51.547678559361316,55.54500368550268,2.5773839279680657,0.8724988776099659,Left,Incorrect,0.0,0.0,-45,45,469,-1,-1
"{'cat': 'RB', 'resp': 'button'}",13,130,Left,41.48114599502405,38.03161183871343,2.074057299751203,0.5973991617834036,Left,Correct,0.0,0.0,-45,45,268,-1,-1
"{'cat': 'RB', 'resp': 'button'}",13,131,Left,33.26875991530247,28.999244382578986,1.6634379957651233,0.45551906555982613,Right,Incorrect,0.0,0.0,-45,45,338,-1,-1
"{'cat': 'RB', 'resp': 'button'}",13,132,Left,35.71567749884489,22.018426794408764,1.7857838749422443,0.34586463930459616,Left,Correct,0.0,0.0,-45,45,842,-1,-1
"{'cat': 'RB', 'resp': 'button'}",13,133,Left,41.08204710363696,14.051865726306445,2.0541023551818482,0.22072619067497265,Left,Correct,0.0,0.0,-45,45,346,-1,-1
"{'cat': 'RB', 'resp': 'button'}",13,134,Left,36.5175727871547,82.00194408993544,1.825878639357735,1.2880835256651106,Left,Correct,0.0,0.0,-45,45,461,-1,-1
"{'cat': 'RB', 'resp': 'button'}",13,135,Left,37.66169264277029,67.73891097474213,1.8830846321385144,1.0640403254021145,Right,Incorrect,0.0,0.0,-45,45,336,-1,-1
"{'cat': 'RB', 'resp': 'button'}",13,136,Right,67.13522653291348,36.252239029566105,3.3567613266456737,0.5694488390573302,Left,Incorrect,0.0,0.0,-45,45,367,-1,-1
"{'cat': 'RB', 'resp': 'button'}",13,137,Right,51.17535633180316,35.14102823797682,2.5587678165901577,0.5519939807600972,Right,Correct,0.0,0.0,-45,45,375,-1,-1
"{'cat': 'RB', 'resp': 'button'}",13,138,Left,42.57390465132055,80.9471791592998,2.1286952325660273,1.2715153168783653,Left,Correct,0.0,0.0,-45,45,425,-1,-1
"{'cat': 'RB', 'resp': 'button'}",13,139,Right,52.78671676483843,75.54298576801659,2.6393358382419216,1.1866264455951963,Right,Correct,0.0,0.0,-45,45,692,-1,-1
"{'cat': 'RB', 'resp': 'button'}",13,140,Right,56.68340091815884,74.75166851605316,2.8341700459079417,1.17419646326806,Left,Incorrect,0.0,0.0,-45,45,584,-1,-1
"{'cat': 'RB', 'resp': 'button'}",13,141,Left,31.59053835558307,63.86661600300154,1.5795269177791535,1.0032144582233498,Right,Incorrect,0.0,0.0,-45,45,644,-1,-1
"{'cat': 'RB', 'resp': 'button'}",13,142,Right,54.44649502724421,18.15549733065748,2.7223247513622106,0.28518588518131316,Left,Incorrect,0.0,0.0,-45,45,630,-1,-1
"{'cat': 'RB', 'resp': 'button'}",13,143,Left,42.491106755955855,72.9652459072845,2.124555337797793,1.1461354025484884,Right,Incorrect,0.0,0.0,-45,45,778,-1,-1
"{'cat': 'RB', 'resp': 'button'}",13,144,Right,56.02140399139861,56.2247736976671,2.8010701995699305,0.883176679991698,Left,Incorrect,0.0,0.0,-45,45,631,-1,-1
"{'cat': 'RB', 'resp': 'button'}",13,145,Left,40.56959228527093,88.9025550684041,2.028479614263546,1.3964780694413017,Left,Correct,0.0,0.0,-45,45,840,-1,-1
"{'cat': 'RB', 'resp': 'button'}",13,146,Left,33.27911741259342,30.101475686724026,1.663955870629671,0.4728328743981199,Left,Correct,0.0,0.0,-45,45,746,-1,-1
"{'cat': 'RB', 'resp': 'button'}",13,147,Right,60.8950640302795,29.067529046557585,3.0447532015139753,0.45659167855336613,Right,Correct,0.0,0.0,-45,45,501,-1,-1
"{'cat': 'RB', 'resp': 'button'}",13,148,Right,65.9349262624023,51.114254324313585,3.2967463131201153,0.8029008293949192,Left,Incorrect,0.0,0.0,-45,45,572,-1,-1
"{'cat': 'RB', 'resp': 'button'}",13,149,Right,65.82746570600553,58.87946793480167,3.291373285300276,0.9248765195562435,Right,Correct,0.0,0.0,-45,45,438,-1,-1
"{'cat': 'RB', 'resp': 'button'}",13,150,Left,40.47224304040044,23.014586592226177,2.023612152020022,0.3615122808177196,Left,Correct,0.0,0.0,-45,45,542,-1,-1
"{'cat': 'RB', 'resp': 'button'}",13,151,Left,39.858218108550155,40.891300641572016,1.9929109054275076,0.6423190484564713,Left,Correct,0.0,0.0,-45,45,348,-1,-1
"{'cat': 'RB', 'resp': 'button'}",13,152,Right,60.87575215984815,34.155627451967206,3.0437876079924076,0.5365153414092502,Left,Incorrect,0.0,0.0,-45,45,347,-1,-1
"{'cat': 'RB', 'resp': 'button'}",13,153,Right,55.96734013121603,68.36123871747596,2.7983670065608015,1.073815826725603,Left,Incorrect,0.0,0.0,-45,45,564,-1,-1
"{'cat': 'RB', 'resp': 'button'}",13,154,Left,44.95168377531948,47.086146615827005,2.247584188765974,0.7396274614706702,Left,Correct,0.0,0.0,-45,45,708,-1,-1
"{'cat': 'RB', 'resp': 'button'}",13,155,Left,36.757985632227715,70.70109132498523,1.8378992816113857,1.1105701455367731,Right,Incorrect,0.0,0.0,-45,45,307,-1,-1
"{'cat': 'RB', 'resp': 'button'}",13,156,Right,51.36874508826203,58.733255443224145,2.5684372544131016,0.9225798191092284,Left,Incorrect,0.0,0.0,-45,45,652,-1,-1
"{'cat': 'RB', 'resp': 'button'}",13,157,Right,51.441388184208414,54.58958600549356,2.5720694092104206,0.8574912117868336,Left,Incorrect,0.0,0.0,-45,45,425,-1,-1
"{'cat': 'RB', 'resp': 'button'}",13,158,Right,58.32948078638858,79.25764388493624,2.916474039319429,1.2449761588487585,Left,Incorrect,0.0,0.0,-45,45,320,-1,-1
"{'cat': 'RB', 'resp': 'button'}",13,159,Right,63.39044751300511,76.62620239702085,3.1695223756502555,1.2036415726148264,Left,Incorrect,0.0,0.0,-45,45,739,-1,-1
"{'cat': 'RB', 'resp': 'button'}",13,160,Left,33.187000963998045,58.109606672095865,1.6593500481999024,0.912783567120244,Right,Incorrect,0.0,0.0,-45,45,499,-1,-1
"{'cat': 'RB', 'resp': 'button'}",13,161,Right,57.6268430140176,53.58000932443024,2.8813421507008803,0.8416328183645133,Left,Incorrect,0.0,0.0,-45,45,542,-1,-1
"{'cat': 'RB', 'resp': 'button'}",13,162,Right,66.15256982380153,31.098621883590315,3.3076284911900764,0.48849601023127054,Left,Incorrect,0.0,0.0,-45,45,721,-1,-1
"{'cat': 'RB', 'resp': 'button'}",13,163,Right,58.73096245591324,86.295219758645,2.9365481227956622,1.3555221421683796,Right,Correct,0.0,0.0,-45,45,733,-1,-1
"{'cat': 'RB', 'resp': 'button'}",13,164,Left,46.104339768054814,32.739256879625,2.3052169884027407,0.5142670444850951,Left,Correct,0.0,0.0,-45,45,736,-1,-1
"{'cat': 'RB', 'resp': 'button'}",13,165,Right,61.41953205488637,61.10338783602691,3.0709766027443184,0.9598097716755504,Left,Incorrect,0.0,0.0,-45,45,469,-1,-1
"{'cat': 'RB', 'resp': 'button'}",13,166,Right,56.08005891639725,75.24261636692758,2.8040029458198625,1.181908254076074,Right,Correct,0.0,0.0,-45,45,461,-1,-1
"{'cat': 'RB', 'resp': 'button'}",13,167,Left,38.29379038676576,13.637247702829868,1.9146895193382878,0.21421338599197298,Left,Correct,0.0,0.0,-45,45,463,-1,-1
"{'cat': 'RB', 'resp': 'button'}",13,168,Left,39.168195208078686,41.768115110994344,1.9584097604039343,0.6560920179349632,Right,Incorrect,0.0,0.0,-45,45,449,-1,-1
"{'cat': 'RB', 'resp': 'button'}",13,169,Left,39.228149276608676,11.37440444710802,1.961407463830434,0.17866872724996816,Left,Correct,0.0,0.0,-45,45,356,-1,-1
"{'cat': 'RB', 'resp': 'button'}",13,170,Right,54.67940969181415,58.01584490713202,2.7339704845907074,0.9113107607602539,Left,Incorrect,0.0,0.0,-45,45,433,-1,-1
"{'cat': 'RB', 'resp': 'button'}",13,171,Right,62.154852787169744,37.98247462568382,3.107742639358487,0.596627316246045,Left,Incorrect,0.0,0.0,-45,45,621,-1,-1
"{'cat': 'RB', 'resp': 'button'}",13,172,Left,33.336497669092566,71.02879576796545,1.6668248834546284,1.1157177148898503,Left,Correct,0.0,0.0,-45,45,724,-1,-1
"{'cat': 'RB', 'resp': 'button'}",13,173,Right,52.27278993083426,68.59960507887831,2.6136394965417127,1.077560076774826,Right,Correct,0.0,0.0,-45,45,386,-1,-1
"{'cat': 'RB', 'resp': 'button'}",13,174,Right,57.896725170025576,30.05852985912401,2.8948362585012783,0.47215828291566714,Left,Incorrect,0.0,0.0,-45,45,556,-1,-1
"{'cat': 'RB', 'resp': 'button'}",13,175,Left,36.77947730459369,35.14026259647905,1.8389738652296845,0.5519819540915738,Right,Incorrect,0.0,0.0,-45,45,541,-1,-1
"{'cat': 'RB', 'resp': 'button'}",13,176,Right,58.8120889703455,34.33614491990312,2.940604448517275,0.5393509031648107,Left,Incorrect,0.0,0.0,-45,45,440,-1,-1
"{'cat': 'RB', 'resp': 'button'}",13,177,Right,58.337110932944,85.70756444269014,2.9168555466472004,1.3462912740511457,Left,Incorrect,0.0,0.0,-45,45,429,-1,-1
"{'cat': 'RB', 'resp': 'button'}",13,178,Right,59.011851616396896,21.838791401040858,2.9505925808198445,0.3430429331439495,Left,Incorrect,0.0,0.0,-45,45,435,-1,-1
"{'cat': 'RB', 'resp': 'button'}",13,179,Left,35.436035201371006,79.5844227278932,1.7718017600685503,1.2501091889106692,Right,Incorrect,0.0,0.0,-45,45,744,-1,-1
"{'cat': 'RB', 'resp': 'button'}",13,180,Left,46.55477701572942,24.91702764342942,2.327738850786471,0.3913957549694583,Left,Correct,0.0,0.0,-45,45,470,-1,-1
"{'cat': 'RB', 'resp': 'button'}",13,181,Right,52.36479595643844,31.835632164562764,2.6182397978219223,0.5000729406528865,Right,Correct,0.0,0.0,-45,45,750,-1,-1
"{'cat': 'RB', 'resp': 'button'}",13,182,Left,42.530222216033934,73.9443944935147,2.1265111108016965,1.1615158325748565,Right,Incorrect,0.0,0.0,-45,45,1064,-1,-1
"{'cat': 'RB', 'resp': 'button'}",13,183,Right,63.62280535073233,76.79142331925858,3.181140267536616,1.2062368567924335,Left,Incorrect,0.0,0.0,-45,45,1114,-1,-1
"{'cat': 'RB', 'resp': 'button'}",13,184,Left,32.09087715204351,55.56638368145755,1.6045438576021755,0.872834713801094,Right,Incorrect,0.0,0.0,-45,45,667,-1,-1
"{'cat': 'RB', 'resp': 'button'}",13,185,Left,43.019883612743115,25.176250709983055,2.1509941806371558,0.39546762137708785,Left,Correct,0.0,0.0,-45,45,294,-1,-1
"{'cat': 'RB', 'resp': 'button'}",13,186,Right,51.77278395532103,67.33858639185044,2.5886391977660512,1.0577520415587949,Left,Incorrect,0.0,0.0,-45,45,350,-1,-1
"{'cat': 'RB', 'resp': 'button'}",13,187,Right,60.44122252278388,28.742399674412237,3.022061126139194,0.45148455831837575,Right,Correct,0.0,0.0,-45,45,598,-1,-1
"{'cat': 'RB', 'resp': 'button'}",13,188,Left,41.55278871470464,84.15400146112805,2.077639435735232,1.3218879638023229,Right,Incorrect,0.0,0.0,-45,45,575,-1,-1
"{'cat': 'RB', 'resp': 'button'}",13,189,Left,35.7647256090548,85.04444634287941,1.78823628045274,1.3358750392970067,Left,Correct,0.0,0.0,-45,45,427,-1,-1
"{'cat': 'RB', 'resp': 'button'}",13,190,Left,35.99323566192834,27.077826092010362,1.799661783096417,0.4253374976292088,Left,Correct,0.0,0.0,-45,45,463,-1,-1
"{'cat': 'RB', 'resp': 'button'}",13,191,Right,67.43762453824208,71.52428737666871,3.3718812269121035,1.123500878878938,Right,Correct,0.0,0.0,-45,45,1204,-1,-1
"{'cat': 'RB', 'resp': 'button'}",13,192,Left,47.4790295503379,46.21357787761686,2.373951477516895,0.7259211837821046,Left,Correct,0.0,0.0,-45,45,1070,-1,-1
"{'cat': 'RB', 'resp': 'button'}",13,193,Left,45.06857805507358,83.40031013437331,2.253428902753679,1.3100490081262879,Left,Correct,0.0,0.0,-45,45,1104,-1,-1
"{'cat': 'RB', 'resp': 'button'}",13,194,Left,48.91469435407442,42.44296098215567,2.4457347177037208,0.6666924720906923,Right,Incorrect,0.0,0.0,-45,45,1283,-1,-1
"{'cat': 'RB', 'resp': 'button'}",13,195,Right,55.5693978896966,62.8699551981438,2.77846989448483,0.9875589469100399,Left,Incorrect,0.0,0.0,-45,45,1121,-1,-1
"{'cat': 'RB', 'resp': 'button'}",13,196,Right,63.24296037466238,81.69357545064129,3.162148018733119,1.2832396824060908,Right,Correct,0.0,0.0,-45,45,704,-1,-1
"{'cat': 'RB', 'resp': 'button'}",13,197,Right,55.30308163959261,70.99893161754139,2.7651540819796305,1.1152486099119605,Left,Incorrect,0.0,0.0,-45,45,518,-1,-1
"{'cat': 'RB', 'resp': 'button'}",13,198,Left,49.12850296302274,46.4930773673817,2.456425148151137,0.730311551500741,Right,Incorrect,0.0,0.0,-45,45,1004,-1,-1
"{'cat': 'RB', 'resp': 'button'}",13,199,Left,35.48168442637896,26.49901069448591,1.774084221318948,0.4162454866259715,Left,Correct,0.0,0.0,-45,45,493,-1,-1
"{'cat': 'RB', 'resp': 'button'}",13,200,Left,41.31920327167813,26.187272401124726,2.0659601635839064,0.41134871296464093,Right,Incorrect,0.0,0.0,-45,45,687,-1,-1
"{'cat': 'RB', 'resp': 'button'}",13,201,Right,59.662013839701686,86.5425425026465,2.983100691985084,1.3594070787464834,Left,Incorrect,0.0,0.0,-45,45,753,-1,-1
"{'cat': 'RB', 'resp': 'button'}",13,202,Left,35.59844394591092,70.0475116012755,1.7799221972955461,1.1003037392440647,Left,Correct,0.0,0.0,-45,45,476,-1,-1
"{'cat': 'RB', 'resp': 'button'}",13,203,Left,35.0569720551255,32.93808877706488,1.7528486027562749,0.5173902886265771,Left,Correct,0.0,0.0,-45,45,479,-1,-1
"{'cat': 'RB', 'resp': 'button'}",13,204,Right,64.98778281830116,31.79637519467855,3.249389140915058,0.4994562936119342,Right,Correct,0.0,0.0,-45,45,578,-1,-1
"{'cat': 'RB', 'resp': 'button'}",13,205,Right,62.40508750978266,23.131584336307025,3.120254375489133,0.3633500770841744,Left,Incorrect,0.0,0.0,-45,45,508,-1,-1
"{'cat': 'RB', 'resp': 'button'}",13,206,Left,37.34120158893721,82.20893879774194,1.8670600794468606,1.2913349909319949,Left,Correct,0.0,0.0,-45,45,680,-1,-1
"{'cat': 'RB', 'resp': 'button'}",13,207,Left,32.328083166377084,29.356159918040085,1.6164041583188544,0.4611254816806094,Right,Incorrect,0.0,0.0,-45,45,708,-1,-1
"{'cat': 'RB', 'resp': 'button'}",13,208,Left,32.06207548441741,53.572019041525195,1.6031037742208707,0.8415073072941402,Left,Correct,0.0,0.0,-45,45,483,-1,-1
"{'cat': 'RB', 'resp': 'button'}",13,209,Left,45.36166077656301,23.874108636993924,2.2680830388281508,0.37501362152492373,Left,Correct,0.0,0.0,-45,45,776,-1,-1
"{'cat': 'RB', 'resp': 'button'}",13,210,Right,59.52780203940128,65.60615164760264,2.9763901019700643,1.030539020232032,Left,Incorrect,0.0,0.0,-45,45,834,-1,-1
"{'cat': 'RB', 'resp': 'button'}",13,211,Left,46.95194219543607,31.03328573642044,2.347597109771803,0.4874697124314568,Left,Correct,0.0,0.0,-45,45,484,-1,-1
"{'cat': 'RB', 'resp': 'button'}",13,212,Left,35.025009726935096,77.29257114136755,1.7512504863467546,1.2141088683739336,Left,Correct,0.0,0.0,-45,45,754,-1,-1
"{'cat': 'RB', 'resp': 'button'}",13,213,Left,38.90171196298674,86.09561616544386,1.9450855981493367,1.3523867762582253,Right,Incorrect,0.0,0.0,-45,45,1172,-1,-1
"{'cat': 'RB', 'resp': 'button'}",13,214,Right,69.30677624118894,44.287426647582976,3.465338812059447,0.6956652710122176,Left,Incorrect,0.0,0.0,-45,45,662,-1,-1
"{'cat': 'RB', 'resp': 'button'}",13,215,Right,53.663553853354735,76.12052785867493,2.6831776926677366,1.1956984555409518,Left,Incorrect,0.0,0.0,-45,45,570,-1,-1
"{'cat': 'RB', 'resp': 'button'}",13,216,Left,32.66471092421878,56.72364357362876,1.6332355462109391,0.89101290967879,Right,Incorrect,0.0,0.0,-45,45,1117,-1,-1
"{'cat': 'RB', 'resp': 'button'}",13,217,Left,41.97372472791018,11.722172712649275,2.0986862363955088,0.18413145839084852,Left,Correct,0.0,0.0,-45,45,317,-1,-1
"{'cat': 'RB', 'resp': 'button'}",13,218,Right,53.59822033145418,74.50699084660027,2.679911016572709,1.170353075423807,Right,Correct,0.0,0.0,-45,45,773,-1,-1
"{'cat': 'RB', 'resp': 'button'}",13,219,Left,41.072409248190674,80.51832054526975,2.0536204624095338,1.2647788215220375,Left,Correct,0.0,0.0,-45,45,799,-1,-1
"{'cat': 'RB', 'resp': 'button'}",13,220,Left,46.25800762501997,48.62927879284855,2.3129003812509983,0.7638669250249147,Right,Incorrect,0.0,0.0,-45,45,681,-1,-1
"{'cat': 'RB', 'resp': 'button'}",13,221,Left,35.58370335995875,56.734130574108214,1.7791851679979374,0.8911776390971122,Left,Correct,0.0,0.0,-45,45,447,-1,-1
"{'cat': 'RB', 'resp': 'button'}",13,222,Right,57.13582961309161,88.65291151164678,2.8567914806545804,1.3925566776216776,Left,Incorrect,0.0,0.0,-45,45,400,-1,-1
"{'cat': 'RB', 'resp': 'button'}",13,223,Right,53.829735336248135,80.5364740420706,2.6914867668124067,1.2650639759829703,Right,Correct,0.0,0.0,-45,45,653,-1,-1
"{'cat': 'RB', 'resp': 'button'}",13,224,Left,31.142219337051223,54.94841239962006,1.5571109668525611,0.8631276436053436,Right,Incorrect,0.0,0.0,-45,45,798,-1,-1
"{'cat': 'RB', 'resp': 'button'}",13,225,Right,66.19505268081944,20.174456471870375,3.309752634040972,0.31689962121097515,Left,Incorrect,0.0,0.0,-45,45,609,-1,-1
"{'cat': 'RB', 'resp': 'button'}",13,226,Right,65.46713664145436,81.06743120176463,3.273356832072718,1.2734042315442988,Left,Incorrect,0.0,0.0,-45,45,735,-1,-1
"{'cat': 'RB', 'resp': 'button'}",13,227,Left,37.747300520465835,80.85243707324318,1.887365026023292,1.2700271116706592,Left,Correct,0.0,0.0,-45,45,649,-1,-1
"{'cat': 'RB', 'resp': 'button'}",13,228,Right,53.31576757895353,60.33930316615226,2.665788378947677,0.9478075577475564,Right,Correct,0.0,0.0,-45,45,5112,-1,-1
"{'cat': 'RB', 'resp': 'button'}",13,229,Right,66.55203229009133,52.4801566146919,3.327601614504567,0.8243563723997891,Left,Incorrect,0.0,0.0,-45,45,1265,-1,-1
"{'cat': 'RB', 'resp': 'button'}",13,230,Left,33.80694896875608,30.05791266671581,1.690347448437804,0.4721485880799899,Right,Incorrect,0.0,0.0,-45,45,1287,-1,-1
"{'cat': 'RB', 'resp': 'button'}",13,231,Left,43.13604304721441,23.09599660693853,2.1568021523607204,0.36279106633846436,Left,Correct,0.0,0.0,-45,45,1638,-1,-1
"{'cat': 'RB', 'resp': 'button'}",13,232,Left,42.63135222815371,73.61890408632276,2.1315676114076854,1.1564030412146158,Left,Correct,0.0,0.0,-45,45,1234,-1,-1
"{'cat': 'RB', 'resp': 'button'}",13,233,Left,44.15925734183791,66.17062908731666,2.2079628670918954,1.0394058111206455,Right,Incorrect,0.0,0.0,-45,45,1315,-1,-1
"{'cat': 'RB', 'resp': 'button'}",13,234,Left,47.37433362453309,55.285704390209396,2.3687166812266542,0.8684258138040939,Left,Correct,0.0,0.0,-45,45,1571,-1,-1
"{'cat': 'RB', 'resp': 'button'}",13,235,Right,66.83208363678972,32.998542485316065,3.341604181839486,0.5183398932551981,Right,Correct,0.0,0.0,-45,45,1460,-1,-1
"{'cat': 'RB', 'resp': 'button'}",13,236,Right,68.18905642008002,31.2746704617907,3.409452821004001,0.49126137483101673,Left,Incorrect,0.0,0.0,-45,45,1287,-1,-1
"{'cat': 'RB', 'resp': 'button'}",13,237,Right,60.021225552463505,11.992314746170955,3.0010612776231755,0.1883748395305361,Right,Correct,0.0,0.0,-45,45,1442,-1,-1
"{'cat': 'RB', 'resp': 'button'}",13,238,Right,63.3732473251376,81.76213230555472,3.16866236625688,1.2843165709648372,Left,Incorrect,0.0,0.0,-45,45,1239,-1,-1
"{'cat': 'RB', 'resp': 'button'}",13,239,Right,61.896840142185766,75.43599543702496,3.094842007109288,1.1849458454059538,Right,Correct,0.0,0.0,-45,45,1144,-1,-1
"{'cat': 'RB', 'resp': 'button'}",13,240,Right,58.4993586751622,71.74393017697047,2.9249679337581096,1.1269510199181474,Left,Incorrect,0.0,0.0,-45,45,762,-1,-1
"{'cat': 'RB', 'resp': 'button'}",13,241,Right,63.9116984539006,33.95876438381096,3.19558492269503,0.5334230235658362,Right,Correct,0.0,0.0,-45,45,1262,-1,-1
"{'cat': 'RB', 'resp': 'button'}",13,242,Left,39.27325172442794,27.77110164009724,1.9636625862213972,0.43622744447312467,Right,Incorrect,0.0,0.0,-45,45,1180,-1,-1
"{'cat': 'RB', 'resp': 'button'}",13,243,Right,55.611804035273636,57.34349124679054,2.7805902017636814,0.9007494541605389,Left,Incorrect,0.0,0.0,-45,45,1087,-1,-1
"{'cat': 'RB', 'resp': 'button'}",13,244,Right,64.0590548941057,37.56205227012004,3.2029527447052852,0.5900233373278246,Left,Incorrect,0.0,0.0,-45,45,1248,-1,-1
"{'cat': 'RB', 'resp': 'button'}",13,245,Left,34.230095865189135,23.091642946401585,1.7115047932594567,0.36272267919866896,Right,Incorrect,0.0,0.0,-45,45,1125,-1,-1
"{'cat': 'RB', 'resp': 'button'}",13,246,Right,63.54295733219141,77.65980980803434,3.177147866609571,1.2198774398605063,Left,Incorrect,0.0,0.0,-45,45,1220,-1,-1
"{'cat': 'RB', 'resp': 'button'}",13,247,Left,39.55820212887753,51.487175059873564,1.9779101064438764,0.808758654610952,Left,Correct,0.0,0.0,-45,45,1929,-1,-1
"{'cat': 'RB', 'resp': 'button'}",13,248,Right,51.631982085784735,31.804236961797702,2.581599104289237,0.4995797859610631,Left,Incorrect,0.0,0.0,-45,45,1604,-1,-1
"{'cat': 'RB', 'resp': 'button'}",13,249,Left,37.342480991947326,28.967352204419708,1.8671240495973662,0.4550181043967653,Right,Incorrect,0.0,0.0,-45,45,1804,-1,-1
"{'cat': 'RB', 'resp': 'button'}",13,250,Left,40.83672287865,22.17140745629961,2.0418361439325,0.3482676539222841,Left,Correct,0.0,0.0,-45,45,1858,-1,-1
"{'cat': 'RB', 'resp': 'button'}",13,251,Right,53.84383987618438,25.131636657366705,2.692191993809219,0.3947668254773559,Left,Incorrect,0.0,0.0,-45,45,1472,-1,-1
"{'cat': 'RB', 'resp': 'button'}",13,252,Right,61.8024787850278,71.31225290679207,3.09012393925139,1.1201702492145766,Left,Incorrect,0.0,0.0,-45,45,1567,-1,-1
"{'cat': 'RB', 'resp': 'button'}",13,253,Left,33.42221405795501,60.25365723545383,1.6711107028977505,0.9464622346140961,Right,Incorrect,0.0,0.0,-45,45,931,-1,-1
"{'cat': 'RB', 'resp': 'button'}",13,254,Right,60.42310985114715,80.93949208188431,3.0211554925573574,1.271394568548685,Right,Correct,0.0,0.0,-45,45,1418,-1,-1
"{'cat': 'RB', 'resp': 'button'}",13,255,Left,31.315019736374634,55.285076104509656,1.5657509868187316,0.8684159447154008,Left,Correct,0.0,0.0,-45,45,868,-1,-1
"{'cat': 'RB', 'resp': 'button'}",13,256,Left,36.86343850494937,21.620608633796763,1.8431719252474688,0.33961572625037983,Left,Correct,0.0,0.0,-45,45,1092,-1,-1
"{'cat': 'RB', 'resp': 'button'}",13,257,Right,52.906909956063906,34.804055867841726,2.6453454978031954,0.5467008311477015,Right,Correct,0.0,0.0,-45,45,799,-1,-1
"{'cat': 'RB', 'resp': 'button'}",13,258,Left,45.63708458889,42.32676490248151,2.2818542294445,0.664867268339291,Right,Incorrect,0.0,0.0,-45,45,1532,-1,-1
"{'cat': 'RB', 'resp': 'button'}",13,259,Right,54.13151413146175,63.80673623462198,2.706575706573087,1.0022738690211503,Right,Correct,0.0,0.0,-45,45,1620,-1,-1
"{'cat': 'RB', 'resp': 'button'}",13,260,Right,56.049192134283786,71.70502606083487,2.802459606714189,1.1263399154909175,Right,Correct,0.0,0.0,-45,45,960,-1,-1
"{'cat': 'RB', 'resp': 'button'}",13,261,Right,52.27565524630322,66.76655711625659,2.6137827623151613,1.0487666267095752,Right,Correct,0.0,0.0,-45,45,1456,-1,-1
"{'cat': 'RB', 'resp': 'button'}",13,262,Right,55.85400073827382,14.347825146680819,2.7927000369136907,0.22537511037901675,Right,Correct,0.0,0.0,-45,45,884,-1,-1
"{'cat': 'RB', 'resp': 'button'}",13,263,Left,46.896888954794036,29.066621878503376,2.344844447739702,0.4565774287908928,Right,Incorrect,0.0,0.0,-45,45,993,-1,-1
"{'cat': 'RB', 'resp': 'button'}",13,264,Right,60.89587192799136,85.43438175191406,3.044793596399568,1.3420001303789957,Right,Correct,0.0,0.0,-45,45,1048,-1,-1
"{'cat': 'RB', 'resp': 'button'}",13,265,Right,64.674428359086,61.976591265378886,3.2337214179542997,0.9735260190692583,Right,Correct,0.0,0.0,-45,45,673,-1,-1
"{'cat': 'RB', 'resp': 'button'}",13,266,Right,56.07843823241674,21.71233102233592,2.803921911620837,0.3410564981604015,Right,Correct,0.0,0.0,-45,45,779,-1,-1
"{'cat': 'RB', 'resp': 'button'}",13,267,Right,68.11536988598229,44.85254885846338,3.4057684942991147,0.7045421899426291,Right,Correct,0.0,0.0,-45,45,629,-1,-1
"{'cat': 'RB', 'resp': 'button'}",13,268,Left,33.581991423426494,78.12876706377473,1.6790995711713248,1.2272438032079143,Left,Correct,0.0,0.0,-45,45,641,-1,-1
"{'cat': 'RB', 'resp': 'button'}",13,269,Right,52.3121115047592,35.10320082913773,2.61560557523796,0.5513997892115311,Right,Correct,0.0,0.0,-45,45,654,-1,-1
"{'cat': 'RB', 'resp': 'button'}",13,270,Right,68.37454082802944,45.016594218675166,3.418727041401472,0.7071190084351133,Right,Correct,0.0,0.0,-45,45,1090,-1,-1
"{'cat': 'RB', 'resp': 'button'}",13,271,Left,31.954452971176394,60.49158822319908,1.5977226485588198,0.9501996458299053,Left,Correct,0.0,0.0,-45,45,594,-1,-1
"{'cat': 'RB', 'resp': 'button'}",13,272,Left,48.85503805651308,42.60810724775908,2.442751902825654,0.6692865835646297,Right,Incorrect,0.0,0.0,-45,45,1545,-1,-1
"{'cat': 'RB', 'resp': 'button'}",13,273,Right,66.64315102669309,30.108145171630262,3.3321575513346544,0.47293763842204317,Right,Correct,0.0,0.0,-45,45,608,-1,-1
"{'cat': 'RB', 'resp': 'button'}",13,274,Right,60.30115186055008,82.5836996708847,3.015057593027504,1.297221720961586,Right,Correct,0.0,0.0,-45,45,619,-1,-1
"{'cat': 'RB', 'resp': 'button'}",13,275,Right,55.83636027953398,36.61292745047933,2.791818013976699,0.5751145195242097,Right,Correct,0.0,0.0,-45,45,623,-1,-1
"{'cat': 'RB', 'resp': 'button'}",13,276,Right,65.89028390549505,72.37773848967387,3.2945141952747523,1.136906857613013,Right,Correct,0.0,0.0,-45,45,604,-1,-1
"{'cat': 'RB', 'resp': 'button'}",13,277,Right,62.288560021560514,89.84151599549635,3.1144280010780254,1.4112272331941063,Right,Correct,0.0,0.0,-45,45,615,-1,-1
"{'cat': 'RB', 'resp': 'button'}",13,278,Left,45.66108615150701,23.49960162707031,2.28305430757535,0.3691308791694542,Left,Correct,0.0,0.0,-45,45,875,-1,-1
"{'cat': 'RB', 'resp': 'button'}",13,279,Right,56.8834995799532,84.10488691651344,2.8441749789976605,1.3211164743395944,Left,Incorrect,0.0,0.0,-45,45,1217,-1,-1
"{'cat': 'RB', 'resp': 'button'}",13,280,Right,67.55875207186313,61.32197115610427,3.377937603593156,0.9632432704383117,Left,Incorrect,0.0,0.0,-45,45,667,-1,-1
"{'cat': 'RB', 'resp': 'button'}",13,281,Right,62.755635687813616,73.96173289539435,3.137781784390681,1.1617881835547073,Right,Correct,0.0,0.0,-45,45,712,-1,-1
"{'cat': 'RB', 'resp': 'button'}",13,282,Right,55.906410976485716,51.582500810121395,2.7953205488242863,0.8102560279943346,Right,Correct,0.0,0.0,-45,45,649,-1,-1
"{'cat': 'RB', 'resp': 'button'}",13,283,Right,66.69401739054868,49.95546186699701,3.334700869527434,0.7846985600402143,Right,Correct,0.0,0.0,-45,45,524,-1,-1
"{'cat': 'RB', 'resp': 'button'}",13,284,Right,53.93016983360611,39.19477839703596,2.6965084916803055,0.6156701393560405,Right,Correct,0.0,0.0,-45,45,565,-1,-1
"{'cat': 'RB', 'resp': 'button'}",13,285,Right,60.359553920038465,51.250466594200056,3.0179776960019233,0.8050404467269399,Right,Correct,0.0,0.0,-45,45,526,-1,-1
"{'cat': 'RB', 'resp': 'button'}",13,286,Right,60.590306778722066,51.543692692641635,3.029515338936103,0.8096464315104643,Right,Correct,0.0,0.0,-45,45,629,-1,-1
"{'cat': 'RB', 'resp': 'button'}",13,287,Left,34.43047215967472,25.97146260776955,1.721523607983736,0.4079587806577542,Left,Correct,0.0,0.0,-45,45,640,-1,-1
"{'cat': 'RB', 'resp': 'button'}",13,288,Right,53.345896250374906,26.44238112754074,2.6672948125187452,0.41535595146851695,Right,Correct,0.0,0.0,-45,45,1222,-1,-1
"{'cat': 'RB', 'resp': 'button'}",13,289,Left,44.83564990090076,26.71485432215436,2.241782495045038,0.4196359504010084,Left,Correct,0.0,0.0,-45,45,906,-1,-1
"{'cat': 'RB', 'resp': 'button'}",13,290,Left,32.96964349162687,63.08862461453467,1.6484821745813434,0.9909937980705317,Left,Correct,0.0,0.0,-45,45,436,-1,-1
"{'cat': 'RB', 'resp': 'button'}",13,291,Right,58.96075958452281,22.520186096103643,2.948037979226141,0.35374625598497106,Right,Correct,0.0,0.0,-45,45,554,-1,-1
"{'cat': 'RB', 'resp': 'button'}",13,292,Left,46.5497851636735,27.817269558631995,2.327489258183675,0.4369526484416263,Left,Correct,0.0,0.0,-45,45,1793,-1,-1
"{'cat': 'RB', 'resp': 'button'}",13,293,Left,36.017791848739975,17.18935264924535,1.800889592436999,0.2700097200141672,Left,Correct,0.0,0.0,-45,45,570,-1,-1
"{'cat': 'RB', 'resp': 'button'}",13,294,Right,55.18558316521431,81.15791211958077,2.759279158260716,1.2748255024778048,Right,Correct,0.0,0.0,-45,45,882,-1,-1
"{'cat': 'RB', 'resp': 'button'}",13,295,Right,51.94870028704144,54.05533058209588,2.597435014352072,0.8490991472204005,Right,Correct,0.0,0.0,-45,45,1512,-1,-1
"{'cat': 'RB', 'resp': 'button'}",13,296,Right,60.115960171990466,16.118592121365424,3.0057980085995233,0.25319025297345965,Right,Correct,0.0,0.0,-45,45,703,-1,-1
"{'cat': 'RB', 'resp': 'button'}",13,297,Left,32.13944284423822,66.40152008371373,1.6069721422119108,1.043032638410951,Left,Correct,0.0,0.0,-45,45,604,-1,-1
"{'cat': 'RB', 'resp': 'button'}",13,298,Left,40.1174452975068,88.77380121466713,2.00587226487534,1.3944556086361946,Left,Correct,0.0,0.0,-45,45,553,-1,-1
"{'cat': 'RB', 'resp': 'button'}",13,299,Right,51.668809977707426,50.911501179530994,2.5834404988853716,0.7997159904442133,Right,Correct,0.0,0.0,-45,45,1180,-1,-1
"{'cat': 'RB', 'resp': 'button'}",13,300,Right,67.36965918429118,59.88855610914142,3.368482959214559,0.940727239532894,Right,Correct,0.0,0.0,-45,45,895,-1,-1
"{'cat': 'RB', 'resp': 'button'}",13,301,Left,44.29326296621501,29.227508296451372,2.2146631483107506,0.45910462673433183,Left,Correct,0.0,0.0,-45,45,895,-1,-1
"{'cat': 'RB', 'resp': 'button'}",13,302,Left,46.34375986710502,44.38157104596731,2.317187993355251,0.6971440877639219,Right,Incorrect,0.0,0.0,-45,45,1271,-1,-1
"{'cat': 'RB', 'resp': 'button'}",13,303,Right,58.23547084352433,36.24166089757956,2.9117735421762165,0.569282678148642,Right,Correct,0.0,0.0,-45,45,686,-1,-1
"{'cat': 'RB', 'resp': 'button'}",13,304,Right,60.99392497477169,90.78131038613122,3.0496962487385844,1.4259894889616231,Right,Correct,0.0,0.0,-45,45,713,-1,-1
"{'cat': 'RB', 'resp': 'button'}",13,305,Left,37.412889441521905,19.95076141745872,1.8706444720760953,0.31338582751305494,Left,Correct,0.0,0.0,-45,45,544,-1,-1
"{'cat': 'RB', 'resp': 'button'}",13,306,Right,61.3460033535835,42.45668855584497,3.067300167679175,0.666908104313962,Right,Correct,0.0,0.0,-45,45,483,-1,-1
"{'cat': 'RB', 'resp': 'button'}",13,307,Right,53.29638745586515,43.15184697524353,2.664819372793257,0.6778276272312801,Right,Correct,0.0,0.0,-45,45,790,-1,-1
"{'cat': 'RB', 'resp': 'button'}",13,308,Right,65.5087262610701,44.65900634534609,3.2754363130535045,0.7015020312557961,Right,Correct,0.0,0.0,-45,45,831,-1,-1
"{'cat': 'RB', 'resp': 'button'}",13,309,Left,42.85013398216394,53.26310153104274,2.1425066991081967,0.8366548423866557,Left,Correct,0.0,0.0,-45,45,1170,-1,-1
"{'cat': 'RB', 'resp': 'button'}",13,310,Left,48.11423725343721,40.43382202354299,2.4057118626718603,0.6351329911285991,Left,Correct,0.0,0.0,-45,45,835,-1,-1
"{'cat': 'RB', 'resp': 'button'}",13,311,Right,61.856182254204064,63.19140620613726,3.0928091127102033,0.9926082875360465,Right,Correct,0.0,0.0,-45,45,735,-1,-1
"{'cat': 'RB', 'resp': 'button'}",13,312,Right,67.23051270036383,38.740808631195264,3.3615256350181912,0.6085391989494555,Right,Correct,0.0,0.0,-45,45,664,-1,-1
"{'cat': 'RB', 'resp': 'button'}",13,313,Left,37.54849144800887,29.007351486918463,1.8774245724004432,0.45564641165700004,Left,Correct,0.0,0.0,-45,45,660,-1,-1
"{'cat': 'RB', 'resp': 'button'}",13,314,Left,45.315201970841116,35.34664032578821,2.2657600985420556,0.5552237278828848,Left,Correct,0.0,0.0,-45,45,938,-1,-1
"{'cat': 'RB', 'resp': 'button'}",13,315,Left,48.39992856319317,66.12915627796856,2.419996428159658,1.0387543577547869,Right,Incorrect,0.0,0.0,-45,45,1208,-1,-1
"{'cat': 'RB', 'resp': 'button'}",13,316,Left,42.59809065781104,37.87438958722845,2.129904532890552,0.5949295204321733,Left,Correct,0.0,0.0,-45,45,648,-1,-1
"{'cat': 'RB', 'resp': 'button'}",13,317,Left,41.357294799857556,22.060936967374808,2.067864739992878,0.34653238754006094,Left,Correct,0.0,0.0,-45,45,565,-1,-1
"{'cat': 'RB', 'resp': 'button'}",13,318,Right,59.02565332301419,80.39339984036607,2.9512826661507097,1.2628165716780047,Right,Correct,0.0,0.0,-45,45,1901,-1,-1
"{'cat': 'RB', 'resp': 'button'}",13,319,Left,35.682444879710026,27.35774758766723,1.7841222439855013,0.4297344942008963,Left,Correct,0.0,0.0,-45,45,557,-1,-1
"{'cat': 'RB', 'resp': 'button'}",13,320,Right,57.383908741135805,77.15747803180959,2.8691954370567903,1.2119868307712443,Right,Correct,0.0,0.0,-45,45,632,-1,-1
"{'cat': 'RB', 'resp': 'button'}",13,321,Right,59.76912163121415,35.88912366473084,2.9884560815607073,0.56374503624447,Right,Correct,0.0,0.0,-45,45,799,-1,-1
"{'cat': 'RB', 'resp': 'button'}",13,322,Right,63.523301458514645,75.61593566614985,3.1761650729257322,1.187772339915474,Right,Correct,0.0,0.0,-45,45,616,-1,-1
"{'cat': 'RB', 'resp': 'button'}",13,323,Left,41.577093276433914,39.5498688516531,2.0788546638216956,0.6212478871739658,Left,Correct,0.0,0.0,-45,45,688,-1,-1
"{'cat': 'RB', 'resp': 'button'}",13,324,Left,35.51042287850332,75.9359690438013,1.7755211439251661,1.1927994124561407,Left,Correct,0.0,0.0,-45,45,567,-1,-1
"{'cat': 'RB', 'resp': 'button'}",13,325,Left,36.024548122919384,35.11420216363481,1.8012274061459692,0.5515725977697097,Left,Correct,0.0,0.0,-45,45,639,-1,-1
"{'cat': 'RB', 'resp': 'button'}",13,326,Right,67.32057661389496,63.03032811472924,3.3660288306947477,0.9900780787929377,Right,Correct,0.0,0.0,-45,45,779,-1,-1
"{'cat': 'RB', 'resp': 'button'}",13,327,Right,62.20937607156564,30.962818817307447,3.110468803578282,0.4863628206544244,Right,Correct,0.0,0.0,-45,45,1395,-1,-1
"{'cat': 'RB', 'resp': 'button'}",13,328,Right,64.90534543085515,72.61433062966765,3.2452672715427577,1.140623238257521,Right,Correct,0.0,0.0,-45,45,668,-1,-1
"{'cat': 'RB', 'resp': 'button'}",13,329,Right,62.92408041245357,50.6377865679725,3.1462040206226782,0.7954164913799515,Right,Correct,0.0,0.0,-45,45,762,-1,-1
"{'cat': 'RB', 'resp': 'button'}",13,330,Left,44.10505452778478,47.987786854579575,2.2052527263892387,0.7537903932219001,Left,Correct,0.0,0.0,-45,45,1600,-1,-1
"{'cat': 'RB', 'resp': 'button'}",13,331,Left,46.64400170942619,71.43198833527302,2.3322000854713094,1.1220510489270275,Left,Correct,0.0,0.0,-45,45,724,-1,-1
"{'cat': 'RB', 'resp': 'button'}",13,332,Right,62.333567893528276,23.956112580396997,3.116678394676414,0.3763017364557262,Right,Correct,0.0,0.0,-45,45,605,-1,-1
"{'cat': 'RB', 'resp': 'button'}",13,333,Right,61.58207845489266,46.13304510523932,3.0791039227446326,0.724656177951732,Right,Correct,0.0,0.0,-45,45,599,-1,-1
"{'cat': 'RB', 'resp': 'button'}",13,334,Left,46.22633804355185,74.64121065257739,2.3113169021775923,1.1724613952059266,Left,Correct,0.0,0.0,-45,45,589,-1,-1
"{'cat': 'RB', 'resp': 'button'}",13,335,Left,43.71869771936653,86.0477852802785,2.1859348859683267,1.3516354504709744,Left,Correct,0.0,0.0,-45,45,665,-1,-1
"{'cat': 'RB', 'resp': 'button'}",13,336,Right,55.04663846092023,26.666449755517817,2.752331923046011,0.41887561324628053,Right,Correct,0.0,0.0,-45,45,788,-1,-1
"{'cat': 'RB', 'resp': 'button'}",13,337,Left,37.34486210865417,71.86144972141281,1.8672431054327085,1.128797012605514,Left,Correct,0.0,0.0,-45,45,802,-1,-1
"{'cat': 'RB', 'resp': 'button'}",13,338,Left,45.8986129877648,75.53433499207223,2.29493064938824,1.1864905595244226,Left,Correct,0.0,0.0,-45,45,645,-1,-1
"{'cat': 'RB', 'resp': 'button'}",13,339,Left,37.87405871382492,42.83276378545091,1.893702935691246,0.6728154802065975,Left,Correct,0.0,0.0,-45,45,513,-1,-1
"{'cat': 'RB', 'resp': 'button'}",13,340,Right,65.23775945387453,78.9178962372653,3.2618879726937267,1.2396394152787713,Right,Correct,0.0,0.0,-45,45,744,-1,-1
"{'cat': 'RB', 'resp': 'button'}",13,341,Left,34.90461160480559,65.67870857164411,1.7452305802402792,1.0316787417297104,Left,Correct,0.0,0.0,-45,45,592,-1,-1
"{'cat': 'RB', 'resp': 'button'}",13,342,Right,52.09712495930463,43.719577479475795,2.6048562479652317,0.6867455171378546,Right,Correct,0.0,0.0,-45,45,1013,-1,-1
"{'cat': 'RB', 'resp': 'button'}",13,343,Right,62.304123615766535,15.470495124054857,3.1152061807883267,0.2430099691456373,Right,Correct,0.0,0.0,-45,45,726,-1,-1
"{'cat': 'RB', 'resp': 'button'}",13,344,Right,64.44176651955067,75.85528098625693,3.2220883259775337,1.1915319674120717,Right,Correct,0.0,0.0,-45,45,717,-1,-1
"{'cat': 'RB', 'resp': 'button'}",13,345,Left,43.39829489079642,58.819058869289975,2.1699147445398212,0.9239276161741348,Right,Incorrect,0.0,0.0,-45,45,1325,-1,-1
"{'cat': 'RB', 'resp': 'button'}",13,346,Right,68.36813912066837,69.27787572551426,3.4184069560334187,1.0882143271779112,Right,Correct,0.0,0.0,-45,45,700,-1,-1
"{'cat': 'RB', 'resp': 'button'}",13,347,Left,46.96621649752635,24.878564923740612,2.348310824876317,0.3907915839814011,Left,Correct,0.0,0.0,-45,45,908,-1,-1
"{'cat': 'RB', 'resp': 'button'}",13,348,Left,38.56524011664278,75.7213684753238,1.9282620058321387,1.1894284746092152,Left,Correct,0.0,0.0,-45,45,1370,-1,-1
"{'cat': 'RB', 'resp': 'button'}",13,349,Right,63.629446163792714,37.2578077497682,3.181472308189636,0.5852442755776632,Right,Correct,0.0,0.0,-45,45,686,-1,-1
"{'cat': 'RB', 'resp': 'button'}",13,350,Left,46.19645131298567,41.965777968783776,2.309822565649284,0.6591968988445575,Left,Correct,0.0,0.0,-45,45,1447,-1,-1
"{'cat': 'RB', 'resp': 'button'}",13,351,Left,47.44725650468593,63.097181380539574,2.3723628252342963,0.9911282074366292,Left,Correct,0.0,0.0,-45,45,1506,-1,-1
"{'cat': 'RB', 'resp': 'button'}",13,352,Left,49.328337024104044,54.07696706381306,2.466416851205202,0.8494390122804614,Left,Correct,0.0,0.0,-45,45,595,-1,-1
"{'cat': 'RB', 'resp': 'button'}",13,353,Right,65.61357487017872,51.0703020358889,3.2806787435089357,0.802210428462802,Right,Correct,0.0,0.0,-45,45,672,-1,-1
"{'cat': 'RB', 'resp': 'button'}",13,354,Left,42.32391284765882,80.71960118964014,2.116195642382941,1.267940530490357,Left,Correct,0.0,0.0,-45,45,489,-1,-1
"{'cat': 'RB', 'resp': 'button'}",13,355,Right,55.84521452758734,21.450267088408467,2.7922607263793666,0.3369400075124148,Right,Correct,0.0,0.0,-45,45,1241,-1,-1
"{'cat': 'RB', 'resp': 'button'}",13,356,Right,68.82985769039308,48.585498417363674,3.4414928845196537,0.7631792244949412,Right,Correct,0.0,0.0,-45,45,878,-1,-1
"{'cat': 'RB', 'resp': 'button'}",13,357,Left,32.05382815591123,46.33163669948922,1.6026914077955616,0.727775647419533,Left,Correct,0.0,0.0,-45,45,611,-1,-1
"{'cat': 'RB', 'resp': 'button'}",13,358,Left,36.84544860644606,67.41810594832153,1.8422724303223033,1.0590011318309263,Left,Correct,0.0,0.0,-45,45,646,-1,-1
"{'cat': 'RB', 'resp': 'button'}",13,359,Left,38.89814842039903,72.74309321877965,1.9449074210199515,1.1426458362775782,Left,Correct,0.0,0.0,-45,45,472,-1,-1
"{'cat': 'RB', 'resp': 'button'}",13,360,Right,56.21649704176299,84.88731343392669,2.8108248520881496,1.3334068013349913,Right,Correct,0.0,0.0,-45,45,563,-1,-1
"{'cat': 'RB', 'resp': 'button'}",13,361,Right,62.957514678717835,48.530939507676706,3.147875733935892,0.7623222151456389,Right,Correct,0.0,0.0,-45,45,727,-1,-1
"{'cat': 'RB', 'resp': 'button'}",13,362,Right,66.3510054779,43.01995286841324,3.3175502738950002,0.6757558394459309,Right,Correct,0.0,0.0,-45,45,648,-1,-1
"{'cat': 'RB', 'resp': 'button'}",13,363,Right,50.57748248394901,46.76101835214975,2.5288741241974506,0.7345203586474557,Right,Correct,0.0,0.0,-45,45,800,-1,-1
"{'cat': 'RB', 'resp': 'button'}",13,364,Left,44.88897431604603,14.998396102733253,2.244448715802301,0.23559425505988285,Right,Incorrect,0.0,0.0,-45,45,1089,-1,-1
"{'cat': 'RB', 'resp': 'button'}",13,365,Left,37.494211356497345,88.38789517921873,1.8747105678248672,1.3883938108064913,Left,Correct,0.0,0.0,-45,45,693,-1,-1
"{'cat': 'RB', 'resp': 'button'}",13,366,Left,32.167269136918165,33.573399857699016,1.6083634568459082,0.5273697317448992,Left,Correct,0.0,0.0,-45,45,880,-1,-1
"{'cat': 'RB', 'resp': 'button'}",13,367,Right,57.06136968624149,17.191606575095044,2.853068484312075,0.27004512459862284,Right,Correct,0.0,0.0,-45,45,670,-1,-1
"{'cat': 'RB', 'resp': 'button'}",13,368,Right,65.62844447439818,56.540206770702795,3.281422223719909,0.8881314911164389,Right,Correct,0.0,0.0,-45,45,643,-1,-1
"{'cat': 'RB', 'resp': 'button'}",13,369,Left,30.735215441904458,41.89039343720575,1.536760772095223,0.6580127613915584,Left,Correct,0.0,0.0,-45,45,956,-1,-1
"{'cat': 'RB', 'resp': 'button'}",13,370,Left,36.76008289292488,81.53028424373989,1.838004144646244,1.2806747101261045,Left,Correct,0.0,0.0,-45,45,813,-1,-1
"{'cat': 'RB', 'resp': 'button'}",13,371,Right,55.50587576152341,46.634343051452134,2.7752937880761706,0.7325305476771413,Right,Correct,0.0,0.0,-45,45,684,-1,-1
"{'cat': 'RB', 'resp': 'button'}",13,372,Left,40.512307646003215,26.09549057864538,2.025615382300161,0.40990700746846986,Left,Correct,0.0,0.0,-45,45,787,-1,-1
"{'cat': 'RB', 'resp': 'button'}",13,373,Left,47.79153849313259,36.25664075659455,2.3895769246566294,0.5695179812238086,Right,Incorrect,0.0,0.0,-45,45,1255,-1,-1
"{'cat': 'RB', 'resp': 'button'}",13,374,Right,57.176185148625756,16.97184010788854,2.8588092574312878,0.2665930410042162,Right,Correct,0.0,0.0,-45,45,629,-1,-1
"{'cat': 'RB', 'resp': 'button'}",13,375,Right,65.27722449234928,35.43278618218376,3.2638612246174636,0.5565769038308321,Right,Correct,0.0,0.0,-45,45,724,-1,-1
"{'cat': 'RB', 'resp': 'button'}",13,376,Left,33.66964316303644,58.75966597500183,1.6834821581518218,0.9229946747722794,Left,Correct,0.0,0.0,-45,45,500,-1,-1
"{'cat': 'RB', 'resp': 'button'}",13,377,Right,57.068028767659264,70.95661126874975,2.8534014383829636,1.1145838434276547,Right,Correct,0.0,0.0,-45,45,628,-1,-1
"{'cat': 'RB', 'resp': 'button'}",13,378,Right,53.43487049845081,29.97080119034621,2.6717435249225407,0.47078024420895936,Right,Correct,0.0,0.0,-45,45,609,-1,-1
"{'cat': 'RB', 'resp': 'button'}",13,379,Left,47.218793271094526,36.45777945042434,2.360939663554726,0.5726774604382502,Right,Incorrect,0.0,0.0,-45,45,654,-1,-1
"{'cat': 'RB', 'resp': 'button'}",13,380,Left,46.88001618290372,22.465212974562117,2.344000809145186,0.35288274021107224,Left,Correct,0.0,0.0,-45,45,1337,-1,-1
"{'cat': 'RB', 'resp': 'button'}",13,381,Left,42.914527391405734,83.88123420351303,2.1457263695702866,1.317603345739007,Left,Correct,0.0,0.0,-45,45,1398,-1,-1
"{'cat': 'RB', 'resp': 'button'}",13,382,Right,55.479268530569435,35.98208569809018,2.773963426528472,0.5652052804497925,Right,Correct,0.0,0.0,-45,45,738,-1,-1
"{'cat': 'RB', 'resp': 'button'}",13,383,Right,54.07573187407312,37.95845344505745,2.703786593703656,0.5962499924231134,Right,Correct,0.0,0.0,-45,45,1228,-1,-1
"{'cat': 'RB', 'resp': 'button'}",13,384,Left,41.766698387386405,37.138833318494925,2.0883349193693204,0.5833754295813974,Left,Correct,0.0,0.0,-45,45,562,-1,-1
"{'cat': 'RB', 'resp': 'button'}",13,385,Right,58.78705435504902,90.13743659111591,2.9393527177524508,1.4158755430403276,Right,Correct,0.0,0.0,-45,45,451,-1,-1
"{'cat': 'RB', 'resp': 'button'}",13,386,Right,58.12592166810075,14.266980557740958,2.9062960834050373,0.22410520654553703,Right,Correct,0.0,0.0,-45,45,650,-1,-1
"{'cat': 'RB', 'resp': 'button'}",13,387,Left,35.86425660617042,67.40187329126103,1.793212830308521,1.0587461498500788,Left,Correct,0.0,0.0,-45,45,672,-1,-1
"{'cat': 'RB', 'resp': 'button'}",13,388,Right,62.10765255226457,73.37621039845797,3.105382627613228,1.1525908176802726,Right,Correct,0.0,0.0,-45,45,590,-1,-1
"{'cat': 'RB', 'resp': 'button'}",13,389,Right,64.24893431637958,63.16751805373764,3.2124467158189787,0.9922330533156138,Right,Correct,0.0,0.0,-45,45,671,-1,-1
"{'cat': 'RB', 'resp': 'button'}",13,390,Right,64.04133282612338,46.15040659816657,3.202066641306169,0.72492889164491,Right,Correct,0.0,0.0,-45,45,877,-1,-1
"{'cat': 'RB', 'resp': 'button'}",13,391,Left,40.53254955266725,88.2917381460243,2.0266274776333626,1.3868833796611182,Left,Correct,0.0,0.0,-45,45,696,-1,-1
"{'cat': 'RB', 'resp': 'button'}",13,392,Left,38.877427752519395,56.94983853877255,1.9438713876259697,0.8945659718826636,Left,Correct,0.0,0.0,-45,45,497,-1,-1
"{'cat': 'RB', 'resp': 'button'}",13,393,Right,55.30311580110884,18.792013909574464,2.7651557900554415,0.2951842642223817,Right,Correct,0.0,0.0,-45,45,729,-1,-1
"{'cat': 'RB', 'resp': 'button'}",13,394,Left,41.99882286864965,14.465985300677588,2.0999411434324826,0.22723116573773325,Left,Correct,0.0,0.0,-45,45,1402,-1,-1
"{'cat': 'RB', 'resp': 'button'}",13,395,Right,53.94444310008516,29.591347469952456,2.6972221550042583,0.46481979910712773,Right,Correct,0.0,0.0,-45,45,598,-1,-1
"{'cat': 'RB', 'resp': 'button'}",13,396,Left,40.727709892588194,56.871869611665545,2.0363854946294095,0.8933412388396254,Left,Correct,0.0,0.0,-45,45,617,-1,-1
"{'cat': 'RB', 'resp': 'button'}",13,397,Left,40.75756738263309,69.02296638638461,2.0378783691316547,1.0842102206422057,Left,Correct,0.0,0.0,-45,45,814,-1,-1
"{'cat': 'RB', 'resp': 'button'}",13,398,Left,44.07439163938341,37.56807745807495,2.20371958196917,0.590117980758903,Left,Correct,0.0,0.0,-45,45,504,-1,-1
"{'cat': 'RB', 'resp': 'button'}",13,399,Left,38.402607032636176,60.949023983450545,1.920130351631809,0.9573850299493816,Left,Correct,0.0,0.0,-45,45,502,-1,-1
