condition,subject,trial,cat,x,y,xt,yt,resp,fb,rotation,su,target_angle_left,target_angle_right,rt,mt,ep
"{'cat': 'RB', 'resp': 'reach'}",6,0,Left,39.90198168918906,57.0124793024091,1.995099084459453,0.8955499306969428,Left,Correct,0.0,0.0,-45,45,2005,3090,-2.59
"{'cat': 'RB', 'resp': 'reach'}",6,1,Right,59.59654766163602,72.60426453995385,2.979827383081801,1.1404651204900444,Right,Correct,0.0,0.0,-45,45,2009,1586,-0.83
"{'cat': 'RB', 'resp': 'reach'}",6,2,Right,60.11125166983697,31.06441937891503,3.005562583491848,0.48795875854415927,Right,Correct,0.0,0.0,-45,45,2003,1464,-0.82
"{'cat': 'RB', 'resp': 'reach'}",6,3,Right,62.23876087793068,49.711835767044086,3.111938043896534,0.7808716902110402,Left,Incorrect,0.0,0.0,-45,45,2003,1316,-2.85
"{'cat': 'RB', 'resp': 'reach'}",6,4,Right,60.97118543420676,21.746775679866193,3.048559271710338,0.3415975535756641,Right,Correct,0.0,0.0,-45,45,2005,801,-0.73
"{'cat': 'RB', 'resp': 'reach'}",6,5,Left,44.81908682132574,52.706879235760034,2.240954341066287,0.8279177230035406,Right,Incorrect,0.0,0.0,-45,45,2014,2534,-0.84
"{'cat': 'RB', 'resp': 'reach'}",6,6,Right,63.16310054387171,28.292317605872075,3.158155027193585,0.44441468571818443,Right,Correct,0.0,0.0,-45,45,2011,2773,-0.88
"{'cat': 'RB', 'resp': 'reach'}",6,7,Right,64.92322550587026,77.56874621772475,3.246161275293513,1.2184470163288756,Right,Correct,0.0,0.0,-45,45,2004,2944,-0.88
"{'cat': 'RB', 'resp': 'reach'}",6,8,Left,47.10761629469345,76.70325533587527,2.3553808147346724,1.2048519173480392,Right,Incorrect,0.0,0.0,-45,45,2005,2753,-0.96
"{'cat': 'RB', 'resp': 'reach'}",6,9,Left,44.21048939035679,78.7535924087573,2.2105244695178397,1.2370585367757843,Left,Correct,0.0,0.0,-45,45,2006,1583,-2.49
"{'cat': 'RB', 'resp': 'reach'}",6,10,Right,65.51560165578701,48.57297401139342,3.2757800827893506,0.7629824915860076,Right,Correct,0.0,0.0,-45,45,2009,3806,-0.9
"{'cat': 'RB', 'resp': 'reach'}",6,11,Right,55.899449968355285,55.85151638261159,2.794972498417764,0.8773135677973128,Right,Correct,0.0,0.0,-45,45,2009,1359,-0.96
"{'cat': 'RB', 'resp': 'reach'}",6,12,Left,43.79969092953792,36.4079757258855,2.1899845464768957,0.5718951453625871,Left,Correct,0.0,0.0,-45,45,2003,1331,-2.45
"{'cat': 'RB', 'resp': 'reach'}",6,13,Right,59.40170767884582,47.76603291340191,2.970085383942291,0.7503070904593584,Right,Correct,0.0,0.0,-45,45,2007,1786,-0.89
"{'cat': 'RB', 'resp': 'reach'}",6,14,Right,64.28875757950196,24.209781375490838,3.2144378789750983,0.38028635657128507,Right,Correct,0.0,0.0,-45,45,2002,1478,-0.9
"{'cat': 'RB', 'resp': 'reach'}",6,15,Left,38.6949949663933,13.168909800100188,1.934749748319665,0.20685675141890694,Right,Incorrect,0.0,0.0,-45,45,2008,1522,-0.94
"{'cat': 'RB', 'resp': 'reach'}",6,16,Right,60.23450726843422,56.54399091775188,3.011725363421711,0.8881909323592864,Left,Incorrect,0.0,0.0,-45,45,2002,1944,-2.47
"{'cat': 'RB', 'resp': 'reach'}",6,17,Right,64.35728711297504,50.86019291493689,3.217864355648752,0.7989100421086269,Right,Correct,0.0,0.0,-45,45,2008,1335,-0.8
"{'cat': 'RB', 'resp': 'reach'}",6,18,Right,58.265950667732994,87.31952333752042,2.91329753338665,1.371611865160583,Right,Correct,0.0,0.0,-45,45,2005,6445,-0.81
"{'cat': 'RB', 'resp': 'reach'}",6,19,Left,49.00267676253979,58.36815574861618,2.4501338381269897,0.9168448465171871,Right,Incorrect,0.0,0.0,-45,45,2013,2478,-0.88
"{'cat': 'RB', 'resp': 'reach'}",6,20,Left,32.175849767262854,31.584167604635265,1.6087924883631428,0.4961229445823544,Right,Incorrect,0.0,0.0,-45,45,2001,4333,-0.86
"{'cat': 'RB', 'resp': 'reach'}",6,21,Right,68.65276806950081,42.497732087808785,3.4326384034750403,0.6675528146064365,Left,Incorrect,0.0,0.0,-45,45,2006,1535,-2.48
"{'cat': 'RB', 'resp': 'reach'}",6,22,Left,35.563618998759424,66.26214421915886,1.778180949937971,1.0408433274500843,Right,Incorrect,0.0,0.0,-45,45,2006,14771,-0.91
"{'cat': 'RB', 'resp': 'reach'}",6,23,Right,65.37953692936317,74.20370407988361,3.268976846468158,1.1655890580325665,Right,Correct,0.0,0.0,-45,45,2002,1576,-0.87
"{'cat': 'RB', 'resp': 'reach'}",6,24,Left,40.0532106899393,14.12074308359125,2.002660534496965,0.22180811367319575,Right,Incorrect,0.0,0.0,-45,45,2005,2153,-0.8
"{'cat': 'RB', 'resp': 'reach'}",6,25,Right,58.30263833541336,84.12297409481351,2.915131916770668,1.321400587071953,Left,Incorrect,0.0,0.0,-45,45,2004,1631,-2.36
"{'cat': 'RB', 'resp': 'reach'}",6,26,Right,58.900838345788294,57.7766040788226,2.9450419172894144,0.9075527746169758,Right,Correct,0.0,0.0,-45,45,2009,875,-0.79
"{'cat': 'RB', 'resp': 'reach'}",6,27,Right,60.68810761901354,74.85854565892842,3.0344053809506772,1.175875285502528,Right,Correct,0.0,0.0,-45,45,2005,2568,2.76
"{'cat': 'RB', 'resp': 'reach'}",6,28,Right,67.84671521635912,33.572706786582344,3.392335760817956,0.5273588450092563,Right,Correct,0.0,0.0,-45,45,2008,3272,-0.78
"{'cat': 'RB', 'resp': 'reach'}",6,29,Left,46.07340524219224,53.04103519692035,2.3036702621096117,0.833166632567213,Right,Incorrect,0.0,0.0,-45,45,2001,2079,3.05
"{'cat': 'RB', 'resp': 'reach'}",6,30,Left,45.788757201921634,66.5421119616817,2.289437860096082,1.0452410504658438,Right,Incorrect,0.0,0.0,-45,45,2007,1265,-0.75
"{'cat': 'RB', 'resp': 'reach'}",6,31,Left,35.39925653644074,57.28834528061063,1.7699628268220369,0.8998832233494093,Left,Correct,0.0,0.0,-45,45,2008,2604,-2.56
"{'cat': 'RB', 'resp': 'reach'}",6,32,Left,44.9210827254573,74.237750475517,2.246054136272865,1.1661238575645818,Right,Incorrect,0.0,0.0,-45,45,2008,1944,-0.39
"{'cat': 'RB', 'resp': 'reach'}",6,33,Right,62.05076932143715,51.26962785035174,3.1025384660718576,0.8053414310347384,Right,Correct,0.0,0.0,-45,45,2007,960,-0.85
"{'cat': 'RB', 'resp': 'reach'}",6,34,Right,57.69058794989315,29.62675832709478,2.8845293974946578,0.4653760315504059,Right,Correct,0.0,0.0,-45,45,2003,861,-0.84
"{'cat': 'RB', 'resp': 'reach'}",6,35,Right,54.1962636749368,69.06091599770659,2.70981318374684,1.0848063317428842,Right,Correct,0.0,0.0,-45,45,2004,765,-0.87
"{'cat': 'RB', 'resp': 'reach'}",6,36,Left,44.3233476544556,33.537410866197376,2.21616738272278,0.526804417988341,Right,Incorrect,0.0,0.0,-45,45,2008,840,-0.77
"{'cat': 'RB', 'resp': 'reach'}",6,37,Left,45.77471648192094,67.34026453345625,2.288735824096047,1.0577784017454972,Left,Correct,0.0,0.0,-45,45,2003,957,-2.44
"{'cat': 'RB', 'resp': 'reach'}",6,38,Left,44.62679618215479,30.093112867002883,2.2313398091077397,0.4727015115331236,Left,Correct,0.0,0.0,-45,45,2003,770,-2.62
"{'cat': 'RB', 'resp': 'reach'}",6,39,Right,54.13609448276812,21.875480720750204,2.706804724138406,0.34361924763026996,Right,Correct,0.0,0.0,-45,45,2009,1062,-0.73
"{'cat': 'RB', 'resp': 'reach'}",6,40,Left,40.41259105513698,21.091128826114534,2.0206295527568487,0.3312986768801867,Right,Incorrect,0.0,0.0,-45,45,2005,570,-0.83
"{'cat': 'RB', 'resp': 'reach'}",6,41,Left,38.01376349524401,55.745421409587095,1.9006881747622004,0.87564703185813,Left,Correct,0.0,0.0,-45,45,2009,656,-2.46
"{'cat': 'RB', 'resp': 'reach'}",6,42,Right,55.571163266199754,40.037553627777996,2.7785581633099876,0.6289084217236736,Right,Correct,0.0,0.0,-45,45,2007,591,-0.84
"{'cat': 'RB', 'resp': 'reach'}",6,43,Left,38.27887644702291,62.636404107689536,1.9139438223511456,0.983890334959995,Left,Correct,0.0,0.0,-45,45,2005,762,-2.58
"{'cat': 'RB', 'resp': 'reach'}",6,44,Right,54.11301077435357,59.16833224395414,2.705650538717679,0.9294139895138319,Right,Correct,0.0,0.0,-45,45,2004,689,-0.85
"{'cat': 'RB', 'resp': 'reach'}",6,45,Left,37.78155685044016,58.653872855763005,1.889077842522008,0.921332880341274,Right,Incorrect,0.0,0.0,-45,45,2007,697,-0.75
"{'cat': 'RB', 'resp': 'reach'}",6,46,Right,51.2905478110803,45.14632250280853,2.564527390554015,0.7091567755570942,Right,Correct,0.0,0.0,-45,45,2003,741,-0.86
"{'cat': 'RB', 'resp': 'reach'}",6,47,Right,57.71098144940068,80.01836283668095,2.8855490724700337,1.256925504199997,Left,Incorrect,0.0,0.0,-45,45,2008,660,-2.47
"{'cat': 'RB', 'resp': 'reach'}",6,48,Left,33.27234737988576,74.64207066574039,1.663617368994288,1.172474904261101,Right,Incorrect,0.0,0.0,-45,45,2009,648,-0.75
"{'cat': 'RB', 'resp': 'reach'}",6,49,Right,59.69194743066252,64.35047724567508,2.9845973715331264,1.0108149328500498,Left,Incorrect,0.0,0.0,-45,45,2012,2247,-2.61
"{'cat': 'RB', 'resp': 'reach'}",6,50,Right,65.79054167518494,44.202669293856495,3.289527083759247,0.6943339056131935,Right,Correct,0.0,0.0,-45,45,2009,1862,-0.72
"{'cat': 'RB', 'resp': 'reach'}",6,51,Left,32.33240058728073,67.9066598777334,1.6166200293640367,1.06667531900854,Right,Incorrect,0.0,0.0,-45,45,2008,851,-0.77
"{'cat': 'RB', 'resp': 'reach'}",6,52,Right,65.7306283721047,70.33276908926968,3.2865314186052355,1.1047845533873846,Left,Incorrect,0.0,0.0,-45,45,2009,972,-2.32
"{'cat': 'RB', 'resp': 'reach'}",6,53,Right,55.85428326201721,30.54746161626975,2.7927141631008605,0.4798384049974462,Right,Correct,0.0,0.0,-45,45,2002,674,-0.81
"{'cat': 'RB', 'resp': 'reach'}",6,54,Right,58.30052682419627,56.03592423853094,2.9150263412098134,0.880210239624415,Right,Correct,0.0,0.0,-45,45,2006,703,-0.83
"{'cat': 'RB', 'resp': 'reach'}",6,55,Left,40.05951728503296,40.17003204100968,2.002975864251648,0.6309893877725129,Left,Correct,0.0,0.0,-45,45,2001,1569,-2.35
"{'cat': 'RB', 'resp': 'reach'}",6,56,Left,37.88257047943301,30.496623903491702,1.8941285239716503,0.4790398480725021,Right,Incorrect,0.0,0.0,-45,45,2004,1722,-0.74
"{'cat': 'RB', 'resp': 'reach'}",6,57,Left,40.575983552474845,12.880010620786038,2.028799177623742,0.20231873372209966,Left,Correct,0.0,0.0,-45,45,2005,815,-2.47
"{'cat': 'RB', 'resp': 'reach'}",6,58,Right,58.778999834614304,29.612659753293975,2.9389499917307154,0.4651545716710124,Right,Correct,0.0,0.0,-45,45,2007,676,-0.88
"{'cat': 'RB', 'resp': 'reach'}",6,59,Right,53.911668167763615,29.716522443392037,2.6955834083881807,0.4667860429919832,Right,Correct,0.0,0.0,-45,45,2005,678,-0.88
"{'cat': 'RB', 'resp': 'reach'}",6,60,Right,51.71923542868645,30.98085280226365,2.585961771434323,0.48664609782769125,Right,Correct,0.0,0.0,-45,45,2004,583,-0.85
"{'cat': 'RB', 'resp': 'reach'}",6,61,Right,60.974694607020396,19.43830047900868,3.04873473035102,0.30533610991562316,Right,Correct,0.0,0.0,-45,45,2005,660,-0.87
"{'cat': 'RB', 'resp': 'reach'}",6,62,Left,42.94427899741515,67.18130741534614,2.1472139498707574,1.0552815091730448,Right,Incorrect,0.0,0.0,-45,45,2003,576,-0.94
"{'cat': 'RB', 'resp': 'reach'}",6,63,Left,45.13516614021536,71.89175573491728,2.256758307010768,1.1292730583524402,Right,Incorrect,0.0,0.0,-45,45,2008,632,-0.84
"{'cat': 'RB', 'resp': 'reach'}",6,64,Left,45.44081539027106,38.081629225594796,2.2720407695135534,0.5981848330592948,Left,Correct,0.0,0.0,-45,45,2005,607,-2.41
"{'cat': 'RB', 'resp': 'reach'}",6,65,Right,63.82126429425023,30.949894305677976,3.1910632147125115,0.48615980290049254,Left,Incorrect,0.0,0.0,-45,45,2007,688,-2.46
"{'cat': 'RB', 'resp': 'reach'}",6,66,Right,64.01307214618218,73.70070068626758,3.200653607309109,1.157687899201992,Right,Correct,0.0,0.0,-45,45,2004,718,-0.7
"{'cat': 'RB', 'resp': 'reach'}",6,67,Left,40.015450632183104,43.03597013673504,2.0007725316091554,0.6760074381083826,Right,Incorrect,0.0,0.0,-45,45,2006,861,-0.82
"{'cat': 'RB', 'resp': 'reach'}",6,68,Right,52.99779189460182,31.19290975251953,2.6498895947300913,0.4899770806130238,Right,Correct,0.0,0.0,-45,45,2009,642,-0.76
"{'cat': 'RB', 'resp': 'reach'}",6,69,Left,41.65275398925167,56.86067725184802,2.0826376994625835,0.89316542966273,Right,Incorrect,0.0,0.0,-45,45,2002,785,-0.84
"{'cat': 'RB', 'resp': 'reach'}",6,70,Right,56.2598506414922,18.05481020878347,2.81299253207461,0.28360429556936073,Left,Incorrect,0.0,0.0,-45,45,2006,758,-2.45
"{'cat': 'RB', 'resp': 'reach'}",6,71,Left,34.835270084295146,59.77125251223717,1.7417635042147572,0.9388846389415239,Left,Correct,0.0,0.0,-45,45,2009,705,-2.43
"{'cat': 'RB', 'resp': 'reach'}",6,72,Right,56.71927576436002,40.027020113032734,2.835963788218001,0.6287429616609725,Right,Correct,0.0,0.0,-45,45,2008,684,-0.72
"{'cat': 'RB', 'resp': 'reach'}",6,73,Right,60.43775046909239,60.04416282153288,3.0218875234546196,0.9431715040553854,Right,Correct,0.0,0.0,-45,45,2005,645,-0.78
"{'cat': 'RB', 'resp': 'reach'}",6,74,Left,41.12544747543942,43.67022495322962,2.056272373771971,0.6859702894683992,Right,Incorrect,0.0,0.0,-45,45,2006,1286,-0.8
"{'cat': 'RB', 'resp': 'reach'}",6,75,Right,58.069808688221485,66.89156472820773,2.9034904344110744,1.0507302416863178,Left,Incorrect,0.0,0.0,-45,45,2007,725,-2.44
"{'cat': 'RB', 'resp': 'reach'}",6,76,Right,62.113183279242584,33.91982279385763,3.105659163962129,0.5328113305012536,Right,Correct,0.0,0.0,-45,45,2001,760,-0.79
"{'cat': 'RB', 'resp': 'reach'}",6,77,Left,38.315101320141025,50.935576289970115,1.9157550660070513,0.8000941613946627,Right,Incorrect,0.0,0.0,-45,45,2006,848,-0.78
"{'cat': 'RB', 'resp': 'reach'}",6,78,Left,41.97568729737006,56.735588099997855,2.0987843648685027,0.8912005338602488,Left,Correct,0.0,0.0,-45,45,2004,946,-2.39
"{'cat': 'RB', 'resp': 'reach'}",6,79,Right,64.64290082052764,77.98192315762628,3.2321450410263823,1.2249371845240125,Right,Correct,0.0,0.0,-45,45,2007,1813,-0.59
"{'cat': 'RB', 'resp': 'reach'}",6,80,Right,59.305119092790456,24.223247632975216,2.965255954639523,0.38049788404920637,Right,Correct,0.0,0.0,-45,45,2008,1689,-0.92
"{'cat': 'RB', 'resp': 'reach'}",6,81,Left,45.58229509452038,25.27086958013569,2.2791147547260193,0.39695389111390034,Right,Incorrect,0.0,0.0,-45,45,2001,1566,-1.28
"{'cat': 'RB', 'resp': 'reach'}",6,82,Left,37.74232517056802,35.28872193714481,1.8871162585284011,0.5543139479615354,Left,Correct,0.0,0.0,-45,45,2008,750,-2.45
"{'cat': 'RB', 'resp': 'reach'}",6,83,Left,39.731036755277245,90.35602636790236,1.9865518377638622,1.4193091432248386,Right,Incorrect,0.0,0.0,-45,45,2009,1404,-0.4
"{'cat': 'RB', 'resp': 'reach'}",6,84,Left,45.79987330893343,39.77303137353022,2.2899936654466715,0.6247533158703946,Right,Incorrect,0.0,0.0,-45,45,2006,732,-0.82
"{'cat': 'RB', 'resp': 'reach'}",6,85,Right,64.97843774169121,78.07819991014082,3.2489218870845606,1.2264494962160684,Left,Incorrect,0.0,0.0,-45,45,2003,853,-2.53
"{'cat': 'RB', 'resp': 'reach'}",6,86,Right,57.27682735839948,74.30597962926576,2.863841367919974,1.167195598605471,Right,Correct,0.0,0.0,-45,45,2007,2124,-0.85
"{'cat': 'RB', 'resp': 'reach'}",6,87,Right,52.68002286286707,46.75761470015018,2.634001143143353,0.7344668942068695,Right,Correct,0.0,0.0,-45,45,2012,3521,-0.85
"{'cat': 'RB', 'resp': 'reach'}",6,88,Left,41.89599462812857,25.875300289705912,2.0947997314064284,0.40644826649784965,Left,Correct,0.0,0.0,-45,45,2002,956,-2.32
"{'cat': 'RB', 'resp': 'reach'}",6,89,Right,51.75440037606808,63.20608978840541,2.5877200188034037,0.9928389367069564,Right,Correct,0.0,0.0,-45,45,2004,701,-0.83
"{'cat': 'RB', 'resp': 'reach'}",6,90,Right,64.46295780683924,17.15770839242812,3.2231478903419624,0.26951265319044054,Left,Incorrect,0.0,0.0,-45,45,2006,1670,-2.47
"{'cat': 'RB', 'resp': 'reach'}",6,91,Right,62.60489582345885,83.95862967334867,3.130244791172942,1.3188190709362908,Right,Correct,0.0,0.0,-45,45,2010,689,-0.77
"{'cat': 'RB', 'resp': 'reach'}",6,92,Left,41.99504777609977,9.980974369125214,2.0997523888049883,0.15678077876855895,Right,Incorrect,0.0,0.0,-45,45,2004,587,-0.85
"{'cat': 'RB', 'resp': 'reach'}",6,93,Left,46.01831131872008,39.598767819342854,2.3009155659360037,0.6220159903622771,Left,Correct,0.0,0.0,-45,45,2002,667,-2.51
"{'cat': 'RB', 'resp': 'reach'}",6,94,Left,44.80681057768323,15.643181864200145,2.2403405288841616,0.24572252611670128,Right,Incorrect,0.0,0.0,-45,45,2005,743,-0.86
"{'cat': 'RB', 'resp': 'reach'}",6,95,Left,45.30836439995199,51.72511268256366,2.2654182199975996,0.812496170048231,Right,Incorrect,0.0,0.0,-45,45,2009,804,-0.83
"{'cat': 'RB', 'resp': 'reach'}",6,96,Right,64.73087927914544,31.027624922977637,3.236543963957272,0.4873807925818306,Right,Correct,0.0,0.0,-45,45,2008,551,-0.8
"{'cat': 'RB', 'resp': 'reach'}",6,97,Right,67.06071050882298,71.07276582204886,3.353035525441149,1.1164083948842825,Right,Correct,0.0,0.0,-45,45,2005,678,-0.69
"{'cat': 'RB', 'resp': 'reach'}",6,98,Left,45.23446994245832,52.23617227901274,2.2617234971229156,0.8205238754169861,Right,Incorrect,0.0,0.0,-45,45,2004,744,-0.79
"{'cat': 'RB', 'resp': 'reach'}",6,99,Right,60.308272310864176,28.821447411692507,3.0154136155432085,0.45272623727198874,Left,Incorrect,0.0,0.0,-45,45,2011,755,-2.42
"{'cat': 'RB', 'resp': 'reach'}",6,100,Left,41.539523581511304,19.556612889649163,2.076976179075565,0.30719455691610625,Right,Incorrect,0.0,0.0,-45,45,2006,543,-0.8
"{'cat': 'RB', 'resp': 'reach'}",6,101,Right,60.92600730093677,48.501366967742335,3.0463003650468385,0.7618576907746099,Right,Correct,0.0,0.0,-45,45,2008,1324,-0.78
"{'cat': 'RB', 'resp': 'reach'}",6,102,Left,34.37822861335044,25.278853301824764,1.718911430667522,0.39707929912093387,Right,Incorrect,0.0,0.0,-45,45,2012,1308,-0.8
"{'cat': 'RB', 'resp': 'reach'}",6,103,Right,59.9801597908337,36.34856646462666,2.9990079895416852,0.5709619468689571,Left,Incorrect,0.0,0.0,-45,45,2010,2101,-2.5
"{'cat': 'RB', 'resp': 'reach'}",6,104,Right,67.70279364763124,66.59817810641914,3.3851396823815616,1.0461217354079548,Right,Correct,0.0,0.0,-45,45,2011,1039,-0.72
"{'cat': 'RB', 'resp': 'reach'}",6,105,Left,49.15700386227096,55.80408980658994,2.457850193113548,0.8765685928832402,Right,Incorrect,0.0,0.0,-45,45,2013,992,-0.84
"{'cat': 'RB', 'resp': 'reach'}",6,106,Right,62.947774568499604,12.822522830953176,3.14738872842498,0.20141571763104946,Left,Incorrect,0.0,0.0,-45,45,2007,1093,-2.34
"{'cat': 'RB', 'resp': 'reach'}",6,107,Right,67.7688959399589,49.146016516917975,3.3884447969979448,0.7719838222137607,Right,Correct,0.0,0.0,-45,45,2001,782,-0.83
"{'cat': 'RB', 'resp': 'reach'}",6,108,Right,68.94030435096985,43.123531387233335,3.447015217548493,0.6773828470149056,Right,Correct,0.0,0.0,-45,45,2003,878,-0.85
"{'cat': 'RB', 'resp': 'reach'}",6,109,Right,60.07207665331579,40.246946468103296,3.0036038326657892,0.6321975567680749,Left,Incorrect,0.0,0.0,-45,45,2012,1308,-2.38
"{'cat': 'RB', 'resp': 'reach'}",6,110,Right,60.38722168315729,48.73857320336295,3.0193610841578646,0.7655837176106669,Right,Correct,0.0,0.0,-45,45,2009,731,-0.9
"{'cat': 'RB', 'resp': 'reach'}",6,111,Right,54.358588826983535,17.433443976724455,2.7179294413491766,0.27384389762023387,Right,Correct,0.0,0.0,-45,45,2006,973,-0.88
"{'cat': 'RB', 'resp': 'reach'}",6,112,Left,32.43218135773738,39.788889513957,1.6216090678868686,0.6250024149577165,Right,Incorrect,0.0,0.0,-45,45,2004,1916,-0.85
"{'cat': 'RB', 'resp': 'reach'}",6,113,Left,44.4705598826673,34.50238740320637,2.223527994133365,0.5419622339861108,Left,Correct,0.0,0.0,-45,45,2002,1121,-2.32
"{'cat': 'RB', 'resp': 'reach'}",6,114,Right,57.826695117726906,34.589550480041865,2.8913347558863456,0.5433313883953641,Right,Correct,0.0,0.0,-45,45,2005,873,-0.87
"{'cat': 'RB', 'resp': 'reach'}",6,115,Right,69.06828212918076,41.08644412701115,3.453414106459038,0.6453843551577287,Right,Correct,0.0,0.0,-45,45,2006,1163,-0.81
"{'cat': 'RB', 'resp': 'reach'}",6,116,Right,58.78836518000075,15.778733305058601,2.9394182590000377,0.24785176317062346,Right,Correct,0.0,0.0,-45,45,2001,1677,-0.91
"{'cat': 'RB', 'resp': 'reach'}",6,117,Right,64.51909848039753,42.230430281068266,3.2259549240198764,0.6633540476447,Right,Correct,0.0,0.0,-45,45,2001,1321,-0.88
"{'cat': 'RB', 'resp': 'reach'}",6,118,Left,35.243990696153475,57.29206447412436,1.7621995348076738,0.8999416443045092,Right,Incorrect,0.0,0.0,-45,45,2005,1192,-0.88
"{'cat': 'RB', 'resp': 'reach'}",6,119,Left,43.51469982579734,88.35325068348577,2.1757349912898665,1.3878496163400813,Right,Incorrect,0.0,0.0,-45,45,2007,1568,-0.65
"{'cat': 'RB', 'resp': 'reach'}",6,120,Left,43.18813723204327,80.94076229266076,2.159406861602163,1.271414520972904,Right,Incorrect,0.0,0.0,-45,45,2009,1430,-0.68
"{'cat': 'RB', 'resp': 'reach'}",6,121,Left,42.49213340429362,65.75667204948554,2.1246066702146806,1.0329033891758854,Left,Correct,0.0,0.0,-45,45,2009,1232,-2.57
"{'cat': 'RB', 'resp': 'reach'}",6,122,Left,41.88585707580438,52.83652230412657,2.0942928537902192,0.8299541515593863,Right,Incorrect,0.0,0.0,-45,45,2002,712,-0.78
"{'cat': 'RB', 'resp': 'reach'}",6,123,Left,37.877748074113356,73.02354237970597,1.8938874037056679,1.1470511213959358,Right,Incorrect,0.0,0.0,-45,45,2001,812,-0.8
"{'cat': 'RB', 'resp': 'reach'}",6,124,Right,52.10801135549238,72.35934872035054,2.6054005677746193,1.136617991791976,Right,Correct,0.0,0.0,-45,45,2009,960,-0.79
"{'cat': 'RB', 'resp': 'reach'}",6,125,Right,62.14963060751003,67.15436893600432,3.107481530375502,1.054858360529049,Right,Correct,0.0,0.0,-45,45,2002,729,-0.82
"{'cat': 'RB', 'resp': 'reach'}",6,126,Right,64.14647305419808,40.470874891072754,3.207323652709904,0.6357150162107289,Right,Correct,0.0,0.0,-45,45,2009,870,-0.79
"{'cat': 'RB', 'resp': 'reach'}",6,127,Right,55.11638130754661,33.62575076129765,2.7558190653773305,0.5281920578156706,Right,Correct,0.0,0.0,-45,45,2009,897,-0.85
"{'cat': 'RB', 'resp': 'reach'}",6,128,Right,65.0181228817834,49.4147887793514,3.2509061440891696,0.7762056870395085,Right,Correct,0.0,0.0,-45,45,2009,754,-0.85
"{'cat': 'RB', 'resp': 'reach'}",6,129,Left,39.57781175159724,80.64180143277422,1.978890587579862,1.2667184547672516,Right,Incorrect,0.0,0.0,-45,45,2005,656,-0.84
"{'cat': 'RB', 'resp': 'reach'}",6,130,Left,40.399113946539494,45.21950730957206,2.0199556973269748,0.7103063598135075,Left,Correct,0.0,0.0,-45,45,2009,1223,-2.36
"{'cat': 'RB', 'resp': 'reach'}",6,131,Left,37.10620887654616,45.50315264611419,1.855310443827308,0.7147618503410365,Right,Incorrect,0.0,0.0,-45,45,2012,2150,-0.67
"{'cat': 'RB', 'resp': 'reach'}",6,132,Left,45.55993486832607,64.88969944704586,2.2779967434163035,1.0192850153824446,Left,Correct,0.0,0.0,-45,45,2008,1258,-2.58
"{'cat': 'RB', 'resp': 'reach'}",6,133,Right,67.99188532288136,70.69666870677415,3.3995942661440677,1.1105006752123654,Right,Correct,0.0,0.0,-45,45,2008,1213,-0.66
"{'cat': 'RB', 'resp': 'reach'}",6,134,Left,36.34186806112466,59.45643076754676,1.817093403056233,0.9339394305399752,Left,Correct,0.0,0.0,-45,45,2008,1125,-2.53
"{'cat': 'RB', 'resp': 'reach'}",6,135,Right,58.119615427578175,58.608302323408445,2.9059807713789088,0.920617060092948,Right,Correct,0.0,0.0,-45,45,2003,1443,-0.67
"{'cat': 'RB', 'resp': 'reach'}",6,136,Right,66.26394278019168,71.31343554607255,3.313197139009584,1.1201888260689539,Left,Incorrect,0.0,0.0,-45,45,2002,873,-2.43
"{'cat': 'RB', 'resp': 'reach'}",6,137,Left,42.36180136553755,16.050974788600875,2.1180900682768775,0.25212812239411747,Right,Incorrect,0.0,0.0,-45,45,2004,634,-0.8
"{'cat': 'RB', 'resp': 'reach'}",6,138,Left,47.70870998584462,30.01707551843736,2.385435499292231,0.47150711965486414,Left,Correct,0.0,0.0,-45,45,2008,779,-2.31
"{'cat': 'RB', 'resp': 'reach'}",6,139,Left,45.080653500909435,58.13550473876458,2.2540326750454716,0.9131903730001871,Right,Incorrect,0.0,0.0,-45,45,2006,1162,-0.82
"{'cat': 'RB', 'resp': 'reach'}",6,140,Right,60.08917062019011,16.617107254512185,3.0044585310095058,0.26102091037344566,Right,Correct,0.0,0.0,-45,45,2013,1155,-0.79
"{'cat': 'RB', 'resp': 'reach'}",6,141,Left,40.23592521447133,75.98314284275145,2.0117962607235667,1.193540416757259,Left,Correct,0.0,0.0,-45,45,2008,963,-2.5
"{'cat': 'RB', 'resp': 'reach'}",6,142,Left,43.79154490860482,31.3464911559293,2.189577245430241,0.4923895316564245,Right,Incorrect,0.0,0.0,-45,45,2002,911,-0.88
"{'cat': 'RB', 'resp': 'reach'}",6,143,Left,39.60267766533304,78.76838981655989,1.980133883266652,1.2372909739140079,Right,Incorrect,0.0,0.0,-45,45,2003,1372,-0.69
"{'cat': 'RB', 'resp': 'reach'}",6,144,Left,35.385210075338335,83.05031353233808,1.7692605037669167,1.3045512743576113,Right,Incorrect,0.0,0.0,-45,45,2004,965,-0.74
"{'cat': 'RB', 'resp': 'reach'}",6,145,Right,51.80026242692234,38.121912876452875,2.5900131213461166,0.5988176071672725,Right,Correct,0.0,0.0,-45,45,2004,1014,-0.86
"{'cat': 'RB', 'resp': 'reach'}",6,146,Right,66.72237938191667,41.91596596908532,3.3361189690958333,0.6584144537829911,Left,Incorrect,0.0,0.0,-45,45,2003,851,-2.4
"{'cat': 'RB', 'resp': 'reach'}",6,147,Left,36.92593901802601,85.0978441470844,1.8462969509013005,1.3367138100440477,Right,Incorrect,0.0,0.0,-45,45,2004,1830,-0.89
"{'cat': 'RB', 'resp': 'reach'}",6,148,Right,58.404523153464794,31.756974705340873,2.9202261576732393,0.49883739217267886,Left,Incorrect,0.0,0.0,-45,45,2007,949,-2.5
"{'cat': 'RB', 'resp': 'reach'}",6,149,Left,40.471576623279454,77.95242305051883,2.0235788311639724,1.2244737979251679,Right,Incorrect,0.0,0.0,-45,45,2006,1174,-0.81
"{'cat': 'RB', 'resp': 'reach'}",6,150,Left,42.773566914531685,49.18916034026669,2.138678345726584,0.7726615238061612,Right,Incorrect,0.0,0.0,-45,45,2003,2141,-0.8
"{'cat': 'RB', 'resp': 'reach'}",6,151,Left,45.5207466010341,35.066407734342086,2.2760373300517047,0.5508218446299671,Left,Correct,0.0,0.0,-45,45,2006,1124,-2.37
"{'cat': 'RB', 'resp': 'reach'}",6,152,Left,48.12381131354071,32.5909250967346,2.406190565677036,0.5119370542879832,Right,Incorrect,0.0,0.0,-45,45,2004,889,-0.75
"{'cat': 'RB', 'resp': 'reach'}",6,153,Right,56.88073297823585,65.59077694486834,2.8440366489117923,1.0302975149662257,Right,Correct,0.0,0.0,-45,45,2004,2879,-0.88
"{'cat': 'RB', 'resp': 'reach'}",6,154,Left,35.302090686213035,23.032078491663746,1.7651045343106517,0.36178704293157155,Right,Incorrect,0.0,0.0,-45,45,2009,7098,-0.81
"{'cat': 'RB', 'resp': 'reach'}",6,155,Left,44.020216490747856,43.17995352154335,2.2010108245373927,0.6782691238281464,Right,Incorrect,0.0,0.0,-45,45,2004,1235,-0.74
"{'cat': 'RB', 'resp': 'reach'}",6,156,Right,55.489435558225516,43.68789284815632,2.7744717779112755,0.6862478161129298,Left,Incorrect,0.0,0.0,-45,45,2009,2706,-2.37
"{'cat': 'RB', 'resp': 'reach'}",6,157,Right,62.30964719683631,22.544312922625195,3.115482359841815,0.3541252392897437,Right,Correct,0.0,0.0,-45,45,2008,2038,-0.87
"{'cat': 'RB', 'resp': 'reach'}",6,158,Left,42.983867850040895,54.66226664198198,2.1491933925020446,0.858632876555085,Right,Incorrect,0.0,0.0,-45,45,2009,1989,-0.78
"{'cat': 'RB', 'resp': 'reach'}",6,159,Right,65.60443485460881,64.97927308063414,3.2802217427304408,1.0206920347286261,Right,Correct,0.0,0.0,-45,45,2005,4022,-0.84
"{'cat': 'RB', 'resp': 'reach'}",6,160,Left,46.31979043745169,34.462582423544916,2.3159895218725843,0.5413369788277073,Right,Incorrect,0.0,0.0,-45,45,2001,2806,-0.78
"{'cat': 'RB', 'resp': 'reach'}",6,161,Left,41.17844380504585,22.94210583904077,2.0589221902522925,0.36037375580905,Right,Incorrect,0.0,0.0,-45,45,2012,1980,-0.79
"{'cat': 'RB', 'resp': 'reach'}",6,162,Left,36.535368899110395,80.83398299310116,1.8267684449555197,1.2697372356576444,Right,Incorrect,0.0,0.0,-45,45,2011,16019,-0.81
"{'cat': 'RB', 'resp': 'reach'}",6,163,Left,34.83678030724453,25.086401357686043,1.7418390153622267,0.3940562710515575,Left,Correct,0.0,0.0,-45,45,2009,7473,-2.45
"{'cat': 'RB', 'resp': 'reach'}",6,164,Right,57.2369947703618,78.4075823772512,2.86184973851809,1.2316234239105444,Right,Correct,0.0,0.0,-45,45,2003,14937,-0.7
"{'cat': 'RB', 'resp': 'reach'}",6,165,Right,59.32664134823881,57.44246639180694,2.9663320674119404,0.9023041521028963,Right,Correct,0.0,0.0,-45,45,2005,2417,-0.86
"{'cat': 'RB', 'resp': 'reach'}",6,166,Left,48.78493344380458,49.03158514360736,2.439246672190229,0.7701863384050966,Right,Incorrect,0.0,0.0,-45,45,2001,4164,-0.85
"{'cat': 'RB', 'resp': 'reach'}",6,167,Left,48.67509499010775,40.505361118344425,2.433754749505388,0.6362567246019625,Right,Incorrect,0.0,0.0,-45,45,2008,2095,-0.78
"{'cat': 'RB', 'resp': 'reach'}",6,168,Left,37.98696090372057,18.68912912283346,1.8993480451860285,0.29356815377142326,Left,Correct,0.0,0.0,-45,45,2013,4225,-2.55
"{'cat': 'RB', 'resp': 'reach'}",6,169,Right,60.32488248188178,46.704906018078496,3.0162441240940887,0.7336389481649856,Right,Correct,0.0,0.0,-45,45,2005,2324,-0.76
"{'cat': 'RB', 'resp': 'reach'}",6,170,Right,54.87412362376466,47.43084984295834,2.743706181188233,0.7450420471007926,Right,Correct,0.0,0.0,-45,45,2008,2506,-0.77
"{'cat': 'RB', 'resp': 'reach'}",6,171,Right,63.11379935220345,53.773038003239314,3.1556899676101726,0.8446649057609069,Right,Correct,0.0,0.0,-45,45,2001,1082,-0.83
"{'cat': 'RB', 'resp': 'reach'}",6,172,Left,32.662130725996626,30.706517175252657,1.6331065362998314,0.48233684387551273,Right,Incorrect,0.0,0.0,-45,45,2006,3177,-0.81
"{'cat': 'RB', 'resp': 'reach'}",6,173,Left,44.739512469415146,32.32178122537101,2.2369756234707574,0.5077093522428103,Left,Correct,0.0,0.0,-45,45,2006,5612,-2.47
"{'cat': 'RB', 'resp': 'reach'}",6,174,Right,58.52647651783166,55.103400883594716,2.9263238258915827,0.8655621970185723,Right,Correct,0.0,0.0,-45,45,2012,2077,-0.84
"{'cat': 'RB', 'resp': 'reach'}",6,175,Right,64.7731914679957,25.059333609424126,3.238659573399785,0.3936310918561131,Right,Correct,0.0,0.0,-45,45,2012,2167,-0.8
"{'cat': 'RB', 'resp': 'reach'}",6,176,Right,65.2026544643944,28.901393026272014,3.26013272321972,0.45398202004923716,Right,Correct,0.0,0.0,-45,45,2003,1246,-0.8
"{'cat': 'RB', 'resp': 'reach'}",6,177,Left,38.78968338036465,40.21588880884062,1.9394841690182323,0.6317097041971883,Right,Incorrect,0.0,0.0,-45,45,2012,583,-0.82
"{'cat': 'RB', 'resp': 'reach'}",6,178,Right,63.83038095542365,50.851968833058415,3.1915190477711826,0.7987808585325673,Right,Correct,0.0,0.0,-45,45,2012,594,-0.8
"{'cat': 'RB', 'resp': 'reach'}",6,179,Right,62.536559932283524,80.04836991631227,3.126827996614176,1.2573968543046243,Right,Correct,0.0,0.0,-45,45,2008,595,-0.81
"{'cat': 'RB', 'resp': 'reach'}",6,180,Left,43.98034500508031,66.91059446392805,2.1990172502540157,1.0510291600760113,Left,Correct,0.0,0.0,-45,45,2001,715,-2.47
"{'cat': 'RB', 'resp': 'reach'}",6,181,Right,63.45404646912354,39.203260778295466,3.172702323456177,0.6158033802892896,Right,Correct,0.0,0.0,-45,45,2004,959,-0.78
"{'cat': 'RB', 'resp': 'reach'}",6,182,Right,56.804407469274615,13.776006552080531,2.8402203734637306,0.21639300489910526,Left,Incorrect,0.0,0.0,-45,45,2012,1041,-2.43
"{'cat': 'RB', 'resp': 'reach'}",6,183,Right,59.74304796940745,71.41433437045214,2.9871523984703727,1.1217737410960875,Right,Correct,0.0,0.0,-45,45,2003,1072,-0.76
"{'cat': 'RB', 'resp': 'reach'}",6,184,Right,67.81427307882284,28.88178579540867,3.390713653941142,0.45367403038704956,Right,Correct,0.0,0.0,-45,45,2008,858,-0.79
"{'cat': 'RB', 'resp': 'reach'}",6,185,Right,59.609002756752005,24.52687801453421,2.9804501378376007,0.38526729892976835,Right,Correct,0.0,0.0,-45,45,2012,830,-0.79
"{'cat': 'RB', 'resp': 'reach'}",6,186,Left,41.59405554123478,46.382968851676026,2.079702777061739,0.728581970980548,Right,Incorrect,0.0,0.0,-45,45,2009,2484,-0.75
"{'cat': 'RB', 'resp': 'reach'}",6,187,Left,40.473583438740654,19.34729314301481,2.0236791719370326,0.30390657002471755,Left,Correct,0.0,0.0,-45,45,2011,1302,-2.54
"{'cat': 'RB', 'resp': 'reach'}",6,188,Right,55.817318793763505,46.007295519683915,2.790865939688175,0.7226809080808679,Right,Correct,0.0,0.0,-45,45,2005,1186,-0.78
"{'cat': 'RB', 'resp': 'reach'}",6,189,Left,32.6298009786505,32.528033000059786,1.631490048932525,0.5109491475435709,Right,Incorrect,0.0,0.0,-45,45,2009,1595,-0.81
"{'cat': 'RB', 'resp': 'reach'}",6,190,Left,40.52448178403145,23.77040675967101,2.0262240892015724,0.373384676245118,Left,Correct,0.0,0.0,-45,45,2013,769,-2.47
"{'cat': 'RB', 'resp': 'reach'}",6,191,Right,66.42752716588055,79.55327049117437,3.321376358294027,1.2496198507205756,Right,Correct,0.0,0.0,-45,45,2002,1344,-0.81
"{'cat': 'RB', 'resp': 'reach'}",6,192,Right,53.14297452329523,30.09817644920545,2.6571487261647615,0.47278105009636584,Right,Correct,0.0,0.0,-45,45,2003,1806,-0.68
"{'cat': 'RB', 'resp': 'reach'}",6,193,Left,40.26675509608773,82.37419692846909,2.0133377548043865,1.2939308595791872,Right,Incorrect,0.0,0.0,-45,45,2004,1079,-0.72
"{'cat': 'RB', 'resp': 'reach'}",6,194,Right,60.1458549415953,59.37647931537667,3.0072927470797652,0.9326835560660683,Left,Incorrect,0.0,0.0,-45,45,2003,780,-2.56
"{'cat': 'RB', 'resp': 'reach'}",6,195,Right,66.16230745370243,33.57142794204012,3.308115372685121,0.5273387569661617,Right,Correct,0.0,0.0,-45,45,2002,766,-0.79
"{'cat': 'RB', 'resp': 'reach'}",6,196,Left,45.190345984234234,18.29862997805421,2.2595172992117116,0.2874342075490653,Right,Incorrect,0.0,0.0,-45,45,2009,640,-0.75
"{'cat': 'RB', 'resp': 'reach'}",6,197,Left,37.43137396216894,37.446133927281075,1.8715686981084472,0.5882024962564287,Right,Incorrect,0.0,0.0,-45,45,2007,1331,-0.78
"{'cat': 'RB', 'resp': 'reach'}",6,198,Right,58.65705000065541,49.04441590559258,2.9328525000327703,0.7703878835430602,Left,Incorrect,0.0,0.0,-45,45,2014,888,-2.48
"{'cat': 'RB', 'resp': 'reach'}",6,199,Right,56.73849513124375,75.42835974612584,2.836924756562188,1.184825904253785,Right,Correct,0.0,0.0,-45,45,2009,948,-0.78
"{'cat': 'RB', 'resp': 'reach'}",6,200,Right,62.76996078769539,70.34708731777323,3.1384980393847695,1.1050094635947805,Right,Correct,0.0,0.0,-45,45,2003,1581,-0.8
"{'cat': 'RB', 'resp': 'reach'}",6,201,Right,52.513861185245766,64.20053431616235,2.625693059262288,1.0084596348209753,Right,Correct,0.0,0.0,-45,45,2005,917,-0.82
"{'cat': 'RB', 'resp': 'reach'}",6,202,Left,43.0913637673231,33.23756577150037,2.1545681883661554,0.5220944622547656,Right,Incorrect,0.0,0.0,-45,45,2013,1134,-0.78
"{'cat': 'RB', 'resp': 'reach'}",6,203,Left,33.60440475588447,66.7234521998113,1.6802202377942235,1.0480895362653846,Right,Incorrect,0.0,0.0,-45,45,2007,1122,-0.78
"{'cat': 'RB', 'resp': 'reach'}",6,204,Left,37.80801154265462,48.431217906239944,1.8904005771327308,0.7607557918932494,Right,Incorrect,0.0,0.0,-45,45,2007,1643,-0.79
"{'cat': 'RB', 'resp': 'reach'}",6,205,Left,37.08219433336942,34.11953825019842,1.854109716668471,0.5359484535534964,Right,Incorrect,0.0,0.0,-45,45,2003,1330,-0.73
"{'cat': 'RB', 'resp': 'reach'}",6,206,Left,41.01866229545711,11.650929605961643,2.050933114772856,0.18301237428790462,Left,Correct,0.0,0.0,-45,45,2003,1293,-2.56
"{'cat': 'RB', 'resp': 'reach'}",6,207,Right,63.8845634262657,13.975137073456928,3.1942281713132847,0.21952093981441326,Right,Correct,0.0,0.0,-45,45,2004,1757,-0.8
"{'cat': 'RB', 'resp': 'reach'}",6,208,Left,38.71478851040883,33.4443718538886,1.9357394255204414,0.5253429646005082,Right,Incorrect,0.0,0.0,-45,45,2004,1017,-0.71
"{'cat': 'RB', 'resp': 'reach'}",6,209,Left,37.484276693660966,54.66807528945347,1.8742138346830484,0.8587241185762036,Right,Incorrect,0.0,0.0,-45,45,2012,1129,-0.84
"{'cat': 'RB', 'resp': 'reach'}",6,210,Left,41.496605739565354,86.25088597728649,2.0748302869782678,1.3548257487592708,Right,Incorrect,0.0,0.0,-45,45,2001,853,-0.78
"{'cat': 'RB', 'resp': 'reach'}",6,211,Right,61.69076318136413,63.11673275934577,3.0845381590682064,0.9914353197767546,Left,Incorrect,0.0,0.0,-45,45,2007,1340,-2.53
"{'cat': 'RB', 'resp': 'reach'}",6,212,Left,38.119435260524845,42.93369322491843,1.9059717630262423,0.674400876134408,Right,Incorrect,0.0,0.0,-45,45,2004,1204,-0.87
"{'cat': 'RB', 'resp': 'reach'}",6,213,Left,46.54018101118087,42.305758842691176,2.3270090505590435,0.6645373059237002,Right,Incorrect,0.0,0.0,-45,45,2002,1265,-0.69
"{'cat': 'RB', 'resp': 'reach'}",6,214,Left,41.16223620701918,28.9630737297836,2.058111810350959,0.4549508982743384,Right,Incorrect,0.0,0.0,-45,45,2003,1053,-0.81
"{'cat': 'RB', 'resp': 'reach'}",6,215,Left,35.28873233298426,47.54017526830321,1.7644366166492131,0.7467593268663626,Left,Correct,0.0,0.0,-45,45,2013,1044,-2.49
"{'cat': 'RB', 'resp': 'reach'}",6,216,Left,44.81155981586893,21.796975013382102,2.2405779907934464,0.34238608286260747,Right,Incorrect,0.0,0.0,-45,45,2001,1077,-0.68
"{'cat': 'RB', 'resp': 'reach'}",6,217,Left,36.054826591713265,43.67779488824965,1.8027413295856634,0.6860891977296346,Right,Incorrect,0.0,0.0,-45,45,2008,759,-0.84
"{'cat': 'RB', 'resp': 'reach'}",6,218,Left,37.72897599365283,81.24083369006257,1.8864487996826416,1.2761280314610537,Left,Correct,0.0,0.0,-45,45,2004,645,-2.49
"{'cat': 'RB', 'resp': 'reach'}",6,219,Right,62.02467522055154,50.251375643831935,3.1012337610275775,0.7893467627772173,Right,Correct,0.0,0.0,-45,45,2013,583,-0.81
"{'cat': 'RB', 'resp': 'reach'}",6,220,Right,58.36434926512453,75.2509486666006,2.9182174632562266,1.1820391375332753,Right,Correct,0.0,0.0,-45,45,2001,1016,-0.89
"{'cat': 'RB', 'resp': 'reach'}",6,221,Left,38.708484428797604,15.166549296921467,1.93542422143988,0.2382355992575796,Right,Incorrect,0.0,0.0,-45,45,2004,822,-0.88
"{'cat': 'RB', 'resp': 'reach'}",6,222,Right,53.46060896678219,21.112645460227252,2.673030448339109,0.33163665937847914,Right,Correct,0.0,0.0,-45,45,2009,629,-0.87
"{'cat': 'RB', 'resp': 'reach'}",6,223,Right,66.993824021936,56.83171455199738,3.3496912010968005,0.8927104846373355,Right,Correct,0.0,0.0,-45,45,2012,793,-0.86
"{'cat': 'RB', 'resp': 'reach'}",6,224,Right,60.74724618415818,76.04480139593107,3.037362309207909,1.1945089470457595,Right,Correct,0.0,0.0,-45,45,2002,742,-0.78
"{'cat': 'RB', 'resp': 'reach'}",6,225,Right,61.40791820657945,81.0108370112003,3.0703959103289726,1.2725152520777347,Right,Correct,0.0,0.0,-45,45,2009,740,-0.84
"{'cat': 'RB', 'resp': 'reach'}",6,226,Right,66.41353205667424,51.91686400870325,3.320676602833712,0.8155081928358124,Right,Correct,0.0,0.0,-45,45,2006,771,-0.87
"{'cat': 'RB', 'resp': 'reach'}",6,227,Right,68.30229145888718,44.56509309072711,3.415114572944359,0.7000268453018677,Left,Incorrect,0.0,0.0,-45,45,2001,703,-2.48
"{'cat': 'RB', 'resp': 'reach'}",6,228,Left,36.56551918629744,14.596208501497856,1.8282759593148723,0.22927670699285274,Left,Correct,0.0,0.0,-45,45,2008,4105,-2.47
"{'cat': 'RB', 'resp': 'reach'}",6,229,Right,66.39268516251668,62.87464097743402,3.3196342581258342,0.9876325509590124,Left,Incorrect,0.0,0.0,-45,45,2007,2041,-2.45
"{'cat': 'RB', 'resp': 'reach'}",6,230,Left,32.07066623599091,69.11620631346636,1.6035333117995458,1.085674829991912,Right,Incorrect,0.0,0.0,-45,45,2002,2528,-0.8
"{'cat': 'RB', 'resp': 'reach'}",6,231,Right,56.81672964213171,63.037457155443214,2.8408364821065857,0.9901900615026087,Right,Correct,0.0,0.0,-45,45,2005,1351,-0.7
"{'cat': 'RB', 'resp': 'reach'}",6,232,Right,64.86370833970301,76.62385360401781,3.2431854169851504,1.2036046778606106,Right,Correct,0.0,0.0,-45,45,2002,677,-0.78
"{'cat': 'RB', 'resp': 'reach'}",6,233,Left,44.75988248609005,68.74178325661364,2.2379941243045023,1.0797934063681962,Right,Incorrect,0.0,0.0,-45,45,2006,1025,-0.77
"{'cat': 'RB', 'resp': 'reach'}",6,234,Left,45.48059238277044,55.566806784397436,2.2740296191385223,0.8728413598865322,Right,Incorrect,0.0,0.0,-45,45,2011,1126,-0.75
"{'cat': 'RB', 'resp': 'reach'}",6,235,Left,39.05539350152187,57.30037024144731,1.9527696750760937,0.9000721109925304,Right,Incorrect,0.0,0.0,-45,45,2004,796,-0.76
"{'cat': 'RB', 'resp': 'reach'}",6,236,Left,35.46044756818208,20.188855485424448,1.7730223784091041,0.3171258003869772,Right,Incorrect,0.0,0.0,-45,45,2006,1157,-0.73
"{'cat': 'RB', 'resp': 'reach'}",6,237,Left,45.389847554304374,58.12056122669857,2.2694923777152187,0.9129556408615599,Right,Incorrect,0.0,0.0,-45,45,2005,1170,-0.74
"{'cat': 'RB', 'resp': 'reach'}",6,238,Left,44.54461524548509,25.719094674108593,2.2272307622742544,0.4039945944257996,Left,Correct,0.0,0.0,-45,45,2001,1500,-2.52
"{'cat': 'RB', 'resp': 'reach'}",6,239,Left,32.75226076596185,56.06429426366154,1.6376130382980927,0.8806558749370773,Right,Incorrect,0.0,0.0,-45,45,2006,793,-0.72
"{'cat': 'RB', 'resp': 'reach'}",6,240,Left,31.862156051064318,62.2302573265568,1.593107802553216,0.9775105962405662,Right,Incorrect,0.0,0.0,-45,45,2004,963,-0.69
"{'cat': 'RB', 'resp': 'reach'}",6,241,Right,68.57683639976189,58.50233247225145,3.428841819988094,0.9189524895634639,Right,Correct,0.0,0.0,-45,45,2001,1305,-0.81
"{'cat': 'RB', 'resp': 'reach'}",6,242,Left,33.28758165799407,30.664093407355992,1.6643790828997032,0.48167045288770394,Left,Correct,0.0,0.0,-45,45,2002,1171,-2.47
"{'cat': 'RB', 'resp': 'reach'}",6,243,Left,37.42432435577388,37.6715094936986,1.8712162177886937,0.5917426873752083,Right,Incorrect,0.0,0.0,-45,45,2011,681,-0.77
"{'cat': 'RB', 'resp': 'reach'}",6,244,Left,46.17162497005997,51.50217878036159,2.308581248502999,0.8089943325012604,Right,Incorrect,0.0,0.0,-45,45,2005,784,-0.79
"{'cat': 'RB', 'resp': 'reach'}",6,245,Left,39.24365192913367,51.8328286258912,1.9621825964566835,0.8141881681293928,Right,Incorrect,0.0,0.0,-45,45,2001,1314,-0.76
"{'cat': 'RB', 'resp': 'reach'}",6,246,Right,67.76584081916947,61.38583955378611,3.3882920409584734,0.9642465128830808,Left,Incorrect,0.0,0.0,-45,45,2001,1364,-2.51
"{'cat': 'RB', 'resp': 'reach'}",6,247,Left,38.308532395753176,48.25165195350439,1.9154266197876586,0.7579351765035048,Right,Incorrect,0.0,0.0,-45,45,2008,2395,-0.87
"{'cat': 'RB', 'resp': 'reach'}",6,248,Right,52.53000439594166,71.4305943608145,2.626500219797083,1.1220291524274366,Left,Incorrect,0.0,0.0,-45,45,2011,1254,-2.48
"{'cat': 'RB', 'resp': 'reach'}",6,249,Right,59.14094130730187,55.699323790649544,2.957047065365094,0.874922932153119,Right,Correct,0.0,0.0,-45,45,2011,883,-0.78
"{'cat': 'RB', 'resp': 'reach'}",6,250,Right,55.31705954045746,83.48474978246975,2.7658529770228726,1.3113753830169452,Left,Incorrect,0.0,0.0,-45,45,2004,936,-2.49
"{'cat': 'RB', 'resp': 'reach'}",6,251,Left,34.79224891699885,50.28401405855674,1.7396124458499427,0.7898594457968388,Right,Incorrect,0.0,0.0,-45,45,2006,728,-0.8
"{'cat': 'RB', 'resp': 'reach'}",6,252,Left,44.97764976015354,45.74880113435555,2.248882488007677,0.7186204877711591,Right,Incorrect,0.0,0.0,-45,45,2001,1175,-0.85
"{'cat': 'RB', 'resp': 'reach'}",6,253,Right,64.88556897703987,79.79412624285153,3.244278448851993,1.2534032040207945,Right,Correct,0.0,0.0,-45,45,2005,767,-0.9
"{'cat': 'RB', 'resp': 'reach'}",6,254,Left,45.72848997479393,61.78717026233301,2.286424498739697,0.9705506009112355,Left,Correct,0.0,0.0,-45,45,2007,879,-2.36
"{'cat': 'RB', 'resp': 'reach'}",6,255,Right,62.18061631057238,61.49248994150892,3.109030815528619,0.9659217732559433,Right,Correct,0.0,0.0,-45,45,2012,925,-0.71
"{'cat': 'RB', 'resp': 'reach'}",6,256,Right,57.68690842166603,68.86041401625867,2.8843454210833017,1.0816568539831493,Left,Incorrect,0.0,0.0,-45,45,2003,801,-2.37
"{'cat': 'RB', 'resp': 'reach'}",6,257,Right,51.14648546185072,56.0869270323754,2.557324273092536,0.8810113896366866,Right,Correct,0.0,0.0,-45,45,2013,1027,-0.75
"{'cat': 'RB', 'resp': 'reach'}",6,258,Left,42.761402461164856,57.50619328091947,2.138070123058243,0.9033051717362567,Left,Correct,0.0,0.0,-45,45,2006,1919,-2.46
"{'cat': 'RB', 'resp': 'reach'}",6,259,Left,41.3080257091365,25.665768231614983,2.065401285456825,0.4031569446258996,Right,Incorrect,0.0,0.0,-45,45,2006,1324,-0.7
"{'cat': 'RB', 'resp': 'reach'}",6,260,Left,45.65255833852106,44.59806942823696,2.282627916926053,0.700544836400184,Right,Incorrect,0.0,0.0,-45,45,2002,794,-0.83
"{'cat': 'RB', 'resp': 'reach'}",6,261,Left,38.326834183842024,31.64290446687776,1.9163417091921013,0.4970455810569341,Right,Incorrect,0.0,0.0,-45,45,2001,1345,-0.83
"{'cat': 'RB', 'resp': 'reach'}",6,262,Right,67.46546983356484,59.44685314646237,3.373273491678242,0.9337889856197873,Right,Correct,0.0,0.0,-45,45,2001,957,-0.76
"{'cat': 'RB', 'resp': 'reach'}",6,263,Left,47.12426411574052,72.30687383214226,2.356213205787026,1.135793718175511,Right,Incorrect,0.0,0.0,-45,45,2003,802,-0.75
"{'cat': 'RB', 'resp': 'reach'}",6,264,Right,54.511964249554275,34.68149754288757,2.725598212477714,0.5447756894811402,Right,Correct,0.0,0.0,-45,45,2005,714,-0.71
"{'cat': 'RB', 'resp': 'reach'}",6,265,Left,37.788206275104734,20.19041534673656,1.8894103137552367,0.31715030263117094,Left,Correct,0.0,0.0,-45,45,2009,776,-2.48
"{'cat': 'RB', 'resp': 'reach'}",6,266,Left,37.38683345520648,30.347242089439113,1.8693416727603238,0.4766933640244645,Left,Correct,0.0,0.0,-45,45,2007,835,-2.46
"{'cat': 'RB', 'resp': 'reach'}",6,267,Left,36.8002094310737,64.80252986673534,1.840010471553685,1.0179157588168444,Right,Incorrect,0.0,0.0,-45,45,2005,636,-0.67
"{'cat': 'RB', 'resp': 'reach'}",6,268,Left,45.31690397010441,66.13731187394019,2.265845198505221,1.0388824655567377,Right,Incorrect,0.0,0.0,-45,45,2002,1202,-0.82
"{'cat': 'RB', 'resp': 'reach'}",6,269,Left,47.11450154636849,72.0329432077692,2.3557250773184246,1.1314908259898926,Left,Correct,0.0,0.0,-45,45,2004,1149,-2.38
"{'cat': 'RB', 'resp': 'reach'}",6,270,Left,36.58387903274008,15.77578421541677,1.829193951637004,0.2478054389788557,Left,Correct,0.0,0.0,-45,45,2001,742,-2.42
"{'cat': 'RB', 'resp': 'reach'}",6,271,Left,34.5225457385767,18.879732584579266,1.726127286928835,0.2965621459472703,Left,Correct,0.0,0.0,-45,45,2005,984,-2.51
"{'cat': 'RB', 'resp': 'reach'}",6,272,Left,38.90701827236236,79.66472428130386,1.945350913618118,1.251370562762003,Left,Correct,0.0,0.0,-45,45,2008,692,-2.4
"{'cat': 'RB', 'resp': 'reach'}",6,273,Left,41.818935001977636,27.469990483365976,2.090946750098882,0.4314976014836205,Left,Correct,0.0,0.0,-45,45,2004,676,-2.5
"{'cat': 'RB', 'resp': 'reach'}",6,274,Left,36.99510013894553,79.9002346871857,1.8497550069472766,1.2550699515668147,Right,Incorrect,0.0,0.0,-45,45,2006,923,-0.83
"{'cat': 'RB', 'resp': 'reach'}",6,275,Right,62.12935669265352,81.70155860962524,3.106467834632676,1.2833650815741728,Left,Incorrect,0.0,0.0,-45,45,2012,733,-2.48
"{'cat': 'RB', 'resp': 'reach'}",6,276,Right,53.01767444886687,34.51279105882432,2.6508837224433432,0.5421256542264099,Right,Correct,0.0,0.0,-45,45,2003,721,-0.85
"{'cat': 'RB', 'resp': 'reach'}",6,277,Left,49.23521617951292,57.11392231061631,2.461760808975646,0.8971433937436518,Right,Incorrect,0.0,0.0,-45,45,2003,994,-0.71
"{'cat': 'RB', 'resp': 'reach'}",6,278,Left,47.149880610703384,40.244903266983144,2.357494030535169,0.6321654622399305,Left,Correct,0.0,0.0,-45,45,2001,723,-2.53
"{'cat': 'RB', 'resp': 'reach'}",6,279,Right,66.42219124379108,33.536574501783576,3.321109562189554,0.5267912804068503,Left,Incorrect,0.0,0.0,-45,45,2002,2238,-2.47
"{'cat': 'RB', 'resp': 'reach'}",6,280,Left,44.93727319313291,60.358858938839376,2.2468636596566456,0.9481147391066018,Right,Incorrect,0.0,0.0,-45,45,2002,5264,-0.8
"{'cat': 'RB', 'resp': 'reach'}",6,281,Right,53.538177463478114,52.421737682077115,2.6769088731739057,0.8234387299521235,Left,Incorrect,0.0,0.0,-45,45,2005,972,-2.49
"{'cat': 'RB', 'resp': 'reach'}",6,282,Left,39.393827175455094,62.25521685113485,1.9696913587727547,0.9779026595358237,Right,Incorrect,0.0,0.0,-45,45,2005,542,-0.76
"{'cat': 'RB', 'resp': 'reach'}",6,283,Left,38.07517497578583,44.12788390472449,1.9037587487892915,0.6931591794677286,Right,Incorrect,0.0,0.0,-45,45,2009,616,-0.76
"{'cat': 'RB', 'resp': 'reach'}",6,284,Right,50.935609632393394,57.95967811708779,2.5467804816196695,0.9104284948853604,Left,Incorrect,0.0,0.0,-45,45,2009,521,-2.37
"{'cat': 'RB', 'resp': 'reach'}",6,285,Right,53.32738905271712,52.85809956094834,2.6663694526358563,0.8302930863169657,Right,Correct,0.0,0.0,-45,45,2008,393,-0.78
"{'cat': 'RB', 'resp': 'reach'}",6,286,Left,36.2588177251651,18.96440316332403,1.812940886258255,0.29789214828806904,Right,Incorrect,0.0,0.0,-45,45,2011,426,-0.83
"{'cat': 'RB', 'resp': 'reach'}",6,287,Right,58.8480023275621,15.199087961669292,2.9424001163781046,0.23874671540822653,Right,Correct,0.0,0.0,-45,45,2002,496,-0.8
"{'cat': 'RB', 'resp': 'reach'}",6,288,Right,66.70797263195564,49.00275513109233,3.3353986315977817,0.769733477627496,Right,Correct,0.0,0.0,-45,45,2009,447,-0.74
"{'cat': 'RB', 'resp': 'reach'}",6,289,Left,33.84339208903733,32.66575491890289,1.6921696044518666,0.5131124783859499,Left,Correct,0.0,0.0,-45,45,2013,599,-2.48
"{'cat': 'RB', 'resp': 'reach'}",6,290,Right,59.80589306679235,77.97399466713978,2.9902946533396175,1.22481264408668,Right,Correct,0.0,0.0,-45,45,2007,1207,-0.77
"{'cat': 'RB', 'resp': 'reach'}",6,291,Right,53.22326562911578,73.29153584321377,2.661163281455789,1.1512607528767669,Right,Correct,0.0,0.0,-45,45,2011,504,-0.79
"{'cat': 'RB', 'resp': 'reach'}",6,292,Right,56.24179716286698,46.02998457034337,2.8120898581433487,0.7230373068552115,Right,Correct,0.0,0.0,-45,45,2005,399,-0.83
"{'cat': 'RB', 'resp': 'reach'}",6,293,Right,63.3965317637095,34.46834979099603,3.1698265881854746,0.541427572423782,Right,Correct,0.0,0.0,-45,45,2006,360,-0.83
"{'cat': 'RB', 'resp': 'reach'}",6,294,Left,41.67646276460538,70.15653795133768,2.083823138230269,1.1020163211460798,Left,Correct,0.0,0.0,-45,45,2005,547,-2.37
"{'cat': 'RB', 'resp': 'reach'}",6,295,Left,43.11334243345229,82.53378142575932,2.1556671216726144,1.296437607000756,Right,Incorrect,0.0,0.0,-45,45,2006,343,-0.82
"{'cat': 'RB', 'resp': 'reach'}",6,296,Right,64.86203430325271,70.99081724659906,3.2431017151626356,1.1151211496712559,Right,Correct,0.0,0.0,-45,45,2004,520,-0.83
"{'cat': 'RB', 'resp': 'reach'}",6,297,Right,63.17926231988454,47.65449776198446,3.158963115994227,0.748555100397808,Right,Correct,0.0,0.0,-45,45,2004,580,-0.76
"{'cat': 'RB', 'resp': 'reach'}",6,298,Left,35.722063810345205,73.94577733070221,1.7861031905172604,1.1615375541306037,Left,Correct,0.0,0.0,-45,45,2003,592,-2.39
"{'cat': 'RB', 'resp': 'reach'}",6,299,Right,55.389723581140174,59.064360212161894,2.769486179057009,0.9277808006575455,Left,Incorrect,0.0,0.0,-45,45,2007,449,-2.48
"{'cat': 'RB', 'resp': 'reach'}",6,300,Right,57.71001652903741,84.19388973107877,2.8855008264518704,1.3225145272815308,Right,Correct,0.0,0.0,-45,45,2008,643,-0.81
"{'cat': 'RB', 'resp': 'reach'}",6,301,Right,51.827430503680525,42.59051505254483,2.591371525184026,0.6690102460084018,Right,Correct,0.0,0.0,-45,45,2004,569,-0.81
"{'cat': 'RB', 'resp': 'reach'}",6,302,Left,32.58754787954315,26.10717503226837,1.6293773939771574,0.41009054643678594,Right,Incorrect,0.0,0.0,-45,45,2002,529,-0.78
"{'cat': 'RB', 'resp': 'reach'}",6,303,Right,58.83201182712202,29.1154480620324,2.9416005913561007,0.45734438868828087,Left,Incorrect,0.0,0.0,-45,45,2007,599,-2.4
"{'cat': 'RB', 'resp': 'reach'}",6,304,Left,38.76682114233509,35.780140388407624,1.9383410571167545,0.5620331309431641,Left,Correct,0.0,0.0,-45,45,2009,578,-2.41
"{'cat': 'RB', 'resp': 'reach'}",6,305,Right,66.84491328635687,73.39526129259232,3.3422456643178435,1.152890068425557,Right,Correct,0.0,0.0,-45,45,2010,551,-0.65
"{'cat': 'RB', 'resp': 'reach'}",6,306,Right,56.44612198106476,55.411997389914006,2.8223060990532383,0.8704096196044532,Right,Correct,0.0,0.0,-45,45,2006,1285,-0.84
"{'cat': 'RB', 'resp': 'reach'}",6,307,Right,53.004922985592096,37.73043583284959,2.650246149279605,0.5926683001461067,Right,Correct,0.0,0.0,-45,45,2009,580,-0.81
"{'cat': 'RB', 'resp': 'reach'}",6,308,Left,42.7457113064416,63.13334861751454,2.1372855653220797,0.991696321066535,Right,Incorrect,0.0,0.0,-45,45,2009,1164,-0.69
"{'cat': 'RB', 'resp': 'reach'}",6,309,Left,37.276734931356806,36.367014738136774,1.8638367465678403,0.5712517316716111,Right,Incorrect,0.0,0.0,-45,45,2011,603,-0.75
"{'cat': 'RB', 'resp': 'reach'}",6,310,Left,45.036262073606814,33.692472695652484,2.2518131036803406,0.5292401235096826,Right,Incorrect,0.0,0.0,-45,45,2005,1408,-0.72
"{'cat': 'RB', 'resp': 'reach'}",6,311,Right,51.93746154105572,51.826702628321975,2.596873077052786,0.8140919411845957,Right,Correct,0.0,0.0,-45,45,2003,717,-0.77
"{'cat': 'RB', 'resp': 'reach'}",6,312,Left,37.928997608394205,48.730004579999736,1.8964498804197103,0.7654491219896207,Right,Incorrect,0.0,0.0,-45,45,2013,679,-0.72
"{'cat': 'RB', 'resp': 'reach'}",6,313,Right,56.78350999940508,47.25900127774517,2.839175499970254,0.7423426561507743,Right,Correct,0.0,0.0,-45,45,2006,800,-0.72
"{'cat': 'RB', 'resp': 'reach'}",6,314,Left,48.976311153220536,59.77386680168846,2.448815557661027,0.9389257041041964,Right,Incorrect,0.0,0.0,-45,45,2012,674,-0.78
"{'cat': 'RB', 'resp': 'reach'}",6,315,Right,59.64809813342571,46.779700248284556,2.9824049066712854,0.7348138131857168,Left,Incorrect,0.0,0.0,-45,45,2003,789,-2.41
"{'cat': 'RB', 'resp': 'reach'}",6,316,Right,55.10363304436735,62.5617124147247,2.755181652218367,0.9827170805904824,Right,Correct,0.0,0.0,-45,45,2007,584,-0.78
"{'cat': 'RB', 'resp': 'reach'}",6,317,Left,38.113464820954846,87.4118538397471,1.9056732410477424,1.373062189298071,Right,Incorrect,0.0,0.0,-45,45,2002,487,-0.8
"{'cat': 'RB', 'resp': 'reach'}",6,318,Right,54.12799438774358,76.95446045602864,2.706399719387179,1.208797838148129,Right,Correct,0.0,0.0,-45,45,2007,581,-0.82
"{'cat': 'RB', 'resp': 'reach'}",6,319,Left,40.206546305991424,11.266764817122649,2.010327315299571,0.17697792789598232,Right,Incorrect,0.0,0.0,-45,45,2008,570,-0.79
"{'cat': 'RB', 'resp': 'reach'}",6,320,Left,34.1077435885993,38.59121132205321,1.705387179429965,0.6061893299124681,Right,Incorrect,0.0,0.0,-45,45,2008,486,-0.75
"{'cat': 'RB', 'resp': 'reach'}",6,321,Left,35.56665397599708,42.07500151922176,1.7783326987998538,0.6609125783628322,Right,Incorrect,0.0,0.0,-45,45,2005,491,-0.84
"{'cat': 'RB', 'resp': 'reach'}",6,322,Left,44.56228845953866,38.895434653218544,2.2281144229769327,0.6109680588236663,Right,Incorrect,0.0,0.0,-45,45,2001,557,-0.71
"{'cat': 'RB', 'resp': 'reach'}",6,323,Right,65.61595345669625,60.808508644664826,3.2807976728348125,0.9551778201691522,Right,Correct,0.0,0.0,-45,45,2002,527,-0.79
"{'cat': 'RB', 'resp': 'reach'}",6,324,Left,33.07493059891597,71.99587398825796,1.6537465299457983,1.1309085440514384,Right,Incorrect,0.0,0.0,-45,45,2009,560,-0.82
"{'cat': 'RB', 'resp': 'reach'}",6,325,Right,65.32932941139508,64.43099258306043,3.2664664705697537,1.0120796648122055,Left,Incorrect,0.0,0.0,-45,45,2012,1023,-2.38
"{'cat': 'RB', 'resp': 'reach'}",6,326,Left,32.473186916557474,45.76254761496408,1.6236593458278736,0.7188364169836213,Right,Incorrect,0.0,0.0,-45,45,2001,741,-0.76
"{'cat': 'RB', 'resp': 'reach'}",6,327,Left,45.71702025666672,18.028421906327008,2.2858510128333362,0.28318978908367115,Right,Incorrect,0.0,0.0,-45,45,2001,603,-0.82
"{'cat': 'RB', 'resp': 'reach'}",6,328,Right,60.45467592403613,30.42616011384108,3.022733796201807,0.47793300545294964,Left,Incorrect,0.0,0.0,-45,45,2008,625,-2.34
"{'cat': 'RB', 'resp': 'reach'}",6,329,Left,33.50458217374786,24.454064920456315,1.675229108687393,0.3841235535225671,Right,Incorrect,0.0,0.0,-45,45,2001,493,-0.78
"{'cat': 'RB', 'resp': 'reach'}",6,330,Left,43.993971320424265,67.10232720128727,2.199698566021213,1.0540408908717132,Left,Correct,0.0,0.0,-45,45,2003,723,-2.39
"{'cat': 'RB', 'resp': 'reach'}",6,331,Left,33.79186414909113,44.85648411014216,1.6895932074545568,0.7046040047314495,Right,Incorrect,0.0,0.0,-45,45,2012,558,-0.77
"{'cat': 'RB', 'resp': 'reach'}",6,332,Left,33.908693348718316,64.97270505783422,1.6954346674359158,1.0205888644677419,Left,Correct,0.0,0.0,-45,45,2009,751,-2.47
"{'cat': 'RB', 'resp': 'reach'}",6,333,Left,41.20902897518249,12.981145359044689,2.0604514487591246,0.20390735447578018,Right,Incorrect,0.0,0.0,-45,45,2004,519,-0.78
"{'cat': 'RB', 'resp': 'reach'}",6,334,Left,36.90674181598695,56.048077031435874,1.8453370907993474,0.8804011352489689,Left,Correct,0.0,0.0,-45,45,2006,599,-2.49
"{'cat': 'RB', 'resp': 'reach'}",6,335,Right,66.10981091880255,48.01980510757197,3.3054905459401276,0.7542933347638087,Right,Correct,0.0,0.0,-45,45,2005,562,-0.77
"{'cat': 'RB', 'resp': 'reach'}",6,336,Right,61.54382017391591,79.23283037679644,3.0771910086957956,1.2445863891743496,Right,Correct,0.0,0.0,-45,45,2005,1206,-0.75
"{'cat': 'RB', 'resp': 'reach'}",6,337,Right,53.5681663712449,23.521621626706665,2.678408318562245,0.3694767685149023,Right,Correct,0.0,0.0,-45,45,2006,646,-0.87
"{'cat': 'RB', 'resp': 'reach'}",6,338,Left,35.51310198779629,25.442697710166197,1.7756550993898146,0.39965296106881987,Right,Incorrect,0.0,0.0,-45,45,2007,587,-0.83
"{'cat': 'RB', 'resp': 'reach'}",6,339,Right,56.92860250159436,24.66911053279563,2.8464301250797184,0.3875014821021267,Left,Incorrect,0.0,0.0,-45,45,2007,891,-2.45
"{'cat': 'RB', 'resp': 'reach'}",6,340,Right,52.7433563098899,34.7647603864319,2.637167815494495,0.5460835791691196,Right,Correct,0.0,0.0,-45,45,2007,668,-0.89
"{'cat': 'RB', 'resp': 'reach'}",6,341,Right,59.544953629462945,11.638922332438824,2.977247681473147,0.18282376447645995,Right,Correct,0.0,0.0,-45,45,2003,619,-0.79
"{'cat': 'RB', 'resp': 'reach'}",6,342,Left,43.311405506662204,70.82236924300348,2.1655702753331103,1.112475174618217,Right,Incorrect,0.0,0.0,-45,45,2006,593,-0.79
"{'cat': 'RB', 'resp': 'reach'}",6,343,Left,45.58915975295149,68.95293054849154,2.2794579876475747,1.0831101002731411,Right,Incorrect,0.0,0.0,-45,45,2002,685,-0.77
"{'cat': 'RB', 'resp': 'reach'}",6,344,Right,54.04771746775523,32.28661808406814,2.7023858733877613,0.5071570109108391,Right,Correct,0.0,0.0,-45,45,2008,519,-0.83
"{'cat': 'RB', 'resp': 'reach'}",6,345,Left,32.627753660741355,72.90192764977681,1.6313876830370677,1.145140801685367,Left,Correct,0.0,0.0,-45,45,2007,640,-2.35
"{'cat': 'RB', 'resp': 'reach'}",6,346,Right,54.3715145681617,26.890510854571335,2.7185757284080854,0.42239515675998957,Right,Correct,0.0,0.0,-45,45,2007,864,-0.75
"{'cat': 'RB', 'resp': 'reach'}",6,347,Right,54.7611567564682,82.92101896838872,2.73805783782341,1.3025203200963495,Right,Correct,0.0,0.0,-45,45,2008,1563,-0.8
"{'cat': 'RB', 'resp': 'reach'}",6,348,Left,42.46304020217356,47.33023310527853,2.1231520101086776,0.7434615630811774,Right,Incorrect,0.0,0.0,-45,45,2002,1533,-0.86
"{'cat': 'RB', 'resp': 'reach'}",6,349,Right,58.35011113913836,55.978656493548655,2.9175055569569177,0.8793106799897951,Right,Correct,0.0,0.0,-45,45,2002,720,-0.85
"{'cat': 'RB', 'resp': 'reach'}",6,350,Left,46.855699230670034,63.10958403422812,2.3427849615335017,0.9913230278651939,Left,Correct,0.0,0.0,-45,45,2005,677,-2.4
"{'cat': 'RB', 'resp': 'reach'}",6,351,Left,47.021509832672045,59.89034109724815,2.3510754916336025,0.9407552780605081,Right,Incorrect,0.0,0.0,-45,45,2001,594,-0.8
"{'cat': 'RB', 'resp': 'reach'}",6,352,Left,44.67456033814152,60.592309437018244,2.233728016907076,0.95178177095688,Right,Incorrect,0.0,0.0,-45,45,2011,623,-0.83
"{'cat': 'RB', 'resp': 'reach'}",6,353,Left,38.85287453234237,77.1609969075707,1.9426437266171184,1.2120421051424441,Right,Incorrect,0.0,0.0,-45,45,2002,487,-0.79
"{'cat': 'RB', 'resp': 'reach'}",6,354,Left,43.795565419275945,25.417460677264454,2.189778270963797,0.39925653868300726,Right,Incorrect,0.0,0.0,-45,45,2001,647,-0.84
"{'cat': 'RB', 'resp': 'reach'}",6,355,Left,36.000600396880145,41.819478236765974,1.8000300198440073,0.656898828027911,Left,Correct,0.0,0.0,-45,45,2007,972,-2.36
"{'cat': 'RB', 'resp': 'reach'}",6,356,Left,36.42598772341861,38.246416788616195,1.8212993861709306,0.6007733100462498,Right,Incorrect,0.0,0.0,-45,45,2001,615,-0.76
"{'cat': 'RB', 'resp': 'reach'}",6,357,Left,35.41289093252337,22.781083821061046,1.7706445466261684,0.35784442786529336,Left,Correct,0.0,0.0,-45,45,2002,1022,-2.4
"{'cat': 'RB', 'resp': 'reach'}",6,358,Right,56.33360947585797,16.831526132910085,2.8166804737928985,0.2643889942392747,Right,Correct,0.0,0.0,-45,45,2006,357,-0.79
"{'cat': 'RB', 'resp': 'reach'}",6,359,Left,40.77360072958133,20.606248913229404,2.0386800364790667,0.32368220101922074,Right,Incorrect,0.0,0.0,-45,45,2002,457,-0.74
"{'cat': 'RB', 'resp': 'reach'}",6,360,Right,55.53607945502508,67.46629979592603,2.7768039727512543,1.059758159018839,Right,Correct,0.0,0.0,-45,45,2013,402,-0.75
"{'cat': 'RB', 'resp': 'reach'}",6,361,Right,65.96096925805628,33.592317327966484,3.298048462902814,0.5276668866729831,Left,Incorrect,0.0,0.0,-45,45,2009,585,-2.44
"{'cat': 'RB', 'resp': 'reach'}",6,362,Right,62.244288041448556,63.31215210766914,3.1122144020724276,0.9945049597220645,Right,Correct,0.0,0.0,-45,45,2006,472,-0.76
"{'cat': 'RB', 'resp': 'reach'}",6,363,Right,61.59401706189173,33.68482006736629,3.079700853094587,0.5291199163056599,Left,Incorrect,0.0,0.0,-45,45,2005,707,-2.44
"{'cat': 'RB', 'resp': 'reach'}",6,364,Right,51.8432119599894,54.01499666081118,2.59216059799947,0.8484655834664079,Right,Correct,0.0,0.0,-45,45,2003,553,-0.75
"{'cat': 'RB', 'resp': 'reach'}",6,365,Right,56.682022737857,85.07487682876442,2.8341011368928495,1.336353040251514,Right,Correct,0.0,0.0,-45,45,2013,608,-0.74
"{'cat': 'RB', 'resp': 'reach'}",6,366,Left,48.70202145304302,35.716236393953736,2.435101072652151,0.5610293293456072,Right,Incorrect,0.0,0.0,-45,45,2013,745,-0.83
"{'cat': 'RB', 'resp': 'reach'}",6,367,Right,56.95246648310126,23.805417559045406,2.8476233241550633,0.3739346245956726,Left,Incorrect,0.0,0.0,-45,45,2004,1164,-2.34
"{'cat': 'RB', 'resp': 'reach'}",6,368,Right,68.01083619238517,33.907115479666224,3.4005418096192583,0.5326117244767008,Right,Correct,0.0,0.0,-45,45,2003,494,-0.8
"{'cat': 'RB', 'resp': 'reach'}",6,369,Right,62.60179680938526,53.77654868975558,3.1300898404692634,0.8447200514957498,Right,Correct,0.0,0.0,-45,45,2001,692,-0.81
"{'cat': 'RB', 'resp': 'reach'}",6,370,Right,68.9170427050069,48.70354449098795,3.4458521352503455,0.7650334878833569,Right,Correct,0.0,0.0,-45,45,2003,660,-0.9
"{'cat': 'RB', 'resp': 'reach'}",6,371,Right,64.54632498740467,80.04059796699359,3.2273162493702334,1.2572747728102058,Left,Incorrect,0.0,0.0,-45,45,2006,866,-2.43
"{'cat': 'RB', 'resp': 'reach'}",6,372,Right,54.0855150918515,66.67502853709124,2.7042757545925746,1.0473288991500782,Right,Correct,0.0,0.0,-45,45,2003,825,-0.83
"{'cat': 'RB', 'resp': 'reach'}",6,373,Right,53.676318118641774,35.9750270632588,2.683815905932089,0.5650944036731391,Right,Correct,0.0,0.0,-45,45,2008,598,-0.79
"{'cat': 'RB', 'resp': 'reach'}",6,374,Right,57.196886718847686,28.518362343602423,2.8598443359423844,0.44796538815536585,Right,Correct,0.0,0.0,-45,45,2004,747,-0.78
"{'cat': 'RB', 'resp': 'reach'}",6,375,Right,63.262937889415,16.66375672199655,3.16314689447075,0.26175367849515946,Right,Correct,0.0,0.0,-45,45,2004,895,-0.89
"{'cat': 'RB', 'resp': 'reach'}",6,376,Right,55.655230197854216,33.2499402375884,2.7827615098927105,0.5222888399135368,Left,Incorrect,0.0,0.0,-45,45,2008,750,-2.42
"{'cat': 'RB', 'resp': 'reach'}",6,377,Right,59.2247166378127,89.93667392539304,2.961235831890635,1.4127219704615774,Right,Correct,0.0,0.0,-45,45,2005,920,-0.82
"{'cat': 'RB', 'resp': 'reach'}",6,378,Right,64.7105721326229,49.50824256020759,3.2355286066311453,0.7776736555964485,Right,Correct,0.0,0.0,-45,45,2002,603,-0.76
"{'cat': 'RB', 'resp': 'reach'}",6,379,Left,33.23945119301033,34.56592104426645,1.6619725596505166,0.5429602180861616,Right,Incorrect,0.0,0.0,-45,45,2001,773,-0.81
"{'cat': 'RB', 'resp': 'reach'}",6,380,Left,33.41640513605066,55.097745573621225,1.670820256802533,0.8654733636172398,Left,Correct,0.0,0.0,-45,45,2005,660,-2.38
"{'cat': 'RB', 'resp': 'reach'}",6,381,Right,64.62549595657988,75.93463573030523,3.231274797828994,1.1927784688167196,Right,Correct,0.0,0.0,-45,45,2009,653,-0.87
"{'cat': 'RB', 'resp': 'reach'}",6,382,Right,67.01588757518616,30.198040390056967,3.350794378759308,0.47434970921105407,Right,Correct,0.0,0.0,-45,45,2013,571,-0.86
"{'cat': 'RB', 'resp': 'reach'}",6,383,Left,39.53439558967408,24.085727625552206,1.976719779483704,0.3783377248239977,Right,Incorrect,0.0,0.0,-45,45,2001,702,-0.78
"{'cat': 'RB', 'resp': 'reach'}",6,384,Right,66.69240049840141,26.43220947354182,3.3346200249200706,0.4151961755011276,Left,Incorrect,0.0,0.0,-45,45,2002,1015,-2.26
"{'cat': 'RB', 'resp': 'reach'}",6,385,Left,42.60867756349402,22.72781541891489,2.130433878174701,0.35700768976103925,Right,Incorrect,0.0,0.0,-45,45,2007,575,-0.79
"{'cat': 'RB', 'resp': 'reach'}",6,386,Right,58.670363017065846,36.60464003976778,2.9335181508532924,0.5749843411811663,Right,Correct,0.0,0.0,-45,45,2002,546,-0.82
"{'cat': 'RB', 'resp': 'reach'}",6,387,Left,45.37143257865047,45.14204963889823,2.2685716289325235,0.7090896575677422,Left,Correct,0.0,0.0,-45,45,2005,687,-2.29
"{'cat': 'RB', 'resp': 'reach'}",6,388,Left,31.079232504752195,39.381681079891514,1.5539616252376098,0.6186059998330167,Right,Incorrect,0.0,0.0,-45,45,2005,459,-0.79
"{'cat': 'RB', 'resp': 'reach'}",6,389,Left,39.7042301205639,81.45576446157901,1.985211506028195,1.2795041561251859,Right,Incorrect,0.0,0.0,-45,45,2007,483,-0.87
"{'cat': 'RB', 'resp': 'reach'}",6,390,Left,34.56588560208287,18.249288223472774,1.7282942801041434,0.28665914908052403,Right,Incorrect,0.0,0.0,-45,45,2010,642,-0.86
"{'cat': 'RB', 'resp': 'reach'}",6,391,Left,32.317354583211504,68.54120172395527,1.6158677291605752,1.0766426790209698,Left,Correct,0.0,0.0,-45,45,2012,507,-2.34
"{'cat': 'RB', 'resp': 'reach'}",6,392,Left,35.583208234045614,82.21921389414527,1.7791604117022808,1.2914963917688729,Right,Incorrect,0.0,0.0,-45,45,2012,1067,-0.86
"{'cat': 'RB', 'resp': 'reach'}",6,393,Right,53.960494741194395,61.54587106721536,2.6980247370597197,0.9667602820177419,Left,Incorrect,0.0,0.0,-45,45,2009,707,-2.41
"{'cat': 'RB', 'resp': 'reach'}",6,394,Right,66.98988904995049,75.59739932096876,3.3494944524975243,1.1874811716862474,Right,Correct,0.0,0.0,-45,45,2003,569,-0.8
"{'cat': 'RB', 'resp': 'reach'}",6,395,Right,54.919098066368264,49.3342892543477,2.7459549033184136,0.7749412034576632,Left,Incorrect,0.0,0.0,-45,45,2005,700,-2.42
"{'cat': 'RB', 'resp': 'reach'}",6,396,Right,62.89289463306963,38.59561716563177,3.144644731653482,0.6062585367415644,Right,Correct,0.0,0.0,-45,45,2004,602,-0.88
"{'cat': 'RB', 'resp': 'reach'}",6,397,Right,51.81733175992862,66.3896307137078,2.5908665879964308,1.0428458806236185,Right,Correct,0.0,0.0,-45,45,2007,1830,-0.85
"{'cat': 'RB', 'resp': 'reach'}",6,398,Left,35.239283141971846,84.84616074614027,1.7619641570985922,1.3327603764268647,Right,Incorrect,0.0,0.0,-45,45,2003,800,-0.69
"{'cat': 'RB', 'resp': 'reach'}",6,399,Right,59.45140187776414,10.497221780810591,2.972570093888207,0.1648899741484866,Right,Correct,0.0,0.0,-45,45,2010,604,-0.91
