condition,subject,trial,cat,x,y,xt,yt,resp,fb,rotation,su,target_angle_left,target_angle_right,rt,mt,ep
"{'cat': 'RB', 'resp': 'reach'}",345678,0,Left,32.06275926964874,57.26106680717123,1.6031379634824368,0.8994547340906174,Right,Incorrect,0.0,0.0,-45,45,2009,1309,-0.68
"{'cat': 'RB', 'resp': 'reach'}",345678,1,Left,35.00619921060731,40.70304144248571,1.7503099605303658,0.6393618798723701,Right,Incorrect,0.0,0.0,-45,45,2002,2064,-0.78
"{'cat': 'RB', 'resp': 'reach'}",345678,2,Right,59.31637316286666,32.06240017970681,2.965818658143333,0.503635004305115,Left,Incorrect,0.0,0.0,-45,45,2003,1071,-2.45
"{'cat': 'RB', 'resp': 'reach'}",345678,3,Left,31.87714444442586,49.27864015121634,1.5938572222212928,0.7740670693897812,Left,Correct,0.0,0.0,-45,45,2004,3012,-2.48
"{'cat': 'RB', 'resp': 'reach'}",345678,4,Left,35.43923759705298,62.16121214719789,1.7719618798526489,0.9764260370993674,Left,Correct,0.0,0.0,-45,45,2002,1475,-2.59
"{'cat': 'RB', 'resp': 'reach'}",345678,5,Left,34.61022568705605,28.614295959059888,1.7305112843528025,0.4494723098631332,Left,Correct,0.0,0.0,-45,45,2003,2033,-2.71
"{'cat': 'RB', 'resp': 'reach'}",345678,6,Left,42.08988372590712,51.06095138584155,2.1044941862953563,0.8020635487953269,Right,Incorrect,0.0,0.0,-45,45,2006,3528,-0.78
"{'cat': 'RB', 'resp': 'reach'}",345678,7,Left,42.01302940357328,78.39685416314515,2.100651470178664,1.231454905517436,Left,Correct,0.0,0.0,-45,45,2013,1449,-2.52
"{'cat': 'RB', 'resp': 'reach'}",345678,8,Right,65.36498856833508,60.8153717829329,3.268249428416754,0.9552856260929699,Left,Incorrect,0.0,0.0,-45,45,2003,1175,-2.52
"{'cat': 'RB', 'resp': 'reach'}",345678,9,Left,48.52595231976717,32.56306853702698,2.4262976159883585,0.5114994844713243,Right,Incorrect,0.0,0.0,-45,45,2003,2779,-0.84
"{'cat': 'RB', 'resp': 'reach'}",345678,10,Right,56.66772511230929,63.08028898589026,2.8333862556154643,0.99086286232197,Left,Incorrect,0.0,0.0,-45,45,2002,2509,-2.64
"{'cat': 'RB', 'resp': 'reach'}",345678,11,Right,60.169765736313536,21.00170842108976,3.008488286815677,0.3298940644426524,Right,Correct,0.0,0.0,-45,45,2001,1486,-0.77
"{'cat': 'RB', 'resp': 'reach'}",345678,12,Left,45.510568133247716,33.56279418531149,2.275528406662386,0.527203138232604,Right,Incorrect,0.0,0.0,-45,45,2009,1279,-0.81
"{'cat': 'RB', 'resp': 'reach'}",345678,13,Right,66.59648302332783,25.439390925439252,3.3298241511663917,0.399601018215794,Left,Incorrect,0.0,0.0,-45,45,2001,1019,-2.52
"{'cat': 'RB', 'resp': 'reach'}",345678,14,Right,61.84408883445306,72.0612542932829,3.092204441722653,1.1319355354812175,Right,Correct,0.0,0.0,-45,45,2003,937,-0.72
"{'cat': 'RB', 'resp': 'reach'}",345678,15,Left,36.42583071668848,38.183012703730604,1.8212915358344242,0.599777361009829,Right,Incorrect,0.0,0.0,-45,45,2005,1647,-0.82
"{'cat': 'RB', 'resp': 'reach'}",345678,16,Right,55.822088302647664,15.97077811071621,2.791104415132383,0.2508683959236936,Left,Incorrect,0.0,0.0,-45,45,2008,2598,-2.7
"{'cat': 'RB', 'resp': 'reach'}",345678,17,Right,57.55069683003351,68.87456094925307,2.8775348415016753,1.0818790734869794,Right,Correct,0.0,0.0,-45,45,2002,968,-0.74
"{'cat': 'RB', 'resp': 'reach'}",345678,18,Right,53.327399643588436,48.192785471092684,2.666369982179422,0.7570105039600684,Left,Incorrect,0.0,0.0,-45,45,2006,1986,-2.58
"{'cat': 'RB', 'resp': 'reach'}",345678,19,Left,32.085443218697144,34.155136430496526,1.6042721609348574,0.5365076284620249,Left,Correct,0.0,0.0,-45,45,2002,2664,-2.47
"{'cat': 'RB', 'resp': 'reach'}",345678,20,Left,42.18123037989694,35.49518134473784,2.1090615189948467,0.5575570047523293,Left,Correct,0.0,0.0,-45,45,2008,2111,-2.55
"{'cat': 'RB', 'resp': 'reach'}",345678,21,Left,42.06455065590866,79.68301796480591,2.103227532795433,1.2516579192704889,Left,Correct,0.0,0.0,-45,45,2005,1818,-2.52
"{'cat': 'RB', 'resp': 'reach'}",345678,22,Left,46.089737641604756,34.4366368967544,2.304486882080238,0.5409294274459142,Left,Correct,0.0,0.0,-45,45,2007,1474,-2.47
"{'cat': 'RB', 'resp': 'reach'}",345678,23,Right,59.58341741481786,31.315693081903053,2.979170870740893,0.4919057566408967,Left,Incorrect,0.0,0.0,-45,45,2009,1317,-2.41
"{'cat': 'RB', 'resp': 'reach'}",345678,24,Right,60.102212138037,68.6631707551563,3.00511060690185,1.0785585640829027,Left,Incorrect,0.0,0.0,-45,45,2003,1095,-2.45
"{'cat': 'RB', 'resp': 'reach'}",345678,25,Right,59.96375534515646,80.37944456293155,2.998187767257823,1.262597362692669,Right,Correct,0.0,0.0,-45,45,2013,1138,-0.66
"{'cat': 'RB', 'resp': 'reach'}",345678,26,Left,41.16143024113296,81.58201302219545,2.058071512056648,1.2814872638779806,Right,Incorrect,0.0,0.0,-45,45,2008,1619,-0.67
"{'cat': 'RB', 'resp': 'reach'}",345678,27,Right,53.63067399781839,70.2052549496935,2.68153369989092,1.1027815659667777,Left,Incorrect,0.0,0.0,-45,45,2009,684,-2.48
"{'cat': 'RB', 'resp': 'reach'}",345678,28,Right,59.96437603075872,16.362022026414913,2.998218801537936,0.25701404098029734,Right,Correct,0.0,0.0,-45,45,2009,726,-0.69
"{'cat': 'RB', 'resp': 'reach'}",345678,29,Right,67.02770589135483,72.78005123236932,3.351385294567741,1.1432263713975013,Right,Correct,0.0,0.0,-45,45,2005,702,-0.62
"{'cat': 'RB', 'resp': 'reach'}",345678,30,Right,51.68904911874981,41.68064414809617,2.5844524559374906,0.6547180272627466,Right,Correct,0.0,0.0,-45,45,2007,773,-0.71
"{'cat': 'RB', 'resp': 'reach'}",345678,31,Right,63.89438342060603,56.173588199323696,3.1947191710303016,0.882372660063868,Right,Correct,0.0,0.0,-45,45,2008,583,-0.68
"{'cat': 'RB', 'resp': 'reach'}",345678,32,Right,59.64948320711945,50.78782225882147,2.982474160355973,0.7977732465006885,Right,Correct,0.0,0.0,-45,45,2007,995,-0.66
"{'cat': 'RB', 'resp': 'reach'}",345678,33,Right,58.0178370419745,73.67895639044224,2.9008918520987255,1.1573463406018805,Right,Correct,0.0,0.0,-45,45,2003,675,-0.66
"{'cat': 'RB', 'resp': 'reach'}",345678,34,Right,64.08203080229548,66.63198638768782,3.204101540114774,1.0466527946482758,Right,Correct,0.0,0.0,-45,45,2007,711,-0.72
"{'cat': 'RB', 'resp': 'reach'}",345678,35,Right,58.10775610226987,60.542288822800415,2.9053878051134934,0.9509960489861061,Right,Correct,0.0,0.0,-45,45,2001,740,-0.72
"{'cat': 'RB', 'resp': 'reach'}",345678,36,Left,46.33044023847076,45.24050536390004,2.316522011923538,0.7106361964795899,Right,Incorrect,0.0,0.0,-45,45,2012,982,-0.77
"{'cat': 'RB', 'resp': 'reach'}",345678,37,Left,34.47052082702359,62.08416076647269,1.7235260413511795,0.9752157168411913,Right,Incorrect,0.0,0.0,-45,45,2002,686,-0.69
"{'cat': 'RB', 'resp': 'reach'}",345678,38,Left,36.38878171897713,13.198011969678902,1.8194390859488565,0.20731388722966695,Left,Correct,0.0,0.0,-45,45,2012,654,-2.53
"{'cat': 'RB', 'resp': 'reach'}",345678,39,Left,38.107754476525606,66.01349117402452,1.9053877238262802,1.0369374945506504,Left,Correct,0.0,0.0,-45,45,2013,772,-2.53
"{'cat': 'RB', 'resp': 'reach'}",345678,40,Right,64.48120188895636,49.493005054062735,3.224060094447818,0.7774343054096298,Left,Incorrect,0.0,0.0,-45,45,2001,692,-2.57
"{'cat': 'RB', 'resp': 'reach'}",345678,41,Left,47.09461873000225,67.96455783976381,2.3547309365001126,1.0675847780694028,Right,Incorrect,0.0,0.0,-45,45,2004,712,-0.69
"{'cat': 'RB', 'resp': 'reach'}",345678,42,Right,59.39132975565685,58.07440722962415,2.9695664877828425,0.912230655570846,Left,Incorrect,0.0,0.0,-45,45,2009,726,-2.55
"{'cat': 'RB', 'resp': 'reach'}",345678,43,Left,33.118891209216784,25.53983300952058,1.6559445604608392,0.4011787587830998,Left,Correct,0.0,0.0,-45,45,2009,584,-2.59
"{'cat': 'RB', 'resp': 'reach'}",345678,44,Right,56.464727877954004,59.65494678071331,2.8232363938977003,0.9370577127828951,Right,Correct,0.0,0.0,-45,45,2005,618,-0.85
"{'cat': 'RB', 'resp': 'reach'}",345678,45,Right,68.4584198145217,58.18290058819294,3.422920990726085,0.913934865262061,Left,Incorrect,0.0,0.0,-45,45,2010,688,-2.54
"{'cat': 'RB', 'resp': 'reach'}",345678,46,Left,36.34569459472514,68.72935741629482,1.8172847297362569,1.0795982217248947,Right,Incorrect,0.0,0.0,-45,45,2007,665,-0.7
"{'cat': 'RB', 'resp': 'reach'}",345678,47,Left,45.2888027418252,33.533596871707175,2.26444013709126,0.5267445079029847,Right,Incorrect,0.0,0.0,-45,45,2008,616,-0.75
"{'cat': 'RB', 'resp': 'reach'}",345678,48,Right,63.29071958637259,42.24634302891718,3.164535979318629,0.6636040045034031,Left,Incorrect,0.0,0.0,-45,45,2006,674,-2.48
"{'cat': 'RB', 'resp': 'reach'}",345678,49,Left,41.76580166789596,85.328275780703,2.088290083394798,1.340333421680702,Left,Correct,0.0,0.0,-45,45,2010,667,-2.6
"{'cat': 'RB', 'resp': 'reach'}",345678,50,Left,46.80282067586174,78.14678730286371,2.340141033793087,1.227526864461604,Right,Incorrect,0.0,0.0,-45,45,2006,575,-0.79
"{'cat': 'RB', 'resp': 'reach'}",345678,51,Right,60.12309942151735,22.435815348511,3.0061549710758673,0.3524209633808964,Right,Correct,0.0,0.0,-45,45,2001,663,-0.81
"{'cat': 'RB', 'resp': 'reach'}",345678,52,Left,44.30108653309101,81.08075576045232,2.2150543266545504,1.2736135332227267,Right,Incorrect,0.0,0.0,-45,45,2005,598,-0.82
"{'cat': 'RB', 'resp': 'reach'}",345678,53,Left,47.67240621386941,32.73463465426461,2.3836203106934706,0.5141944387389178,Right,Incorrect,0.0,0.0,-45,45,2005,652,-0.71
"{'cat': 'RB', 'resp': 'reach'}",345678,54,Left,39.09212016389501,77.2637458981483,1.9546060081947505,1.213656082512256,Right,Incorrect,0.0,0.0,-45,45,2014,660,-0.72
"{'cat': 'RB', 'resp': 'reach'}",345678,55,Left,31.13046418310715,49.921617866960126,1.5565232091553576,0.7841669397307945,Right,Incorrect,0.0,0.0,-45,45,2003,693,-0.78
"{'cat': 'RB', 'resp': 'reach'}",345678,56,Left,34.64153606998659,34.051597635293845,1.7320768034993295,0.5348812448701736,Left,Correct,0.0,0.0,-45,45,2006,693,-2.6
"{'cat': 'RB', 'resp': 'reach'}",345678,57,Left,31.178495597668352,61.52945810559338,1.5589247798834176,0.9665024678194654,Left,Correct,0.0,0.0,-45,45,2007,646,-2.51
"{'cat': 'RB', 'resp': 'reach'}",345678,58,Right,67.13355077591225,63.52931093409525,3.3566775387956125,0.9979160825908767,Left,Incorrect,0.0,0.0,-45,45,2009,654,-2.66
"{'cat': 'RB', 'resp': 'reach'}",345678,59,Right,52.26735276606404,54.71925000250939,2.613367638303202,0.8595279690891338,Right,Correct,0.0,0.0,-45,45,2002,660,-0.78
"{'cat': 'RB', 'resp': 'reach'}",345678,60,Right,55.480296639105006,52.884384151092334,2.7740148319552502,0.830705963693461,Right,Correct,0.0,0.0,-45,45,2001,668,-0.73
"{'cat': 'RB', 'resp': 'reach'}",345678,61,Right,57.525857784040895,43.927307933349766,2.8762928892020447,0.6900085394769413,Right,Correct,0.0,0.0,-45,45,2005,619,-0.74
"{'cat': 'RB', 'resp': 'reach'}",345678,62,Left,41.75697566690545,41.96977807474519,2.0878487833452724,0.6592597323620674,Right,Incorrect,0.0,0.0,-45,45,2001,729,-0.83
"{'cat': 'RB', 'resp': 'reach'}",345678,63,Left,41.80420817945584,87.57294972859441,2.090210408972792,1.3755926776027023,Left,Correct,0.0,0.0,-45,45,2001,707,-2.56
"{'cat': 'RB', 'resp': 'reach'}",345678,64,Left,43.29098848910149,21.134525530007604,2.1645494244550743,0.33198035071088905,Left,Correct,0.0,0.0,-45,45,2006,930,-2.69
"{'cat': 'RB', 'resp': 'reach'}",345678,65,Right,68.40210093509874,45.51891338818562,3.420105046754937,0.71500941949857,Left,Incorrect,0.0,0.0,-45,45,2008,785,-2.53
"{'cat': 'RB', 'resp': 'reach'}",345678,66,Left,47.49615941595442,33.75633828056617,2.374807970797721,0.530243321771593,Left,Correct,0.0,0.0,-45,45,2001,729,-2.62
"{'cat': 'RB', 'resp': 'reach'}",345678,67,Right,52.55577003572405,61.76834473468716,2.6277885017862026,0.9702548902144748,Right,Correct,0.0,0.0,-45,45,2013,625,-0.73
"{'cat': 'RB', 'resp': 'reach'}",345678,68,Left,43.6172173257934,48.80115715377504,2.18086086628967,0.7665667840049031,Right,Incorrect,0.0,0.0,-45,45,2012,959,-0.73
"{'cat': 'RB', 'resp': 'reach'}",345678,69,Right,61.7315414429088,83.46445031404565,3.08657707214544,1.3110565197125807,Left,Incorrect,0.0,0.0,-45,45,2012,1032,-2.55
"{'cat': 'RB', 'resp': 'reach'}",345678,70,Right,59.87319749358872,48.374864598894014,2.9936598746794356,0.759870596211432,Left,Incorrect,0.0,0.0,-45,45,2005,548,-2.44
"{'cat': 'RB', 'resp': 'reach'}",345678,71,Left,46.55821692547,20.35352703332843,2.3279108462735,0.3197124550127292,Left,Correct,0.0,0.0,-45,45,2007,570,-2.5
"{'cat': 'RB', 'resp': 'reach'}",345678,72,Right,63.49661654900912,39.631101695956815,3.1748308274504558,0.6225238897084396,Left,Incorrect,0.0,0.0,-45,45,2002,666,-2.59
"{'cat': 'RB', 'resp': 'reach'}",345678,73,Right,56.57758964094525,42.98799756060942,2.8288794820472623,0.6752538866447325,Left,Incorrect,0.0,0.0,-45,45,2009,611,-2.52
"{'cat': 'RB', 'resp': 'reach'}",345678,74,Right,61.315909022162764,10.489722634177554,3.065795451108138,0.16477217782863385,Right,Correct,0.0,0.0,-45,45,2001,515,-0.74
"{'cat': 'RB', 'resp': 'reach'}",345678,75,Right,63.29295260591076,49.03129785735827,3.164647630295538,0.7701818257232484,Right,Correct,0.0,0.0,-45,45,2008,561,-0.7
"{'cat': 'RB', 'resp': 'reach'}",345678,76,Right,62.26051472917557,38.464135677144355,3.1130257364587783,0.6041932303499888,Right,Correct,0.0,0.0,-45,45,2002,856,-0.68
"{'cat': 'RB', 'resp': 'reach'}",345678,77,Left,44.712661513727106,51.20726578035385,2.2356330756863554,0.8043618499298982,Right,Incorrect,0.0,0.0,-45,45,2001,565,-0.64
"{'cat': 'RB', 'resp': 'reach'}",345678,78,Left,43.34368165293467,32.89513928538457,2.1671840826467332,0.5167156395888859,Right,Incorrect,0.0,0.0,-45,45,2002,581,-0.61
"{'cat': 'RB', 'resp': 'reach'}",345678,79,Right,54.6111892562474,80.2734814772903,2.7305594628123697,1.2609328984356578,Left,Incorrect,0.0,0.0,-45,45,2002,584,-2.6
"{'cat': 'RB', 'resp': 'reach'}",345678,80,Left,38.4807729068559,57.3835201411857,1.9240386453427947,0.9013782265633546,Right,Incorrect,0.0,0.0,-45,45,2005,1168,-0.65
"{'cat': 'RB', 'resp': 'reach'}",345678,81,Right,52.78237339309469,27.846972068058264,2.6391186696547346,0.43741921436866,Right,Correct,0.0,0.0,-45,45,2006,660,-0.7
"{'cat': 'RB', 'resp': 'reach'}",345678,82,Right,53.06651611738555,22.10501126832604,2.6533258058692777,0.34722470504046343,Right,Correct,0.0,0.0,-45,45,2001,652,-0.78
"{'cat': 'RB', 'resp': 'reach'}",345678,83,Left,41.859825097240574,65.04377944365196,2.0929912548620284,1.021705298309459,Right,Incorrect,0.0,0.0,-45,45,2005,801,-0.7
"{'cat': 'RB', 'resp': 'reach'}",345678,84,Right,51.614300938103845,33.65466637068539,2.5807150469051923,0.5286462631458034,Left,Incorrect,0.0,0.0,-45,45,2011,630,-2.55
"{'cat': 'RB', 'resp': 'reach'}",345678,85,Right,59.52931711610989,14.05765663966136,2.976465855805494,0.22081715412923952,Right,Correct,0.0,0.0,-45,45,2012,528,-0.81
"{'cat': 'RB', 'resp': 'reach'}",345678,86,Right,55.43011696715831,41.90153865910834,2.771505848357916,0.6581878301278175,Right,Correct,0.0,0.0,-45,45,2004,679,-0.77
"{'cat': 'RB', 'resp': 'reach'}",345678,87,Left,42.693029152098774,62.03695901804374,2.1346514576049387,0.9744742735106864,Left,Correct,0.0,0.0,-45,45,2009,595,-2.61
"{'cat': 'RB', 'resp': 'reach'}",345678,88,Right,69.28526016211248,53.455533180849905,3.464263008105624,0.8396775516734173,Right,Correct,0.0,0.0,-45,45,2003,591,-0.83
"{'cat': 'RB', 'resp': 'reach'}",345678,89,Right,59.50095033070175,53.19369303470001,2.975047516535087,0.8355645762756205,Right,Correct,0.0,0.0,-45,45,2004,552,-0.69
"{'cat': 'RB', 'resp': 'reach'}",345678,90,Left,38.94705011593584,63.94938480203378,1.947352505796792,1.0045145874782804,Right,Incorrect,0.0,0.0,-45,45,2005,604,-0.72
"{'cat': 'RB', 'resp': 'reach'}",345678,91,Left,40.88207985748723,87.9236430043663,2.044103992874361,1.3811013546968438,Left,Correct,0.0,0.0,-45,45,2005,690,-2.59
"{'cat': 'RB', 'resp': 'reach'}",345678,92,Left,39.61478560234449,60.37653746667971,1.9807392801172243,0.9483924327725493,Right,Incorrect,0.0,0.0,-45,45,2005,658,-0.79
"{'cat': 'RB', 'resp': 'reach'}",345678,93,Right,50.81880534685819,56.46509010746392,2.5409402673429096,0.8869515613294717,Left,Incorrect,0.0,0.0,-45,45,2014,668,-2.6
"{'cat': 'RB', 'resp': 'reach'}",345678,94,Right,51.84965104059472,48.365814478989385,2.592482552029736,0.7597284372603994,Right,Correct,0.0,0.0,-45,45,2003,678,-0.63
"{'cat': 'RB', 'resp': 'reach'}",345678,95,Left,35.27532824929864,21.149410868946262,1.763766412464932,0.3322141690681685,Left,Correct,0.0,0.0,-45,45,2001,716,-2.5
"{'cat': 'RB', 'resp': 'reach'}",345678,96,Right,60.57037799150562,55.30911202923006,3.028518899575281,0.86879350013802,Right,Correct,0.0,0.0,-45,45,2001,533,-0.77
"{'cat': 'RB', 'resp': 'reach'}",345678,97,Right,63.602829616564925,43.46462292022128,3.1801414808282464,0.6827407002860885,Right,Correct,0.0,0.0,-45,45,2003,538,-0.74
"{'cat': 'RB', 'resp': 'reach'}",345678,98,Left,43.96913068947625,12.913186926498007,2.1984565344738125,0.2028398659135895,Right,Incorrect,0.0,0.0,-45,45,2007,645,-0.67
"{'cat': 'RB', 'resp': 'reach'}",345678,99,Left,48.109572255209784,40.789459103396624,2.4054786127604895,0.6407193253156607,Right,Incorrect,0.0,0.0,-45,45,2009,502,-0.78
"{'cat': 'RB', 'resp': 'reach'}",345678,100,Right,68.04864984243984,28.704484578217567,3.402432492121992,0.45088898938004907,Left,Incorrect,0.0,0.0,-45,45,2009,718,-2.53
"{'cat': 'RB', 'resp': 'reach'}",345678,101,Right,59.03353648853182,17.235913264424035,2.951676824426591,0.2707410924471271,Right,Correct,0.0,0.0,-45,45,2012,501,-0.62
"{'cat': 'RB', 'resp': 'reach'}",345678,102,Right,54.16857578843712,47.20119271073571,2.7084287894218555,0.741434601303617,Right,Correct,0.0,0.0,-45,45,2004,522,-0.7
"{'cat': 'RB', 'resp': 'reach'}",345678,103,Right,63.32071828303676,23.231517054428362,3.166035914151838,0.3649198165496907,Left,Incorrect,0.0,0.0,-45,45,2003,1078,-2.51
"{'cat': 'RB', 'resp': 'reach'}",345678,104,Right,65.54637334747777,28.282544109280735,3.2773186673738883,0.44426116399272825,Right,Correct,0.0,0.0,-45,45,2004,689,-0.6
"{'cat': 'RB', 'resp': 'reach'}",345678,105,Left,41.48967985758366,75.20773220701892,2.074483992879183,1.1813602949735957,Right,Incorrect,0.0,0.0,-45,45,2008,640,-0.66
"{'cat': 'RB', 'resp': 'reach'}",345678,106,Right,51.69811311742477,67.48333649445004,2.5849056558712387,1.060025770853461,Right,Correct,0.0,0.0,-45,45,2002,638,-0.65
"{'cat': 'RB', 'resp': 'reach'}",345678,107,Left,37.68310196289118,64.5425716147243,1.884155098144559,1.0138323441430548,Right,Incorrect,0.0,0.0,-45,45,2006,1095,-0.64
"{'cat': 'RB', 'resp': 'reach'}",345678,108,Left,38.710984623351784,46.65900443013055,1.935549231167589,0.7329179277075587,Right,Incorrect,0.0,0.0,-45,45,2005,585,-0.65
"{'cat': 'RB', 'resp': 'reach'}",345678,109,Right,57.222405270550844,84.64838747840108,2.8611202635275426,1.3296537612018353,Right,Correct,0.0,0.0,-45,45,2007,712,-0.62
"{'cat': 'RB', 'resp': 'reach'}",345678,110,Right,68.2789990321854,58.630945751484596,3.41394995160927,0.9209727422294285,Right,Correct,0.0,0.0,-45,45,2001,542,-0.6
"{'cat': 'RB', 'resp': 'reach'}",345678,111,Left,38.81251330204832,36.78805326442763,1.9406256651024163,0.5778653893769793,Right,Incorrect,0.0,0.0,-45,45,2008,589,-0.73
"{'cat': 'RB', 'resp': 'reach'}",345678,112,Left,31.803519811019527,48.00161197541792,1.5901759905509762,0.7540075577122038,Left,Correct,0.0,0.0,-45,45,2007,636,-2.54
"{'cat': 'RB', 'resp': 'reach'}",345678,113,Right,64.10150831738159,40.98578489091614,3.205075415869079,0.6438032035745684,Right,Correct,0.0,0.0,-45,45,2009,566,-0.65
"{'cat': 'RB', 'resp': 'reach'}",345678,114,Left,30.896269179593784,44.26476795264792,1.5448134589796891,0.695309349064478,Right,Incorrect,0.0,0.0,-45,45,2008,717,-0.73
"{'cat': 'RB', 'resp': 'reach'}",345678,115,Right,51.189999349802505,46.13336802004345,2.5594999674901255,0.7246612502856139,Left,Incorrect,0.0,0.0,-45,45,2004,584,-2.57
"{'cat': 'RB', 'resp': 'reach'}",345678,116,Right,60.20136394236753,63.099145399417196,3.0100681971183763,0.9911590581730162,Left,Incorrect,0.0,0.0,-45,45,2008,642,-2.53
"{'cat': 'RB', 'resp': 'reach'}",345678,117,Left,33.59435252772582,57.39305332019099,1.679717626386291,0.9015279733889964,Right,Incorrect,0.0,0.0,-45,45,2013,430,-0.78
"{'cat': 'RB', 'resp': 'reach'}",345678,118,Left,34.00625402695648,30.108316397170203,1.700312701347824,0.472940328026535,Left,Correct,0.0,0.0,-45,45,2004,692,-2.55
"{'cat': 'RB', 'resp': 'reach'}",345678,119,Right,59.964442678004254,23.08158220621355,2.9982221339002124,0.36256464546134687,Left,Incorrect,0.0,0.0,-45,45,2003,582,-2.56
"{'cat': 'RB', 'resp': 'reach'}",345678,120,Right,56.025810172371905,82.29272535136568,2.801290508618595,1.2926511070386648,Right,Correct,0.0,0.0,-45,45,2002,618,-0.76
"{'cat': 'RB', 'resp': 'reach'}",345678,121,Right,66.03496452953553,59.458646932737366,3.3017482264767763,0.933974241981385,Left,Incorrect,0.0,0.0,-45,45,2003,564,-2.56
"{'cat': 'RB', 'resp': 'reach'}",345678,122,Left,34.32153391526146,45.47901018739874,1.716076695763073,0.7143826214863364,Right,Incorrect,0.0,0.0,-45,45,2002,624,-0.71
"{'cat': 'RB', 'resp': 'reach'}",345678,123,Right,59.28672746664478,59.82313595425833,2.9643363733322388,0.9396996221430071,Right,Correct,0.0,0.0,-45,45,2001,538,-0.7
"{'cat': 'RB', 'resp': 'reach'}",345678,124,Left,42.41302257511797,23.547484082462606,2.1206511287558985,0.3698830150199356,Left,Correct,0.0,0.0,-45,45,2004,596,-2.6
"{'cat': 'RB', 'resp': 'reach'}",345678,125,Right,60.71619724888442,63.576730361737184,3.035809862444221,0.9986609452184633,Right,Correct,0.0,0.0,-45,45,2002,528,-0.75
"{'cat': 'RB', 'resp': 'reach'}",345678,126,Left,48.94312564826724,62.699639318414405,2.447156282413362,0.9848836313273021,Right,Incorrect,0.0,0.0,-45,45,2009,591,-0.71
"{'cat': 'RB', 'resp': 'reach'}",345678,127,Left,46.78797793028326,29.970098982440373,2.339398896514163,0.47076921395296806,Right,Incorrect,0.0,0.0,-45,45,2007,1076,-0.72
"{'cat': 'RB', 'resp': 'reach'}",345678,128,Right,60.175422422722924,38.39816994919766,3.008771121136146,0.6031570431184586,Right,Correct,0.0,0.0,-45,45,2003,3310,-0.81
"{'cat': 'RB', 'resp': 'reach'}",345678,129,Right,55.462286732412956,51.92576303666337,2.7731143366206474,0.8156479784401302,Right,Correct,0.0,0.0,-45,45,2005,1120,-0.72
"{'cat': 'RB', 'resp': 'reach'}",345678,130,Right,55.21912758375377,55.45489152399927,2.760956379187688,0.8710833990870749,Right,Correct,0.0,0.0,-45,45,2001,1090,-0.77
"{'cat': 'RB', 'resp': 'reach'}",345678,131,Left,40.23023524567155,15.466680164986286,2.0115117622835776,0.24295004390871944,Right,Incorrect,0.0,0.0,-45,45,2012,1731,-0.79
"{'cat': 'RB', 'resp': 'reach'}",345678,132,Left,47.409057079456915,37.368175652941986,2.3704528539728456,0.5869779305466776,Right,Incorrect,0.0,0.0,-45,45,2005,1213,-0.77
"{'cat': 'RB', 'resp': 'reach'}",345678,133,Left,42.65739711895449,21.834245975735946,2.1328698559477246,0.34297153377022277,Right,Incorrect,0.0,0.0,-45,45,2008,1086,-0.8
"{'cat': 'RB', 'resp': 'reach'}",345678,134,Right,65.9943543768716,29.4401657454895,3.2997177188435796,0.4624450421324785,Right,Correct,0.0,0.0,-45,45,2002,1256,-0.76
"{'cat': 'RB', 'resp': 'reach'}",345678,135,Right,63.64055971547407,26.740937777210153,3.1820279857737033,0.42004566835492596,Right,Correct,0.0,0.0,-45,45,2001,1250,-0.81
"{'cat': 'RB', 'resp': 'reach'}",345678,136,Left,35.273704478986225,71.1247264393318,1.7636852239493113,1.1172245903519424,Left,Correct,0.0,0.0,-45,45,2012,1139,-2.65
"{'cat': 'RB', 'resp': 'reach'}",345678,137,Right,67.00209899271049,25.24812680102127,3.3501049496355244,0.39659664837496,Left,Incorrect,0.0,0.0,-45,45,2001,2492,-2.59
"{'cat': 'RB', 'resp': 'reach'}",345678,138,Left,48.07172047270129,58.01422721835552,2.4035860236350644,0.9112853501643735,Right,Incorrect,0.0,0.0,-45,45,2005,1187,-0.81
"{'cat': 'RB', 'resp': 'reach'}",345678,139,Left,47.60445463893827,36.2448098329876,2.3802227319469136,0.5693321415103647,Right,Incorrect,0.0,0.0,-45,45,2007,1860,-0.76
"{'cat': 'RB', 'resp': 'reach'}",345678,140,Left,46.98334975989979,69.9175139502666,2.3491674879949893,1.098261740917097,Right,Incorrect,0.0,0.0,-45,45,2001,1160,-0.84
"{'cat': 'RB', 'resp': 'reach'}",345678,141,Right,57.105503671937974,67.60699507371774,2.8552751835968984,1.0619681952743651,Left,Incorrect,0.0,0.0,-45,45,2004,964,-2.55
"{'cat': 'RB', 'resp': 'reach'}",345678,142,Right,55.71151167543669,86.68559888819124,2.7855755837718346,1.3616542031958656,Left,Incorrect,0.0,0.0,-45,45,2005,1444,-2.48
"{'cat': 'RB', 'resp': 'reach'}",345678,143,Left,35.099706353338,31.13577763834014,1.7549853176669001,0.4890796514620737,Right,Incorrect,0.0,0.0,-45,45,2007,927,-0.88
"{'cat': 'RB', 'resp': 'reach'}",345678,144,Right,63.28464285854499,62.761849218140036,3.1642321429272493,0.9858608221470951,Right,Correct,0.0,0.0,-45,45,2006,1746,-0.8
"{'cat': 'RB', 'resp': 'reach'}",345678,145,Left,37.97236329355195,29.4514918580263,1.8986181646775975,0.4626229522921752,Right,Incorrect,0.0,0.0,-45,45,2008,1205,-0.71
"{'cat': 'RB', 'resp': 'reach'}",345678,146,Right,62.791721782894484,59.14429808752766,3.139586089144724,0.9290364618675088,Left,Incorrect,0.0,0.0,-45,45,2003,1288,-2.7
"{'cat': 'RB', 'resp': 'reach'}",345678,147,Left,48.96419803199433,58.588310365552545,2.4482099015997165,0.9203030271532929,Right,Incorrect,0.0,0.0,-45,45,2007,2414,-0.76
"{'cat': 'RB', 'resp': 'reach'}",345678,148,Left,34.05231758783537,41.333198820021515,1.7026158793917685,0.6492603688117295,Right,Incorrect,0.0,0.0,-45,45,2006,877,-0.76
"{'cat': 'RB', 'resp': 'reach'}",345678,149,Left,45.51758232255511,51.08758841082244,2.2758791161277556,0.8024819622052942,Left,Correct,0.0,0.0,-45,45,2006,1081,-2.46
"{'cat': 'RB', 'resp': 'reach'}",345678,150,Left,42.57546034962851,22.107923039204703,2.1287730174814254,0.3472704430304701,Left,Correct,0.0,0.0,-45,45,2008,2669,-2.48
"{'cat': 'RB', 'resp': 'reach'}",345678,151,Right,57.730090019343294,28.356969258386588,2.8865045009671646,0.4454302315010945,Left,Incorrect,0.0,0.0,-45,45,2001,940,-2.52
"{'cat': 'RB', 'resp': 'reach'}",345678,152,Left,43.34982623106599,82.90639920024606,2.1674913115532997,1.3022906733153785,Right,Incorrect,0.0,0.0,-45,45,2012,1144,-0.76
"{'cat': 'RB', 'resp': 'reach'}",345678,153,Right,64.60705165042526,17.75798854733108,3.230352582521263,0.278941831814135,Left,Incorrect,0.0,0.0,-45,45,2010,1838,-2.5
"{'cat': 'RB', 'resp': 'reach'}",345678,154,Left,36.07646245905691,37.65305254219099,1.8038231229528459,0.5914527662588885,Right,Incorrect,0.0,0.0,-45,45,2008,903,-0.74
"{'cat': 'RB', 'resp': 'reach'}",345678,155,Left,41.625974373255474,36.39333323302688,2.0812987186627736,0.5716651416226126,Left,Correct,0.0,0.0,-45,45,2002,1399,-2.53
"{'cat': 'RB', 'resp': 'reach'}",345678,156,Right,59.92252902796251,11.14078339562041,2.996126451398126,0.17499901635458112,Left,Incorrect,0.0,0.0,-45,45,2005,940,-2.52
"{'cat': 'RB', 'resp': 'reach'}",345678,157,Left,35.25140356873435,29.581194530326314,1.7625701784367174,0.46466031710441863,Right,Incorrect,0.0,0.0,-45,45,2012,1362,-0.91
"{'cat': 'RB', 'resp': 'reach'}",345678,158,Left,42.90513208130847,23.47903511719605,2.1452566040654237,0.3688078211877994,Right,Incorrect,0.0,0.0,-45,45,2008,1083,-0.87
"{'cat': 'RB', 'resp': 'reach'}",345678,159,Left,38.61182751301885,53.170356855983805,1.9305913756509425,0.8351980124375321,Left,Correct,0.0,0.0,-45,45,2005,779,-2.45
"{'cat': 'RB', 'resp': 'reach'}",345678,160,Left,39.91844263883625,86.92675653304627,1.9959221319418123,1.3654422986230337,Left,Correct,0.0,0.0,-45,45,2011,613,-2.45
"{'cat': 'RB', 'resp': 'reach'}",345678,161,Left,33.73524189047523,31.720763782348474,1.6867620945237616,0.4982685923244157,Left,Correct,0.0,0.0,-45,45,2006,670,-2.34
"{'cat': 'RB', 'resp': 'reach'}",345678,162,Right,65.59125895687177,71.56369224527482,3.279562947843589,1.1241198491075812,Left,Incorrect,0.0,0.0,-45,45,2012,689,-2.49
"{'cat': 'RB', 'resp': 'reach'}",345678,163,Right,64.30827094699359,52.04341922297023,3.2154135473496797,0.8174961174928855,Right,Correct,0.0,0.0,-45,45,2006,640,-0.75
"{'cat': 'RB', 'resp': 'reach'}",345678,164,Left,46.54442909831117,47.766060662480456,2.3272214549155588,0.750307526340865,Right,Incorrect,0.0,0.0,-45,45,2005,659,-0.75
"{'cat': 'RB', 'resp': 'reach'}",345678,165,Right,63.41459715260322,85.3825250902654,3.1707298576301612,1.34118556784262,Left,Incorrect,0.0,0.0,-45,45,2001,1207,-2.46
"{'cat': 'RB', 'resp': 'reach'}",345678,166,Right,59.259132632608384,61.36283772044296,2.9629566316304192,0.9638852009298314,Right,Correct,0.0,0.0,-45,45,2001,596,-0.67
"{'cat': 'RB', 'resp': 'reach'}",345678,167,Left,38.98630502626905,14.503858110834898,1.9493152513134526,0.22782607044853825,Right,Incorrect,0.0,0.0,-45,45,2008,1237,-0.66
"{'cat': 'RB', 'resp': 'reach'}",345678,168,Right,65.41916101358679,82.97713968590486,3.2709580506793396,1.303401862265664,Left,Incorrect,0.0,0.0,-45,45,2009,793,-2.48
"{'cat': 'RB', 'resp': 'reach'}",345678,169,Right,60.20293832127114,85.41620301041321,3.010146916063557,1.3417145793752427,Right,Correct,0.0,0.0,-45,45,2008,1542,-0.85
"{'cat': 'RB', 'resp': 'reach'}",345678,170,Left,45.569843704722665,17.65387652599133,2.2784921852361335,0.2773064440071783,Right,Incorrect,0.0,0.0,-45,45,2012,1390,-0.73
"{'cat': 'RB', 'resp': 'reach'}",345678,171,Right,60.106834236062596,39.46601537115607,3.00534171180313,0.6199307197824288,Left,Incorrect,0.0,0.0,-45,45,2003,815,-2.62
"{'cat': 'RB', 'resp': 'reach'}",345678,172,Left,47.10754968352553,69.9246327431778,2.3553774841762762,1.0983735626546585,Right,Incorrect,0.0,0.0,-45,45,2002,722,-0.73
"{'cat': 'RB', 'resp': 'reach'}",345678,173,Left,36.37861361415185,39.43864887092889,1.8189306807075925,0.6195008478020878,Left,Correct,0.0,0.0,-45,45,2004,899,-2.73
"{'cat': 'RB', 'resp': 'reach'}",345678,174,Right,64.99807154183769,48.85228128741179,3.2499035770918847,0.7673698400181751,Left,Incorrect,0.0,0.0,-45,45,2002,765,-2.7
"{'cat': 'RB', 'resp': 'reach'}",345678,175,Right,59.72604183100128,28.999406153236414,2.986302091550064,0.45552160664737085,Left,Incorrect,0.0,0.0,-45,45,2008,739,-2.62
"{'cat': 'RB', 'resp': 'reach'}",345678,176,Left,36.714764751369465,64.38659500824954,1.8357382375684734,1.01138226933789,Right,Incorrect,0.0,0.0,-45,45,2001,920,-0.71
"{'cat': 'RB', 'resp': 'reach'}",345678,177,Right,63.50105885395184,23.37023353706131,3.175052942697592,0.36709876996354807,Left,Incorrect,0.0,0.0,-45,45,2010,1433,-2.57
"{'cat': 'RB', 'resp': 'reach'}",345678,178,Left,32.261496581837534,27.257904131418005,1.6130748290918768,0.4281661568575884,Right,Incorrect,0.0,0.0,-45,45,2001,834,-0.77
"{'cat': 'RB', 'resp': 'reach'}",345678,179,Right,65.79816089922983,41.61323522371206,3.2899080449614915,0.6536591703545891,Left,Incorrect,0.0,0.0,-45,45,2005,746,-2.41
"{'cat': 'RB', 'resp': 'reach'}",345678,180,Right,64.21831952574017,48.568915917354516,3.2109159762870085,0.7629187471939066,Left,Incorrect,0.0,0.0,-45,45,2012,16067,-2.68
"{'cat': 'RB', 'resp': 'reach'}",345678,181,Left,41.56688619839261,37.846908509019215,2.0783443099196304,0.5944978486650989,Right,Incorrect,0.0,0.0,-45,45,2002,705,-0.8
"{'cat': 'RB', 'resp': 'reach'}",345678,182,Right,56.30461946422827,22.606914115860018,2.8152309732114134,0.3551085765336061,Left,Incorrect,0.0,0.0,-45,45,2003,9265,-2.59
"{'cat': 'RB', 'resp': 'reach'}",345678,183,Right,61.45641492330842,70.05760915823825,3.072820746165421,1.1004623512979315,Left,Incorrect,0.0,0.0,-45,45,2010,1166,-2.57
"{'cat': 'RB', 'resp': 'reach'}",345678,184,Right,69.19942093366703,45.156547323147386,3.4599710466833518,0.7093173866593983,Right,Correct,0.0,0.0,-45,45,2007,784,-0.75
"{'cat': 'RB', 'resp': 'reach'}",345678,185,Left,48.66208569245026,46.36650574695881,2.4331042846225133,0.7283233691363735,Right,Incorrect,0.0,0.0,-45,45,2004,626,-0.72
"{'cat': 'RB', 'resp': 'reach'}",345678,186,Left,42.38224650025034,51.29044401399643,2.1191123250125172,0.8056684105686489,Right,Incorrect,0.0,0.0,-45,45,2009,656,-0.68
"{'cat': 'RB', 'resp': 'reach'}",345678,187,Right,58.21098529907874,57.45498992036222,2.910549264953937,0.902500871229428,Left,Incorrect,0.0,0.0,-45,45,2006,720,-2.51
"{'cat': 'RB', 'resp': 'reach'}",345678,188,Right,59.76134977244164,52.69858967552165,2.9880674886220824,0.8277875108958088,Left,Incorrect,0.0,0.0,-45,45,2014,1283,-2.6
"{'cat': 'RB', 'resp': 'reach'}",345678,189,Left,30.967802598179766,43.08913706434676,1.5483901299089882,0.6768425822543773,Left,Correct,0.0,0.0,-45,45,2004,623,-2.48
"{'cat': 'RB', 'resp': 'reach'}",345678,190,Right,55.58715987980416,68.37653881879683,2.7793579939902084,1.0740561601551473,Right,Correct,0.0,0.0,-45,45,2009,1257,-0.61
"{'cat': 'RB', 'resp': 'reach'}",345678,191,Right,55.570952547075876,17.928414937780772,2.778547627353794,0.2816188832952079,Right,Correct,0.0,0.0,-45,45,2009,1061,-0.66
"{'cat': 'RB', 'resp': 'reach'}",345678,192,Right,57.30329035684249,60.31101797787248,2.8651645178421243,0.9473632550490306,Left,Incorrect,0.0,0.0,-45,45,2003,7963,-2.62
"{'cat': 'RB', 'resp': 'reach'}",345678,193,Right,54.332402548676306,47.73194462903518,2.7166201274338153,0.7497716329406586,Left,Incorrect,0.0,0.0,-45,45,2002,2215,-2.46
"{'cat': 'RB', 'resp': 'reach'}",345678,194,Right,54.427991844345826,66.94498282952381,2.721399592217291,1.0515693312596341,Right,Correct,0.0,0.0,-45,45,2008,966,-0.74
"{'cat': 'RB', 'resp': 'reach'}",345678,195,Right,66.47436294179975,36.639267701293484,3.3237181470899877,0.5755282712164671,Right,Correct,0.0,0.0,-45,45,2008,1130,-0.77
"{'cat': 'RB', 'resp': 'reach'}",345678,196,Left,37.510578788948436,10.75591389965524,1.8755289394474217,0.16895350044900623,Right,Incorrect,0.0,0.0,-45,45,2007,2363,-0.69
"{'cat': 'RB', 'resp': 'reach'}",345678,197,Left,45.136387984525776,46.365702947536846,2.256819399226289,0.7283107587925419,Right,Incorrect,0.0,0.0,-45,45,2012,1374,-0.77
"{'cat': 'RB', 'resp': 'reach'}",345678,198,Right,64.16095601355634,55.561834576554496,3.2080478006778175,0.8727632566283748,Left,Incorrect,0.0,0.0,-45,45,2008,942,-2.54
"{'cat': 'RB', 'resp': 'reach'}",345678,199,Right,68.39504515683527,51.69556083427935,3.4197522578417634,0.8120319707008812,Right,Correct,0.0,0.0,-45,45,2009,1057,-0.74
"{'cat': 'RB', 'resp': 'reach'}",345678,200,Left,32.03834813132424,56.06895151854312,1.6019174065662123,0.8807290309256868,Right,Incorrect,0.0,0.0,-45,45,2005,661,-0.71
"{'cat': 'RB', 'resp': 'reach'}",345678,201,Left,43.99617311183493,47.037358578069814,2.1998086555917467,0.7388611007656648,Right,Incorrect,0.0,0.0,-45,45,2009,533,-0.71
"{'cat': 'RB', 'resp': 'reach'}",345678,202,Left,33.52870322241523,49.533230457407974,1.6764351611207615,0.7780661645678153,Left,Correct,0.0,0.0,-45,45,2009,615,-2.51
"{'cat': 'RB', 'resp': 'reach'}",345678,203,Left,40.614438757683466,58.519642594634696,2.030721937884173,0.9192243963300236,Left,Correct,0.0,0.0,-45,45,2005,625,-2.57
"{'cat': 'RB', 'resp': 'reach'}",345678,204,Right,62.64805792628088,11.198234595435423,3.132402896314044,0.17590145769097498,Left,Incorrect,0.0,0.0,-45,45,2001,718,-2.49
"{'cat': 'RB', 'resp': 'reach'}",345678,205,Left,35.929701725566176,50.63100090900027,1.7964850862783088,0.7953099024980669,Right,Incorrect,0.0,0.0,-45,45,2006,736,-0.72
"{'cat': 'RB', 'resp': 'reach'}",345678,206,Left,41.70073782714234,22.02199406727543,2.085036891357117,0.3459206738957525,Left,Correct,0.0,0.0,-45,45,2013,633,-2.62
"{'cat': 'RB', 'resp': 'reach'}",345678,207,Right,61.40713843637788,84.3309421697322,3.0703569218188935,1.3246673419536819,Left,Incorrect,0.0,0.0,-45,45,2001,742,-2.58
"{'cat': 'RB', 'resp': 'reach'}",345678,208,Right,57.70777330371476,33.02855824925069,2.885388665185738,0.5188113797725427,Left,Incorrect,0.0,0.0,-45,45,2003,740,-2.62
"{'cat': 'RB', 'resp': 'reach'}",345678,209,Left,31.58826909497859,61.021539232553245,1.5794134547489296,0.9585240968186531,Right,Incorrect,0.0,0.0,-45,45,2006,671,-0.69
"{'cat': 'RB', 'resp': 'reach'}",345678,210,Left,40.60242722188777,38.8252867767582,2.030121361094389,0.6098661785569025,Right,Incorrect,0.0,0.0,-45,45,2003,614,-0.71
"{'cat': 'RB', 'resp': 'reach'}",345678,211,Left,41.1753134069211,12.52147315218312,2.058765670346055,0.19668684033510161,Right,Incorrect,0.0,0.0,-45,45,2012,626,-0.68
"{'cat': 'RB', 'resp': 'reach'}",345678,212,Left,35.372152311466294,79.22005993485791,1.7686076155733148,1.2443857915414638,Left,Correct,0.0,0.0,-45,45,2008,646,-2.45
"{'cat': 'RB', 'resp': 'reach'}",345678,213,Right,62.78659939018226,11.367929813331834,3.1393299695091126,0.17856702394043839,Left,Incorrect,0.0,0.0,-45,45,2008,634,-2.59
"{'cat': 'RB', 'resp': 'reach'}",345678,214,Left,41.37473252892362,58.534438791992514,2.068736626446181,0.9194568144546256,Left,Correct,0.0,0.0,-45,45,2008,926,-2.38
"{'cat': 'RB', 'resp': 'reach'}",345678,215,Right,51.293033744357245,36.679529353752265,2.564651687217862,0.5761606997743964,Left,Incorrect,0.0,0.0,-45,45,2001,676,-2.51
"{'cat': 'RB', 'resp': 'reach'}",345678,216,Left,39.60281059243435,11.218821670852321,1.9801405296217178,0.1762248387154181,Right,Incorrect,0.0,0.0,-45,45,2001,560,-0.76
"{'cat': 'RB', 'resp': 'reach'}",345678,217,Left,37.49950098109328,18.72770794364227,1.8749750490546637,0.2941741484716088,Right,Incorrect,0.0,0.0,-45,45,2005,560,-0.81
"{'cat': 'RB', 'resp': 'reach'}",345678,218,Left,44.897160154954435,79.73395740344716,2.244858007747722,1.2524580741015556,Right,Incorrect,0.0,0.0,-45,45,2005,478,-0.71
"{'cat': 'RB', 'resp': 'reach'}",345678,219,Left,32.80686862361437,49.250641582694904,1.6403434311807186,0.7736272689038914,Left,Correct,0.0,0.0,-45,45,2013,579,-2.46
"{'cat': 'RB', 'resp': 'reach'}",345678,220,Left,36.98271831302763,26.516010669044725,1.8491359156513818,0.41651252160189745,Left,Correct,0.0,0.0,-45,45,2003,602,-2.55
"{'cat': 'RB', 'resp': 'reach'}",345678,221,Right,53.801725311256554,39.16977875603555,2.6900862655628277,0.6152774459134941,Left,Incorrect,0.0,0.0,-45,45,2010,701,-2.49
"{'cat': 'RB', 'resp': 'reach'}",345678,222,Left,45.114424075979706,51.29542262300833,2.2557212037989856,0.8057466143761332,Right,Incorrect,0.0,0.0,-45,45,2001,572,-0.71
"{'cat': 'RB', 'resp': 'reach'}",345678,223,Left,40.439761095266554,26.997720689625663,2.021988054763328,0.4240792049109857,Left,Correct,0.0,0.0,-45,45,2007,1191,-2.46
"{'cat': 'RB', 'resp': 'reach'}",345678,224,Right,62.1392004044381,16.86887271643625,3.106960020221905,0.26497563300148713,Left,Incorrect,0.0,0.0,-45,45,2010,573,-2.38
"{'cat': 'RB', 'resp': 'reach'}",345678,225,Left,41.55778115462484,65.63346607062296,2.0778890577312423,1.03096807418552,Left,Correct,0.0,0.0,-45,45,2005,636,-2.49
"{'cat': 'RB', 'resp': 'reach'}",345678,226,Left,46.16309051302354,56.15923404077647,2.3081545256511773,0.882147185468666,Right,Incorrect,0.0,0.0,-45,45,2005,563,-0.75
"{'cat': 'RB', 'resp': 'reach'}",345678,227,Left,46.59208290013736,69.44144226758915,2.329604145006868,1.0907836244126892,Left,Correct,0.0,0.0,-45,45,2008,651,-2.45
"{'cat': 'RB', 'resp': 'reach'}",345678,228,Right,67.45143720420698,75.50254464586978,3.372571860210349,1.1859911979339992,Left,Incorrect,0.0,0.0,-45,45,2009,592,-2.5
"{'cat': 'RB', 'resp': 'reach'}",345678,229,Right,55.11087384109384,74.40448665508973,2.755543692054692,1.1687429433487486,Right,Correct,0.0,0.0,-45,45,2006,668,-0.66
"{'cat': 'RB', 'resp': 'reach'}",345678,230,Right,63.894248420903246,73.58925705052076,3.1947124210451623,1.1559373466652345,Right,Correct,0.0,0.0,-45,45,2001,648,-0.75
"{'cat': 'RB', 'resp': 'reach'}",345678,231,Left,37.445196021920744,11.103746142248966,1.8722598010960372,0.1744172365390768,Left,Correct,0.0,0.0,-45,45,2002,1061,-2.7
"{'cat': 'RB', 'resp': 'reach'}",345678,232,Left,46.339333765145064,24.30039513124204,2.3169666882572533,0.38170971411819593,Right,Incorrect,0.0,0.0,-45,45,2009,1349,-0.76
"{'cat': 'RB', 'resp': 'reach'}",345678,233,Left,32.61717248400626,27.641593704921625,1.6308586242003131,0.4341931385844782,Right,Incorrect,0.0,0.0,-45,45,2002,2354,-0.69
"{'cat': 'RB', 'resp': 'reach'}",345678,234,Left,41.025235107370094,45.806988005643674,2.051261755368505,0.7195344850080297,Left,Correct,0.0,0.0,-45,45,2002,2479,-2.56
"{'cat': 'RB', 'resp': 'reach'}",345678,235,Right,61.05725309178207,70.342741254703,3.0528626545891036,1.1049411957957131,Right,Correct,0.0,0.0,-45,45,2001,790,-0.76
"{'cat': 'RB', 'resp': 'reach'}",345678,236,Left,47.92190252296413,60.16394153060602,2.3960951261482064,0.9450529836177887,Left,Correct,0.0,0.0,-45,45,2010,4717,-2.5
"{'cat': 'RB', 'resp': 'reach'}",345678,237,Left,43.32981433846654,18.784193004822733,2.166490716923327,0.29506141373781936,Left,Correct,0.0,0.0,-45,45,2003,2692,-2.54
"{'cat': 'RB', 'resp': 'reach'}",345678,238,Right,68.2761662217357,46.60144452210149,3.413808311086785,0.7320137787865317,Right,Correct,0.0,0.0,-45,45,2001,4751,-0.71
"{'cat': 'RB', 'resp': 'reach'}",345678,239,Right,52.46693363706986,47.84576540321785,2.623346681853493,0.7515595254806493,Left,Incorrect,0.0,0.0,-45,45,2008,3713,-2.57
"{'cat': 'RB', 'resp': 'reach'}",345678,240,Right,53.5445555418914,57.696676871212034,2.67722777709457,0.9062972809757193,Left,Incorrect,0.0,0.0,-45,45,2007,1922,-2.58
"{'cat': 'RB', 'resp': 'reach'}",345678,241,Left,31.616353006820038,34.394409507777645,1.5808176503410019,0.540266121170966,Left,Correct,0.0,0.0,-45,45,2009,898,-2.6
"{'cat': 'RB', 'resp': 'reach'}",345678,242,Right,62.29132793920325,15.284169370840672,3.1145663969601625,0.24008317105827592,Right,Correct,0.0,0.0,-45,45,2006,1153,-0.75
"{'cat': 'RB', 'resp': 'reach'}",345678,243,Left,34.92988158343698,42.837332286992435,1.746494079171849,0.6728872420610015,Left,Correct,0.0,0.0,-45,45,2009,1227,-2.5
"{'cat': 'RB', 'resp': 'reach'}",345678,244,Right,51.246992415726986,38.88496122919361,2.562349620786349,0.6108035426637928,Right,Correct,0.0,0.0,-45,45,2009,2100,-0.71
"{'cat': 'RB', 'resp': 'reach'}",345678,245,Right,57.64223169538986,69.15336996935002,2.8821115847694934,1.0862585953334352,Right,Correct,0.0,0.0,-45,45,2008,2372,-0.77
"{'cat': 'RB', 'resp': 'reach'}",345678,246,Left,33.79857100019752,60.59805725551064,1.689928550009876,0.9518720574786296,Left,Correct,0.0,0.0,-45,45,2005,1461,-2.59
"{'cat': 'RB', 'resp': 'reach'}",345678,247,Left,44.09274617064865,76.9998771479814,2.2046373085324324,1.2095112418770748,Right,Incorrect,0.0,0.0,-45,45,2013,2475,-0.73
"{'cat': 'RB', 'resp': 'reach'}",345678,248,Right,65.40994719825395,57.78796644903337,3.270497359912697,0.9077312543108833,Right,Correct,0.0,0.0,-45,45,2001,1799,-0.84
"{'cat': 'RB', 'resp': 'reach'}",345678,249,Right,61.18725784258285,77.0566788789904,3.0593628921291427,1.21040348138132,Right,Correct,0.0,0.0,-45,45,2008,1709,-0.76
"{'cat': 'RB', 'resp': 'reach'}",345678,250,Left,33.767446714160414,21.34373954205073,1.688372335708021,0.33526667672720273,Left,Correct,0.0,0.0,-45,45,2001,1145,-2.44
"{'cat': 'RB', 'resp': 'reach'}",345678,251,Left,35.20501670876426,15.590224348038426,1.7602508354382131,0.24489067139807122,Left,Correct,0.0,0.0,-45,45,2004,1062,-2.48
"{'cat': 'RB', 'resp': 'reach'}",345678,252,Left,46.3961249761018,61.39688600999629,2.31980624880509,0.9644200302114715,Right,Incorrect,0.0,0.0,-45,45,2003,1314,-0.7
"{'cat': 'RB', 'resp': 'reach'}",345678,253,Left,44.99756254161187,43.958845666235675,2.2498781270805934,0.6905039330266677,Left,Correct,0.0,0.0,-45,45,2007,3174,-2.53
"{'cat': 'RB', 'resp': 'reach'}",345678,254,Left,38.190644585516,43.36108507542173,1.9095322292758,0.6811143316231346,Left,Correct,0.0,0.0,-45,45,2001,1445,-2.38
"{'cat': 'RB', 'resp': 'reach'}",345678,255,Left,38.74081054300388,40.195927145616984,1.937040527150194,0.6313961471245042,Left,Correct,0.0,0.0,-45,45,2001,1046,-2.52
"{'cat': 'RB', 'resp': 'reach'}",345678,256,Right,59.98267161003682,49.824801281608764,2.9991335805018413,0.782646148364367,Right,Correct,0.0,0.0,-45,45,2008,1831,-0.71
"{'cat': 'RB', 'resp': 'reach'}",345678,257,Right,57.41467859735243,76.02276088315577,2.8707339298676215,1.1941627354806783,Right,Correct,0.0,0.0,-45,45,2004,3061,-0.71
"{'cat': 'RB', 'resp': 'reach'}",345678,258,Left,38.44730139279873,54.319791431491005,1.9223650696399364,0.8532532885285096,Left,Correct,0.0,0.0,-45,45,2006,1328,-2.47
"{'cat': 'RB', 'resp': 'reach'}",345678,259,Right,60.61147966300078,73.85291036711993,3.0305739831500387,1.1600788032778473,Right,Correct,0.0,0.0,-45,45,2009,1486,-0.76
"{'cat': 'RB', 'resp': 'reach'}",345678,260,Left,38.65954672707213,44.63458388197778,1.9329773363536065,0.701118404098294,Left,Correct,0.0,0.0,-45,45,2006,1637,-2.38
"{'cat': 'RB', 'resp': 'reach'}",345678,261,Right,64.63705869432876,80.6217151552828,3.2318529347164375,1.2664029402582266,Right,Correct,0.0,0.0,-45,45,2006,1407,-0.8
"{'cat': 'RB', 'resp': 'reach'}",345678,262,Right,53.51232986665098,55.57254899848978,2.675616493332549,0.8729315583745715,Right,Correct,0.0,0.0,-45,45,2004,3268,-0.72
"{'cat': 'RB', 'resp': 'reach'}",345678,263,Left,34.24815836160791,66.7815742468236,1.7124079180803957,1.0490025152449116,Left,Correct,0.0,0.0,-45,45,2003,1844,-2.49
"{'cat': 'RB', 'resp': 'reach'}",345678,264,Left,34.93765764048486,16.98587292502932,1.746882882024243,0.2668134679804094,Left,Correct,0.0,0.0,-45,45,2006,1256,-2.5
"{'cat': 'RB', 'resp': 'reach'}",345678,265,Left,38.91106149280799,62.18298109524296,1.9455530746403995,0.9767679829356414,Left,Correct,0.0,0.0,-45,45,2009,1084,-2.45
"{'cat': 'RB', 'resp': 'reach'}",345678,266,Left,38.473352320804594,22.27505254768951,1.9236676160402297,0.34989570721073987,Left,Correct,0.0,0.0,-45,45,2001,1999,-2.61
"{'cat': 'RB', 'resp': 'reach'}",345678,267,Right,58.556404318773545,70.59119549151572,2.9278202159386773,1.1088439058213335,Right,Correct,0.0,0.0,-45,45,2005,2237,-0.75
"{'cat': 'RB', 'resp': 'reach'}",345678,268,Right,53.41390243319985,44.01409091640324,2.6706951216599926,0.6913717233870282,Right,Correct,0.0,0.0,-45,45,2008,1653,-0.74
"{'cat': 'RB', 'resp': 'reach'}",345678,269,Right,66.40084559795771,76.21849594186901,3.3200422798978853,1.1972373345931957,Right,Correct,0.0,0.0,-45,45,2008,782,-0.77
"{'cat': 'RB', 'resp': 'reach'}",345678,270,Left,49.03480843059926,54.1287030292053,2.4517404215299634,0.8502516789244748,Right,Incorrect,0.0,0.0,-45,45,2009,2425,-0.78
"{'cat': 'RB', 'resp': 'reach'}",345678,271,Right,56.1624621429802,87.03699762039878,2.80812310714901,1.3671739615737857,Left,Incorrect,0.0,0.0,-45,45,2003,3325,-2.37
"{'cat': 'RB', 'resp': 'reach'}",345678,272,Right,58.58974952028603,75.47396611271441,2.9294874760143013,1.185542287384943,Right,Correct,0.0,0.0,-45,45,2007,1616,-0.72
"{'cat': 'RB', 'resp': 'reach'}",345678,273,Left,36.18119974951172,39.94555057024465,1.8090599874755862,0.6274632410754009,Left,Correct,0.0,0.0,-45,45,2008,1566,-2.52
"{'cat': 'RB', 'resp': 'reach'}",345678,274,Left,43.8924585021222,32.40361021527245,2.1946229251061102,0.5089947190104355,Left,Correct,0.0,0.0,-45,45,2009,2281,-2.52
"{'cat': 'RB', 'resp': 'reach'}",345678,275,Left,36.93006568825496,49.22996859162282,1.846503284412748,0.7733025383194926,Left,Correct,0.0,0.0,-45,45,2008,1423,-2.5
"{'cat': 'RB', 'resp': 'reach'}",345678,276,Right,60.32449511493984,74.60109118694695,3.016224755746992,1.171831200113474,Right,Correct,0.0,0.0,-45,45,2005,1708,-0.72
"{'cat': 'RB', 'resp': 'reach'}",345678,277,Left,36.74048980874926,53.077286921291204,1.837024490437463,0.8337360733220304,Left,Correct,0.0,0.0,-45,45,2001,1393,-2.52
"{'cat': 'RB', 'resp': 'reach'}",345678,278,Right,60.800846596493145,65.20863785705414,3.0400423298246575,1.0242948882115928,Right,Correct,0.0,0.0,-45,45,2012,1024,-0.86
"{'cat': 'RB', 'resp': 'reach'}",345678,279,Right,64.57969061973716,81.00573323896828,3.228984530986858,1.2724350822109862,Right,Correct,0.0,0.0,-45,45,2002,3419,-0.76
"{'cat': 'RB', 'resp': 'reach'}",345678,280,Left,48.326324572284044,60.66633747070081,2.4163162286142024,0.9529446005907642,Left,Correct,0.0,0.0,-45,45,2007,2368,-2.48
"{'cat': 'RB', 'resp': 'reach'}",345678,281,Right,66.26406072046441,36.48752274072279,3.3132030360232205,0.5731446669497261,Right,Correct,0.0,0.0,-45,45,2007,1798,-0.74
"{'cat': 'RB', 'resp': 'reach'}",345678,282,Left,33.92337817790779,70.32135838661385,1.6961689088953897,1.1046053144892054,Left,Correct,0.0,0.0,-45,45,2009,1324,-2.5
"{'cat': 'RB', 'resp': 'reach'}",345678,283,Right,68.32162406584705,46.72750100594816,3.4160812032923524,0.7339938694044821,Right,Correct,0.0,0.0,-45,45,2007,925,-0.89
"{'cat': 'RB', 'resp': 'reach'}",345678,284,Right,67.37239636846131,36.316683756911644,3.368619818423065,0.570461134467287,Right,Correct,0.0,0.0,-45,45,2002,3648,-0.83
"{'cat': 'RB', 'resp': 'reach'}",345678,285,Right,60.83711681186204,73.9883564515728,3.041855840593102,1.1622063853972204,Right,Correct,0.0,0.0,-45,45,2005,5029,-0.81
"{'cat': 'RB', 'resp': 'reach'}",345678,286,Left,39.71560900567858,66.82685673487676,1.985780450283929,1.0497138109039321,Left,Correct,0.0,0.0,-45,45,2006,1006,-2.36
"{'cat': 'RB', 'resp': 'reach'}",345678,287,Left,45.35075245670191,63.078606651221435,2.2675376228350954,0.9908364362707877,Left,Correct,0.0,0.0,-45,45,2008,1542,-2.42
"{'cat': 'RB', 'resp': 'reach'}",345678,288,Right,56.456341969195776,68.69954757158854,2.8228170984597885,1.0791299697792254,Left,Incorrect,0.0,0.0,-45,45,2008,3094,-2.45
"{'cat': 'RB', 'resp': 'reach'}",345678,289,Left,39.256059976180524,71.59035901937867,1.962802998809026,1.124538729815679,Left,Correct,0.0,0.0,-45,45,2007,936,-2.44
"{'cat': 'RB', 'resp': 'reach'}",345678,290,Right,54.41108994049236,58.5747413872072,2.7205544970246183,0.9200898861398608,Right,Correct,0.0,0.0,-45,45,2004,1543,-0.71
"{'cat': 'RB', 'resp': 'reach'}",345678,291,Left,41.75182455836636,10.16555824667362,2.087591227918318,0.1596802155369449,Left,Correct,0.0,0.0,-45,45,2004,1155,-2.48
"{'cat': 'RB', 'resp': 'reach'}",345678,292,Left,38.39520210582627,86.98592429533576,1.9197601052913138,1.3663717036597236,Left,Correct,0.0,0.0,-45,45,2008,1049,-2.56
"{'cat': 'RB', 'resp': 'reach'}",345678,293,Left,46.84564256875945,76.64277432034535,2.3422821284379727,1.203901883777687,Right,Incorrect,0.0,0.0,-45,45,2001,2432,-0.69
"{'cat': 'RB', 'resp': 'reach'}",345678,294,Left,34.25398250999203,53.947721665437264,1.7126991254996013,0.8474088303102232,Left,Correct,0.0,0.0,-45,45,2013,1188,-2.5
"{'cat': 'RB', 'resp': 'reach'}",345678,295,Left,40.17849639008339,71.63312549015217,2.0089248195041693,1.125210503967689,Left,Correct,0.0,0.0,-45,45,2008,902,-2.43
"{'cat': 'RB', 'resp': 'reach'}",345678,296,Left,38.31681235234594,86.94946972123131,1.915840617617297,1.3657990765487422,Left,Correct,0.0,0.0,-45,45,2011,1005,-2.39
"{'cat': 'RB', 'resp': 'reach'}",345678,297,Left,42.412116357967236,23.098823459781904,2.1206058178983618,0.362835470439092,Left,Correct,0.0,0.0,-45,45,2005,1726,-2.54
"{'cat': 'RB', 'resp': 'reach'}",345678,298,Left,43.201708563150035,32.84775980820522,2.1600854281575015,0.5159714045016979,Left,Correct,0.0,0.0,-45,45,2005,1371,-2.44
"{'cat': 'RB', 'resp': 'reach'}",345678,299,Left,39.18489685328097,66.71411795202525,1.9592448426640485,1.0479429142440273,Left,Correct,0.0,0.0,-45,45,2012,992,-2.41
"{'cat': 'RB', 'resp': 'reach'}",345678,300,Left,33.953403466059044,67.05693899246594,1.6976701733029522,1.0533279345547497,Left,Correct,0.0,0.0,-45,45,2005,1454,-2.45
"{'cat': 'RB', 'resp': 'reach'}",345678,301,Left,41.969673740686055,25.38439475214266,2.0984836870343027,0.3987371403457734,Left,Correct,0.0,0.0,-45,45,2006,1452,-2.48
"{'cat': 'RB', 'resp': 'reach'}",345678,302,Right,55.135207719923066,40.71131544810849,2.756760385996153,0.6394918476487714,Right,Correct,0.0,0.0,-45,45,2008,966,-0.81
"{'cat': 'RB', 'resp': 'reach'}",345678,303,Right,57.512822356466756,78.24842972976009,2.8756411178233376,1.2291234599697571,Right,Correct,0.0,0.0,-45,45,2005,2761,-0.86
"{'cat': 'RB', 'resp': 'reach'}",345678,304,Right,56.721555130421805,38.82093499051271,2.83607775652109,0.6097978208584084,Right,Correct,0.0,0.0,-45,45,2001,1500,-0.77
"{'cat': 'RB', 'resp': 'reach'}",345678,305,Left,43.068816161907534,69.85311825395362,2.1534408080953766,1.0972502156847987,Left,Correct,0.0,0.0,-45,45,2008,1605,-2.44
"{'cat': 'RB', 'resp': 'reach'}",345678,306,Right,59.67594175708575,75.22858545066924,2.9837970878542874,1.1816878569588725,Right,Correct,0.0,0.0,-45,45,2009,9063,-0.78
"{'cat': 'RB', 'resp': 'reach'}",345678,307,Left,37.58851809161231,37.56782379956961,1.8794259045806154,0.5901139963004184,Left,Correct,0.0,0.0,-45,45,2009,1304,-2.5
"{'cat': 'RB', 'resp': 'reach'}",345678,308,Left,43.49263748887727,84.25175679682333,2.1746318744438637,1.3234235010246704,Left,Correct,0.0,0.0,-45,45,2004,4879,-2.4
"{'cat': 'RB', 'resp': 'reach'}",345678,309,Left,40.333308653724416,24.901803206556465,2.016665432686221,0.39115661007428276,Left,Correct,0.0,0.0,-45,45,2006,1870,-2.5
"{'cat': 'RB', 'resp': 'reach'}",345678,310,Left,41.68029438493593,84.32967964893942,2.0840147192467966,1.3246475103234436,Left,Correct,0.0,0.0,-45,45,2005,1142,-2.45
"{'cat': 'RB', 'resp': 'reach'}",345678,311,Right,60.048219911084274,20.240498067037894,3.002410995554214,0.31793700016202325,Right,Correct,0.0,0.0,-45,45,2004,1027,-0.7
"{'cat': 'RB', 'resp': 'reach'}",345678,312,Right,61.73425723199157,38.617739257810115,3.0867128615995783,0.6066060297529121,Right,Correct,0.0,0.0,-45,45,2009,902,-0.77
"{'cat': 'RB', 'resp': 'reach'}",345678,313,Left,37.37656792834667,24.37351399860805,1.8688283964173333,0.3828582626009752,Left,Correct,0.0,0.0,-45,45,2009,1074,-2.36
"{'cat': 'RB', 'resp': 'reach'}",345678,314,Right,60.03912778401158,55.20584593183454,3.0019563892005796,0.8671714000733067,Left,Incorrect,0.0,0.0,-45,45,2010,1816,-2.53
"{'cat': 'RB', 'resp': 'reach'}",345678,315,Left,38.94717630275426,53.945305935443365,1.9473588151377128,0.8473708841122137,Left,Correct,0.0,0.0,-45,45,2005,1233,-2.45
"{'cat': 'RB', 'resp': 'reach'}",345678,316,Left,40.55038241622987,16.019933528976082,2.0275191208114935,0.2516405274281403,Left,Correct,0.0,0.0,-45,45,2003,1883,-2.45
"{'cat': 'RB', 'resp': 'reach'}",345678,317,Left,48.412046952414656,34.110033630778275,2.420602347620733,0.535799155340769,Left,Correct,0.0,0.0,-45,45,2009,1374,-2.42
"{'cat': 'RB', 'resp': 'reach'}",345678,318,Right,66.03944461909055,51.25094122917275,3.301972230954527,0.8050479022756568,Right,Correct,0.0,0.0,-45,45,2002,1320,-0.84
"{'cat': 'RB', 'resp': 'reach'}",345678,319,Left,45.64816351942862,42.39167496259289,2.2824081759714314,0.665886873179241,Left,Correct,0.0,0.0,-45,45,2007,1653,-2.47
"{'cat': 'RB', 'resp': 'reach'}",345678,320,Right,59.14830217847423,57.32310244406368,2.9574151089237115,0.9004291875962278,Left,Incorrect,0.0,0.0,-45,45,2004,2513,-2.43
"{'cat': 'RB', 'resp': 'reach'}",345678,321,Right,65.07454561084218,30.994695810587423,3.2537272805421087,0.486863543293959,Right,Correct,0.0,0.0,-45,45,2004,2514,-0.82
"{'cat': 'RB', 'resp': 'reach'}",345678,322,Right,56.67106896819022,75.10237102625767,2.833553448409511,1.1797052854163301,Left,Incorrect,0.0,0.0,-45,45,2009,1903,-2.44
"{'cat': 'RB', 'resp': 'reach'}",345678,323,Right,61.22879760966826,65.86594581536654,3.0614398804834133,1.0346198574764947,Right,Correct,0.0,0.0,-45,45,2006,1743,-0.65
"{'cat': 'RB', 'resp': 'reach'}",345678,324,Right,60.54080132441584,28.26367609024167,3.027040066220792,0.44396478584272353,Right,Correct,0.0,0.0,-45,45,2003,1083,-0.75
"{'cat': 'RB', 'resp': 'reach'}",345678,325,Right,62.84921384351706,77.73768385876448,3.1424606921758533,1.2211006825889017,Right,Correct,0.0,0.0,-45,45,2001,1721,-0.79
"{'cat': 'RB', 'resp': 'reach'}",345678,326,Right,63.639381691657846,59.631884808086994,3.1819690845828923,0.9366954561639945,Right,Correct,0.0,0.0,-45,45,2002,998,-0.74
"{'cat': 'RB', 'resp': 'reach'}",345678,327,Right,61.771129098931,31.120342639381867,3.08855645494655,0.4888371990653963,Right,Correct,0.0,0.0,-45,45,2010,1062,-0.79
"{'cat': 'RB', 'resp': 'reach'}",345678,328,Left,36.476632559981915,31.3809350120091,1.8238316279990956,0.4929305744825326,Left,Correct,0.0,0.0,-45,45,2005,963,-2.57
"{'cat': 'RB', 'resp': 'reach'}",345678,329,Left,36.48418824030958,17.88698884695726,1.8242094120154788,0.28096816378221745,Left,Correct,0.0,0.0,-45,45,2004,857,-2.52
"{'cat': 'RB', 'resp': 'reach'}",345678,330,Right,58.47191821466109,36.03370550095333,2.923595910733054,0.5660161224170656,Right,Correct,0.0,0.0,-45,45,2002,2370,-0.65
"{'cat': 'RB', 'resp': 'reach'}",345678,331,Right,59.03543161279966,81.55628755533562,2.951771580639983,1.281083169189495,Left,Incorrect,0.0,0.0,-45,45,2006,2094,-2.46
"{'cat': 'RB', 'resp': 'reach'}",345678,332,Left,45.97690103748436,22.506836910617107,2.2988450518742183,0.3535365674696915,Right,Incorrect,0.0,0.0,-45,45,2009,986,-0.68
"{'cat': 'RB', 'resp': 'reach'}",345678,333,Left,37.82231116638603,62.37881583426363,1.8911155583193016,0.9798441478227663,Left,Correct,0.0,0.0,-45,45,2001,1194,-2.52
"{'cat': 'RB', 'resp': 'reach'}",345678,334,Right,61.80746609387712,32.49050521228129,3.090373304693856,0.5103596624316189,Right,Correct,0.0,0.0,-45,45,2005,1664,-0.73
"{'cat': 'RB', 'resp': 'reach'}",345678,335,Right,52.12916070276049,27.514762352536422,2.6064580351380244,0.4322008763599871,Left,Incorrect,0.0,0.0,-45,45,2001,1296,-2.47
"{'cat': 'RB', 'resp': 'reach'}",345678,336,Left,39.32617000054441,43.3506463643304,1.9663085000272205,0.6809503607327474,Left,Correct,0.0,0.0,-45,45,2012,1131,-2.36
"{'cat': 'RB', 'resp': 'reach'}",345678,337,Right,60.86871656314983,75.82864489988756,3.043435828157492,1.1911135687457797,Left,Incorrect,0.0,0.0,-45,45,2008,2339,-2.43
"{'cat': 'RB', 'resp': 'reach'}",345678,338,Left,39.43864804335352,43.380438179394154,1.9719324021676758,0.6814183294694542,Left,Correct,0.0,0.0,-45,45,2008,996,-2.4
"{'cat': 'RB', 'resp': 'reach'}",345678,339,Left,42.08465015731771,24.8804013599874,2.1042325078658854,0.39082043065450955,Right,Incorrect,0.0,0.0,-45,45,2002,755,-0.72
"{'cat': 'RB', 'resp': 'reach'}",345678,340,Left,47.190976052606395,29.668725621839926,2.3595488026303197,0.46603525227471787,Left,Correct,0.0,0.0,-45,45,2008,1503,-2.44
"{'cat': 'RB', 'resp': 'reach'}",345678,341,Left,34.01461022874581,46.30176654870265,1.7007305114372906,0.7273064481881695,Left,Correct,0.0,0.0,-45,45,2001,1235,-2.43
"{'cat': 'RB', 'resp': 'reach'}",345678,342,Right,66.83236956219183,73.81115619047976,3.3416184781095915,1.1594229302049002,Right,Correct,0.0,0.0,-45,45,2001,1421,-0.62
"{'cat': 'RB', 'resp': 'reach'}",345678,343,Right,55.12634989174627,78.47291458461592,2.7563174945873135,1.2326496598240437,Left,Incorrect,0.0,0.0,-45,45,2003,3600,-2.42
"{'cat': 'RB', 'resp': 'reach'}",345678,344,Right,57.80994497001563,74.15489895498446,2.890497248500781,1.1648224289233633,Right,Correct,0.0,0.0,-45,45,2001,2661,-0.7
"{'cat': 'RB', 'resp': 'reach'}",345678,345,Right,59.81471467624963,9.263940358330515,2.9907357338124814,0.1455176348651257,Right,Correct,0.0,0.0,-45,45,2007,1733,-0.73
"{'cat': 'RB', 'resp': 'reach'}",345678,346,Left,37.388906074680726,47.043157773911986,1.8694453037340364,0.7389521943209373,Left,Correct,0.0,0.0,-45,45,2001,1191,-2.44
"{'cat': 'RB', 'resp': 'reach'}",345678,347,Left,46.88538331191515,76.94272597320253,2.3442691655957573,1.208613513322928,Left,Correct,0.0,0.0,-45,45,2008,2237,-2.61
"{'cat': 'RB', 'resp': 'reach'}",345678,348,Right,62.175873860199154,11.519962202095762,3.108793693009958,0.18095514311868072,Right,Correct,0.0,0.0,-45,45,2009,1918,-0.67
"{'cat': 'RB', 'resp': 'reach'}",345678,349,Right,58.96955137239282,68.63797804328857,2.948477568619641,1.0781628378902646,Right,Correct,0.0,0.0,-45,45,2004,1123,-0.67
"{'cat': 'RB', 'resp': 'reach'}",345678,350,Right,55.374212912200626,72.73029437351116,2.7687106456100317,1.1424447924862287,Right,Correct,0.0,0.0,-45,45,2005,1562,-0.75
"{'cat': 'RB', 'resp': 'reach'}",345678,351,Right,57.830155030374954,76.77987458974025,2.8915077515187475,1.2060554497733678,Right,Correct,0.0,0.0,-45,45,2008,1165,-0.82
"{'cat': 'RB', 'resp': 'reach'}",345678,352,Right,64.57522700044125,24.325074958219677,3.2287613500220624,0.38209738393382,Right,Correct,0.0,0.0,-45,45,2004,1049,-0.78
"{'cat': 'RB', 'resp': 'reach'}",345678,353,Left,42.56884406568554,21.801103650523615,2.128442203284277,0.34245093534317306,Left,Correct,0.0,0.0,-45,45,2008,1143,-2.43
"{'cat': 'RB', 'resp': 'reach'}",345678,354,Right,52.34302760077532,58.089563370113964,2.6171513800387665,0.9124687276689439,Right,Correct,0.0,0.0,-45,45,2001,1347,-0.83
"{'cat': 'RB', 'resp': 'reach'}",345678,355,Right,67.44474070294719,59.43623844888276,3.372237035147359,0.9336222503401065,Right,Correct,0.0,0.0,-45,45,2009,2164,-0.65
"{'cat': 'RB', 'resp': 'reach'}",345678,356,Left,48.73677523139116,44.489941746394436,2.436838761569558,0.698846370745553,Left,Correct,0.0,0.0,-45,45,2006,2977,-2.48
"{'cat': 'RB', 'resp': 'reach'}",345678,357,Right,52.16126269562369,39.28175226791245,2.6080631347811845,0.6170363217250397,Left,Incorrect,0.0,0.0,-45,45,2005,2010,-2.51
"{'cat': 'RB', 'resp': 'reach'}",345678,358,Left,47.15005309510971,62.85425789958414,2.3575026547554856,0.9873123743208588,Left,Correct,0.0,0.0,-45,45,2011,1637,-2.41
"{'cat': 'RB', 'resp': 'reach'}",345678,359,Right,57.02563720151941,53.01825287008471,2.85128186007597,0.8328087686141205,Right,Correct,0.0,0.0,-45,45,2009,1512,-0.69
"{'cat': 'RB', 'resp': 'reach'}",345678,360,Right,57.669380050689995,86.23336212967374,2.8834690025344996,1.3545504848046563,Right,Correct,0.0,0.0,-45,45,2005,1683,-0.66
"{'cat': 'RB', 'resp': 'reach'}",345678,361,Right,57.950059599111626,13.351400578116404,2.8975029799555814,0.20972330985672505,Right,Correct,0.0,0.0,-45,45,2004,2738,-0.73
"{'cat': 'RB', 'resp': 'reach'}",345678,362,Left,40.66441604602585,45.5997475541662,2.0332208023012925,0.7162791596085883,Left,Correct,0.0,0.0,-45,45,2005,1158,-2.43
"{'cat': 'RB', 'resp': 'reach'}",345678,363,Right,60.5753206603024,12.256285044980864,3.0287660330151205,0.19252127528807164,Right,Correct,0.0,0.0,-45,45,2007,2667,-0.85
"{'cat': 'RB', 'resp': 'reach'}",345678,364,Right,52.43428634046996,37.83825137767029,2.621714317023498,0.5943618627638643,Right,Correct,0.0,0.0,-45,45,2008,6113,-0.84
"{'cat': 'RB', 'resp': 'reach'}",345678,365,Left,34.430071724224085,56.32378803844697,1.7215035862112043,0.8847319936196681,Left,Correct,0.0,0.0,-45,45,2007,1194,-2.51
"{'cat': 'RB', 'resp': 'reach'}",345678,366,Right,65.58733364803888,38.39549221448172,3.2793666824019443,0.6031149813598994,Right,Correct,0.0,0.0,-45,45,2007,1473,-0.87
"{'cat': 'RB', 'resp': 'reach'}",345678,367,Left,45.5177572968942,59.748494560689736,2.2758878648447105,0.9385271578745629,Left,Correct,0.0,0.0,-45,45,2013,2035,-2.42
"{'cat': 'RB', 'resp': 'reach'}",345678,368,Left,31.96419935902499,65.98409366879012,1.5982099679512496,1.0364757196182592,Left,Correct,0.0,0.0,-45,45,2002,1575,-2.41
"{'cat': 'RB', 'resp': 'reach'}",345678,369,Left,40.21499622289837,47.043625983639735,2.0107498111449185,0.7389595489421426,Left,Correct,0.0,0.0,-45,45,2005,1222,-2.46
"{'cat': 'RB', 'resp': 'reach'}",345678,370,Left,40.490240671461144,37.06426244377018,2.0245120335730573,0.5822040730203624,Left,Correct,0.0,0.0,-45,45,2005,1366,-2.45
"{'cat': 'RB', 'resp': 'reach'}",345678,371,Right,57.22270927278395,27.08835608771679,2.8611354636391972,0.42550290241497707,Right,Correct,0.0,0.0,-45,45,2010,2034,-0.9
"{'cat': 'RB', 'resp': 'reach'}",345678,372,Left,34.80310717198311,51.68221717636579,1.7401553585991554,0.811822369012515,Left,Correct,0.0,0.0,-45,45,2008,1067,-2.43
"{'cat': 'RB', 'resp': 'reach'}",345678,373,Right,64.93884067936872,75.32964641100003,3.246942033968436,1.183275318811572,Right,Correct,0.0,0.0,-45,45,2005,1160,-0.72
"{'cat': 'RB', 'resp': 'reach'}",345678,374,Right,56.474022364199975,67.82854868895471,2.8237011182099985,1.0654483513243886,Right,Correct,0.0,0.0,-45,45,2003,2084,-0.73
"{'cat': 'RB', 'resp': 'reach'}",345678,375,Right,61.9997348840539,88.82951798137506,3.099986744202695,1.3953308055610516,Right,Correct,0.0,0.0,-45,45,2006,28471,-0.84
"{'cat': 'RB', 'resp': 'reach'}",345678,376,Left,38.40170983178018,9.814909672105614,1.920085491589009,0.154172240607672,Left,Correct,0.0,0.0,-45,45,2008,1197,-2.42
"{'cat': 'RB', 'resp': 'reach'}",345678,377,Left,36.98824534666537,37.19393297483792,1.8494122673332685,0.5842409329593099,Left,Correct,0.0,0.0,-45,45,2012,1924,-2.55
"{'cat': 'RB', 'resp': 'reach'}",345678,378,Right,55.89981181796425,80.77727308110198,2.7949905908982124,1.2688464384430327,Right,Correct,0.0,0.0,-45,45,2009,2381,-0.76
"{'cat': 'RB', 'resp': 'reach'}",345678,379,Left,43.02041840663055,32.16651088155857,2.1510209203315274,0.5052703713856027,Left,Correct,0.0,0.0,-45,45,2003,1514,-2.49
"{'cat': 'RB', 'resp': 'reach'}",345678,380,Right,58.652904287752264,64.23710636002411,2.9326452143876134,1.0090341071425897,Right,Correct,0.0,0.0,-45,45,2008,1022,-0.73
"{'cat': 'RB', 'resp': 'reach'}",345678,381,Left,44.28516335766005,67.84864317152712,2.2142581678830027,1.0657639947185245,Left,Correct,0.0,0.0,-45,45,2009,1375,-2.45
"{'cat': 'RB', 'resp': 'reach'}",345678,382,Right,56.60142896467733,26.3489496537974,2.8300714482338667,0.41388833331088615,Right,Correct,0.0,0.0,-45,45,2007,1142,-0.77
"{'cat': 'RB', 'resp': 'reach'}",345678,383,Left,49.290334156070315,51.20410818785928,2.464516707803516,0.8043122505829784,Left,Correct,0.0,0.0,-45,45,2004,2106,-2.55
"{'cat': 'RB', 'resp': 'reach'}",345678,384,Left,31.46129560364178,58.45617927811326,1.5730647801820892,0.9182275168852426,Left,Correct,0.0,0.0,-45,45,2001,2455,-2.52
"{'cat': 'RB', 'resp': 'reach'}",345678,385,Left,34.20799215908662,59.16867959177116,1.710399607954331,0.929419445640583,Left,Correct,0.0,0.0,-45,45,2001,1336,-2.49
"{'cat': 'RB', 'resp': 'reach'}",345678,386,Left,37.6325134123414,11.430204404511656,1.8816256706170702,0.17954523093121758,Left,Correct,0.0,0.0,-45,45,2001,2387,-2.35
"{'cat': 'RB', 'resp': 'reach'}",345678,387,Right,52.452545712562745,42.798946296182436,2.622627285628137,0.6722842763273542,Right,Correct,0.0,0.0,-45,45,2005,1550,-0.7
"{'cat': 'RB', 'resp': 'reach'}",345678,388,Right,59.83299393023457,71.78185982490368,2.9916496965117285,1.1275468174346486,Right,Correct,0.0,0.0,-45,45,2004,2052,-0.79
"{'cat': 'RB', 'resp': 'reach'}",345678,389,Right,57.39285448111167,80.57980388814886,2.8696427240555833,1.2657445996135737,Right,Correct,0.0,0.0,-45,45,2007,1267,-0.7
"{'cat': 'RB', 'resp': 'reach'}",345678,390,Right,61.69746144507075,85.99842422050477,3.0848730722535374,1.3508600887571818,Right,Correct,0.0,0.0,-45,45,2010,1737,-0.71
"{'cat': 'RB', 'resp': 'reach'}",345678,391,Left,47.267840669792804,71.19561590734003,2.36339203348964,1.1183381195115,Right,Incorrect,0.0,0.0,-45,45,2012,1086,-0.75
"{'cat': 'RB', 'resp': 'reach'}",345678,392,Right,56.47281221024626,51.26886888831919,2.8236406105123133,0.8053295092870093,Right,Correct,0.0,0.0,-45,45,2005,1716,-0.72
"{'cat': 'RB', 'resp': 'reach'}",345678,393,Left,39.142487666034235,46.99563246751205,1.9571243833017118,0.7382056685537091,Left,Correct,0.0,0.0,-45,45,2009,1025,-2.35
"{'cat': 'RB', 'resp': 'reach'}",345678,394,Right,64.5328540556153,27.365517588304954,3.226642702780765,0.4298565450855056,Right,Correct,0.0,0.0,-45,45,2002,1607,-0.79
"{'cat': 'RB', 'resp': 'reach'}",345678,395,Right,67.69173192335401,39.624210137529914,3.384586596167701,0.6224156373618108,Right,Correct,0.0,0.0,-45,45,2007,1080,-0.83
"{'cat': 'RB', 'resp': 'reach'}",345678,396,Right,62.91699289666479,40.98749231508729,3.1458496448332394,0.6438300237307317,Right,Correct,0.0,0.0,-45,45,2007,1492,-0.84
"{'cat': 'RB', 'resp': 'reach'}",345678,397,Right,60.176822758032195,74.98673322140536,3.00884113790161,1.1778888510253238,Right,Correct,0.0,0.0,-45,45,2001,1094,-0.81
"{'cat': 'RB', 'resp': 'reach'}",345678,398,Right,60.06594753120877,71.05318268011777,3.0032973765604383,1.1161007836101575,Right,Correct,0.0,0.0,-45,45,2010,993,-0.78
"{'cat': 'RB', 'resp': 'reach'}",345678,399,Left,40.950600271015816,24.774245111500058,2.047530013550791,0.3891529322026071,Left,Correct,0.0,0.0,-45,45,2012,1011,-2.46
