condition,subject,trial,cat,x,y,xt,yt,resp,fb,rotation,su,target_angle_left,target_angle_right,rt,mt,ep
"{'cat': 'RB', 'resp': 'reach'}",14,0,Right,64.16257388351448,85.97098512592915,3.2081286941757243,1.350429076467482,Left,Incorrect,0.0,0.0,-45,45,2009,2929,-2.43
"{'cat': 'RB', 'resp': 'reach'}",14,1,Left,41.77006486851548,69.20954825849088,2.088503243425774,1.087141041835716,Left,Correct,0.0,0.0,-45,45,2004,1329,-2.38
"{'cat': 'RB', 'resp': 'reach'}",14,2,Left,42.92055448562699,56.25018875000183,2.1460277242813492,0.8835758987002249,Left,Correct,0.0,0.0,-45,45,2005,937,-2.39
"{'cat': 'RB', 'resp': 'reach'}",14,3,Left,42.05377562416249,81.18532424533828,2.1026887812081245,1.2752560911423,Right,Incorrect,0.0,0.0,-45,45,2004,866,-0.18
"{'cat': 'RB', 'resp': 'reach'}",14,4,Right,58.85471222680002,25.40060328450108,2.9427356113400007,0.3989917433766868,Left,Incorrect,0.0,0.0,-45,45,2009,812,-2.14
"{'cat': 'RB', 'resp': 'reach'}",14,5,Left,38.1180559220306,20.380900639663007,1.90590279610153,0.3201424386155441,Right,Incorrect,0.0,0.0,-45,45,2013,587,-0.19
"{'cat': 'RB', 'resp': 'reach'}",14,6,Left,41.7529110691905,12.683329267405831,2.087645553459525,0.19922927024771286,Left,Correct,0.0,0.0,-45,45,2017,745,-2.08
"{'cat': 'RB', 'resp': 'reach'}",14,7,Left,43.84260063194462,33.7326490685558,2.1921300315972307,0.5298712124994874,Left,Correct,0.0,0.0,-45,45,2004,717,-2.22
"{'cat': 'RB', 'resp': 'reach'}",14,8,Right,56.79332477667144,12.467409646004093,2.8396662388335723,0.19583761276590492,Left,Incorrect,0.0,0.0,-45,45,2009,641,-2.0
"{'cat': 'RB', 'resp': 'reach'}",14,9,Left,33.32478999707234,71.86531824126143,1.666239499853617,1.1288577791731973,Right,Incorrect,0.0,0.0,-45,45,2013,566,-0.18
"{'cat': 'RB', 'resp': 'reach'}",14,10,Right,64.0208237793789,30.749165820252337,3.2010411889689454,0.4830067672245955,Left,Incorrect,0.0,0.0,-45,45,2008,571,-2.28
"{'cat': 'RB', 'resp': 'reach'}",14,11,Right,59.41216616215158,89.09138251828776,2.9706083081075794,1.3994441640880546,Left,Incorrect,0.0,0.0,-45,45,2004,592,-2.33
"{'cat': 'RB', 'resp': 'reach'}",14,12,Right,59.66585682465064,74.43064426101367,2.983292841232532,1.1691538260617793,Right,Correct,0.0,0.0,-45,45,2013,496,-0.33
"{'cat': 'RB', 'resp': 'reach'}",14,13,Right,65.6784658627166,59.94178601012686,3.2839232931358304,0.9415633728623297,Right,Correct,0.0,0.0,-45,45,2008,513,-0.17
"{'cat': 'RB', 'resp': 'reach'}",14,14,Right,53.37717454149299,49.175841433234595,2.6688587270746496,0.7724523109037318,Right,Correct,0.0,0.0,-45,45,2004,484,-0.14
"{'cat': 'RB', 'resp': 'reach'}",14,15,Left,46.28843685560613,49.649736817056024,2.3144218427803067,0.7798962421856495,Right,Incorrect,0.0,0.0,-45,45,2008,483,-0.12
"{'cat': 'RB', 'resp': 'reach'}",14,16,Left,35.02328591711064,71.45061097373213,1.751164295855532,1.1223435726478954,Left,Correct,0.0,0.0,-45,45,2004,626,-2.28
"{'cat': 'RB', 'resp': 'reach'}",14,17,Right,51.391687453742286,52.29523012663479,2.569584372687114,0.8214515539181175,Left,Incorrect,0.0,0.0,-45,45,2005,704,-2.25
"{'cat': 'RB', 'resp': 'reach'}",14,18,Right,59.2335480938812,81.55293432451383,2.96167740469406,1.2810304967629176,Right,Correct,0.0,0.0,-45,45,2005,495,-0.15
"{'cat': 'RB', 'resp': 'reach'}",14,19,Left,31.974648280131376,32.922738312164306,1.5987324140065686,0.517149164087773,Right,Incorrect,0.0,0.0,-45,45,2005,1066,-0.15
"{'cat': 'RB', 'resp': 'reach'}",14,20,Left,46.931386357127096,51.47995787101395,2.346569317856355,0.8086452872734474,Left,Correct,0.0,0.0,-45,45,2004,592,-2.3
"{'cat': 'RB', 'resp': 'reach'}",14,21,Left,38.953452667717784,32.005563494636746,1.9476726333858891,0.5027422157437623,Left,Correct,0.0,0.0,-45,45,2004,855,-2.24
"{'cat': 'RB', 'resp': 'reach'}",14,22,Right,67.41897302506094,70.77343521222934,3.370948651253047,1.1117065206602645,Left,Incorrect,0.0,0.0,-45,45,2008,1055,-2.15
"{'cat': 'RB', 'resp': 'reach'}",14,23,Right,56.706004460852654,87.0894549967329,2.835300223042633,1.3679979601143748,Right,Correct,0.0,0.0,-45,45,2004,575,-0.15
"{'cat': 'RB', 'resp': 'reach'}",14,24,Right,61.16788798871718,59.77566661688672,3.0583943994358593,0.9389539755352199,Right,Correct,0.0,0.0,-45,45,2004,525,-0.23
"{'cat': 'RB', 'resp': 'reach'}",14,25,Right,61.03207309295418,81.90084938173511,3.051603654647709,1.286495533702116,Left,Incorrect,0.0,0.0,-45,45,2004,1350,-2.16
"{'cat': 'RB', 'resp': 'reach'}",14,26,Left,44.02825688266843,31.711477328743435,2.2014128441334213,0.49812272105229827,Right,Incorrect,0.0,0.0,-45,45,2004,625,-0.23
"{'cat': 'RB', 'resp': 'reach'}",14,27,Right,66.92354090172067,72.89793553096045,3.3461770450860335,1.1450780936296385,Left,Incorrect,0.0,0.0,-45,45,2004,812,-2.28
"{'cat': 'RB', 'resp': 'reach'}",14,28,Left,38.62915328311212,81.8750798094091,1.9314576641556058,1.2860907462065883,Right,Incorrect,0.0,0.0,-45,45,2004,846,-0.2
"{'cat': 'RB', 'resp': 'reach'}",14,29,Left,47.40743666721445,60.78167564395281,2.3703718333607227,0.954756328379599,Left,Correct,0.0,0.0,-45,45,2004,1188,-2.15
"{'cat': 'RB', 'resp': 'reach'}",14,30,Right,59.05494809910065,47.76652586987575,2.952747404955032,0.7503148338015423,Left,Incorrect,0.0,0.0,-45,45,2005,716,-2.12
"{'cat': 'RB', 'resp': 'reach'}",14,31,Left,33.19286617594309,42.30627222571051,1.6596433087971545,0.6645453701253102,Right,Incorrect,0.0,0.0,-45,45,2008,654,-0.26
"{'cat': 'RB', 'resp': 'reach'}",14,32,Right,60.39622635893175,11.736293469487407,3.019811317946587,0.18435326672057753,Right,Correct,0.0,0.0,-45,45,2004,471,-0.09
"{'cat': 'RB', 'resp': 'reach'}",14,33,Right,60.531887646961,19.750604829176957,3.02659438234805,0.3102417751764871,Right,Correct,0.0,0.0,-45,45,2012,496,-0.2
"{'cat': 'RB', 'resp': 'reach'}",14,34,Left,37.45275694016491,71.56389347743884,1.8726378470082454,1.124123010055022,Right,Incorrect,0.0,0.0,-45,45,2005,470,-0.17
"{'cat': 'RB', 'resp': 'reach'}",14,35,Left,39.35699597038174,79.85461064112869,1.967849798519087,1.254353290727216,Right,Incorrect,0.0,0.0,-45,45,2010,619,-0.32
"{'cat': 'RB', 'resp': 'reach'}",14,36,Right,65.03391150014436,44.09606021023299,3.251695575007218,0.6926592940436057,Left,Incorrect,0.0,0.0,-45,45,2008,775,-1.64
"{'cat': 'RB', 'resp': 'reach'}",14,37,Left,45.80267758510587,34.64800709527716,2.2901338792552934,0.5442496227602487,Right,Incorrect,0.0,0.0,-45,45,2004,625,-0.25
"{'cat': 'RB', 'resp': 'reach'}",14,38,Left,38.861908155207566,74.30276576479532,1.9430954077603784,1.1671451153404209,Right,Incorrect,0.0,0.0,-45,45,2012,617,-0.3
"{'cat': 'RB', 'resp': 'reach'}",14,39,Right,57.91741151918286,66.8572610417855,2.895870575959143,1.0501914006400421,Right,Correct,0.0,0.0,-45,45,2004,592,-0.26
"{'cat': 'RB', 'resp': 'reach'}",14,40,Left,42.05253835227843,41.181353394427234,2.1026269176139216,0.6468751864440884,Right,Incorrect,0.0,0.0,-45,45,2004,883,-0.01
"{'cat': 'RB', 'resp': 'reach'}",14,41,Right,61.19021448743182,53.11140861301392,3.059510724371591,0.8342720556022508,Left,Incorrect,0.0,0.0,-45,45,2004,1195,-2.03
"{'cat': 'RB', 'resp': 'reach'}",14,42,Right,53.92012338482797,54.90541953288324,2.6960061692413984,0.8624523132338576,Right,Correct,0.0,0.0,-45,45,2004,588,-0.22
"{'cat': 'RB', 'resp': 'reach'}",14,43,Right,65.81533960341018,55.85723821539779,3.290766980170509,0.8774034461365438,Right,Correct,0.0,0.0,-45,45,2008,554,-0.21
"{'cat': 'RB', 'resp': 'reach'}",14,44,Right,55.203193739589295,67.34327493420761,2.760159686979465,1.0578256890099216,Left,Incorrect,0.0,0.0,-45,45,2004,867,-2.1
"{'cat': 'RB', 'resp': 'reach'}",14,45,Right,56.23373515350791,42.706814365259056,2.811686757675395,0.6708370713406046,Right,Correct,0.0,0.0,-45,45,2012,588,-0.23
"{'cat': 'RB', 'resp': 'reach'}",14,46,Right,52.49094243227001,31.576229670769283,2.624547121613501,0.49599825580876417,Left,Incorrect,0.0,0.0,-45,45,2013,1450,-2.01
"{'cat': 'RB', 'resp': 'reach'}",14,47,Left,47.07272917397936,68.35534224372351,2.353636458698968,1.0737232051324892,Right,Incorrect,0.0,0.0,-45,45,2008,605,-0.16
"{'cat': 'RB', 'resp': 'reach'}",14,48,Left,49.30793675889782,43.04680496997629,2.465396837944891,0.6761776312709505,Left,Correct,0.0,0.0,-45,45,2004,937,-1.93
"{'cat': 'RB', 'resp': 'reach'}",14,49,Left,48.77047234602067,63.709934282006124,2.4385236173010334,1.0007533075051949,Left,Correct,0.0,0.0,-45,45,2004,908,-2.01
"{'cat': 'RB', 'resp': 'reach'}",14,50,Left,31.278193029442342,39.74651490810139,1.5639096514721171,0.6243367962054426,Left,Correct,0.0,0.0,-45,45,2008,712,-1.96
"{'cat': 'RB', 'resp': 'reach'}",14,51,Left,35.10969108006658,14.692739867213731,1.755484554003329,0.23079301813972267,Right,Incorrect,0.0,0.0,-45,45,2017,563,-0.1
"{'cat': 'RB', 'resp': 'reach'}",14,52,Right,59.219300857175895,71.1245339663808,2.9609650428587946,1.117221566993898,Left,Incorrect,0.0,0.0,-45,45,2008,725,-1.87
"{'cat': 'RB', 'resp': 'reach'}",14,53,Right,53.42933433591104,35.26561080897997,2.671466716795552,0.5539509192092413,Right,Correct,0.0,0.0,-45,45,2004,646,-0.26
"{'cat': 'RB', 'resp': 'reach'}",14,54,Left,46.73497076069448,45.52123613315353,2.336748538034724,0.7150459050912067,Left,Correct,0.0,0.0,-45,45,2008,725,-1.92
"{'cat': 'RB', 'resp': 'reach'}",14,55,Left,39.06521056350189,77.70740853870522,1.9532605281750945,1.2206251189734856,Left,Correct,0.0,0.0,-45,45,2012,638,-2.03
"{'cat': 'RB', 'resp': 'reach'}",14,56,Left,44.97598450051247,47.81656866475553,2.2487992250256235,0.7511009041853393,Right,Incorrect,0.0,0.0,-45,45,2004,746,-0.29
"{'cat': 'RB', 'resp': 'reach'}",14,57,Right,52.65074029411583,31.55314492116966,2.6325370147057914,0.49563564141000355,Left,Incorrect,0.0,0.0,-45,45,2004,759,-2.02
"{'cat': 'RB', 'resp': 'reach'}",14,58,Right,67.00355709113063,28.736011051301553,3.3501778545565317,0.4513842060612203,Right,Correct,0.0,0.0,-45,45,2008,654,-0.22
"{'cat': 'RB', 'resp': 'reach'}",14,59,Left,35.798428971887546,40.37004485537333,1.7899214485943773,0.6341311817136563,Right,Incorrect,0.0,0.0,-45,45,2004,583,-0.14
"{'cat': 'RB', 'resp': 'reach'}",14,60,Left,37.37314138667899,44.15055039270884,1.8686570693339493,0.6935152238284003,Left,Correct,0.0,0.0,-45,45,2013,929,-1.92
"{'cat': 'RB', 'resp': 'reach'}",14,61,Right,52.26996354691953,53.730067451581704,2.6134981773459764,0.8439899259138658,Right,Correct,0.0,0.0,-45,45,2004,3408,-0.27
"{'cat': 'RB', 'resp': 'reach'}",14,62,Right,63.19302073405653,44.069278543248004,3.1596510367028263,0.6922386086023512,Left,Incorrect,0.0,0.0,-45,45,2016,2338,-1.74
"{'cat': 'RB', 'resp': 'reach'}",14,63,Right,63.92755579255477,13.645141582643284,3.1963777896277383,0.2143373827661237,Right,Correct,0.0,0.0,-45,45,2004,1125,-0.23
"{'cat': 'RB', 'resp': 'reach'}",14,64,Right,56.17321928603813,13.097983701558043,2.808660964301907,0.205742646868268,Left,Incorrect,0.0,0.0,-45,45,2004,3008,-1.79
"{'cat': 'RB', 'resp': 'reach'}",14,65,Right,60.58838233170782,77.76507613271504,3.029419116585391,1.2215309594219426,Right,Correct,0.0,0.0,-45,45,2008,571,-0.4
"{'cat': 'RB', 'resp': 'reach'}",14,66,Right,58.226281543876276,72.16422040414032,2.911314077193814,1.1335529233684094,Right,Correct,0.0,0.0,-45,45,2004,571,-0.26
"{'cat': 'RB', 'resp': 'reach'}",14,67,Right,65.66138464763672,79.67740270029208,3.2830692323818362,1.2515697149017657,Left,Incorrect,0.0,0.0,-45,45,2004,596,-1.68
"{'cat': 'RB', 'resp': 'reach'}",14,68,Left,38.99349455645805,50.2143851117814,1.9496747278229025,0.7887657168585055,Right,Incorrect,0.0,0.0,-45,45,2008,521,-0.29
"{'cat': 'RB', 'resp': 'reach'}",14,69,Right,59.46329554548645,61.568799183791455,2.9731647772743224,0.9671204360307224,Right,Correct,0.0,0.0,-45,45,2017,454,-0.31
"{'cat': 'RB', 'resp': 'reach'}",14,70,Left,31.540441360153935,67.34511860322236,1.5770220680076965,1.0578546492950833,Right,Incorrect,0.0,0.0,-45,45,2004,604,-1.49
"{'cat': 'RB', 'resp': 'reach'}",14,71,Right,60.234330686648526,8.753080884571439,3.011716534332426,0.13749307301623442,Right,Correct,0.0,0.0,-45,45,2004,613,-0.27
"{'cat': 'RB', 'resp': 'reach'}",14,72,Right,54.36005885295258,53.9910512071386,2.718002942647629,0.8480894491596849,Left,Incorrect,0.0,0.0,-45,45,2004,704,-1.93
"{'cat': 'RB', 'resp': 'reach'}",14,73,Right,67.4606612615257,38.7755222349227,3.3730330630762855,0.609084478961704,Right,Correct,0.0,0.0,-45,45,2004,471,-0.18
"{'cat': 'RB', 'resp': 'reach'}",14,74,Left,40.909622659391516,58.604811507363515,2.045481132969576,0.9205622264827389,Left,Correct,0.0,0.0,-45,45,2004,633,-1.98
"{'cat': 'RB', 'resp': 'reach'}",14,75,Left,42.13888889778191,13.196236060084914,2.1069444448890953,0.20728599130699735,Right,Incorrect,0.0,0.0,-45,45,2008,534,-0.27
"{'cat': 'RB', 'resp': 'reach'}",14,76,Right,61.25539894437629,74.53251127297385,3.062769947218815,1.1707539493438652,Right,Correct,0.0,0.0,-45,45,2004,484,-0.29
"{'cat': 'RB', 'resp': 'reach'}",14,77,Left,33.46706281760632,35.08405830327796,1.673353140880316,0.5510990991184701,Left,Correct,0.0,0.0,-45,45,2004,950,-2.22
"{'cat': 'RB', 'resp': 'reach'}",14,78,Left,36.278267854837566,32.465239508199566,1.8139133927418782,0.5099627896799643,Left,Correct,0.0,0.0,-45,45,2012,596,-2.11
"{'cat': 'RB', 'resp': 'reach'}",14,79,Right,61.649565908717214,52.4629406186186,3.0824782954358607,0.8240859441658488,Right,Correct,0.0,0.0,-45,45,2013,433,-0.25
"{'cat': 'RB', 'resp': 'reach'}",14,80,Left,33.01848434270499,26.58026259736666,1.6509242171352494,0.4175217885318733,Right,Incorrect,0.0,0.0,-45,45,2004,434,-0.21
"{'cat': 'RB', 'resp': 'reach'}",14,81,Right,61.083047124635506,49.69621007635196,3.0541523562317754,0.7806262424356119,Left,Incorrect,0.0,0.0,-45,45,2012,517,-2.03
"{'cat': 'RB', 'resp': 'reach'}",14,82,Right,64.32570738971506,25.82298317294936,3.2162853694857527,0.4056264711495528,Right,Correct,0.0,0.0,-45,45,2008,463,-0.25
"{'cat': 'RB', 'resp': 'reach'}",14,83,Left,36.43634823889528,82.48790732533138,1.8218174119447639,1.2957170183162836,Right,Incorrect,0.0,0.0,-45,45,2004,696,-0.22
"{'cat': 'RB', 'resp': 'reach'}",14,84,Left,40.70848636831194,61.352846780795446,2.035424318415597,0.9637282636168358,Left,Correct,0.0,0.0,-45,45,2004,525,-2.15
"{'cat': 'RB', 'resp': 'reach'}",14,85,Left,41.65495161149331,55.17043198200506,2.0827475805746656,0.8666151190502125,Right,Incorrect,0.0,0.0,-45,45,2005,1108,-0.25
"{'cat': 'RB', 'resp': 'reach'}",14,86,Left,37.52837204429028,44.51411950923828,1.876418602214514,0.6992261541562053,Left,Correct,0.0,0.0,-45,45,2012,567,-2.12
"{'cat': 'RB', 'resp': 'reach'}",14,87,Left,35.388234707017034,81.37299197893086,1.7694117353508516,1.2782039690081517,Left,Correct,0.0,0.0,-45,45,2008,655,-2.23
"{'cat': 'RB', 'resp': 'reach'}",14,88,Right,61.153644193567146,63.33572158414637,3.0576822096783576,0.9948751881928136,Left,Incorrect,0.0,0.0,-45,45,2004,987,-2.26
"{'cat': 'RB', 'resp': 'reach'}",14,89,Right,56.98894344227983,38.22751418669727,2.8494471721139916,0.6004763886696387,Right,Correct,0.0,0.0,-45,45,2016,450,-0.25
"{'cat': 'RB', 'resp': 'reach'}",14,90,Left,42.299116922721176,47.06996553332765,2.1149558461360587,0.7393732896211346,Right,Incorrect,0.0,0.0,-45,45,2004,504,-0.31
"{'cat': 'RB', 'resp': 'reach'}",14,91,Left,40.50080547119133,85.32870915848363,2.0250402735595663,1.3403402291629614,Left,Correct,0.0,0.0,-45,45,2009,570,-2.31
"{'cat': 'RB', 'resp': 'reach'}",14,92,Left,48.917996952701856,45.735815666976634,2.4458998476350926,0.7184165125265538,Right,Incorrect,0.0,0.0,-45,45,2004,954,-0.25
"{'cat': 'RB', 'resp': 'reach'}",14,93,Right,64.4623385387208,14.421997552734162,3.22311692693604,0.22654020780879808,Left,Incorrect,0.0,0.0,-45,45,2013,537,-2.2
"{'cat': 'RB', 'resp': 'reach'}",14,94,Left,43.50007304139026,40.76786507418604,2.175003652069513,0.6403801270980138,Right,Incorrect,0.0,0.0,-45,45,2004,567,-0.27
"{'cat': 'RB', 'resp': 'reach'}",14,95,Left,37.0184038211174,53.05200854529126,1.8509201910558701,0.8333390015203498,Right,Incorrect,0.0,0.0,-45,45,2004,496,-0.2
"{'cat': 'RB', 'resp': 'reach'}",14,96,Left,37.753515120392365,26.68974906249181,1.8876757560196182,0.4192415979043967,Right,Incorrect,0.0,0.0,-45,45,2013,445,-0.3
"{'cat': 'RB', 'resp': 'reach'}",14,97,Left,40.12054694514703,27.4262484251165,2.0060273472573513,0.4308105028393732,Left,Correct,0.0,0.0,-45,45,2004,575,-2.11
"{'cat': 'RB', 'resp': 'reach'}",14,98,Left,40.960952021629,46.58700353464861,2.04804760108145,0.7317869402860689,Left,Correct,0.0,0.0,-45,45,2008,796,-2.04
"{'cat': 'RB', 'resp': 'reach'}",14,99,Left,44.08255190779737,44.52677533904803,2.2041275953898687,0.6994249514659823,Left,Correct,0.0,0.0,-45,45,2008,571,-2.08
"{'cat': 'RB', 'resp': 'reach'}",14,100,Right,55.954046818508345,79.52561829237607,2.7977023409254174,1.2491854909975735,Left,Incorrect,0.0,0.0,-45,45,2004,675,-2.05
"{'cat': 'RB', 'resp': 'reach'}",14,101,Left,42.00522086700547,85.65731560257237,2.1002610433502737,1.3455019671163186,Right,Incorrect,0.0,0.0,-45,45,2004,1025,-0.32
"{'cat': 'RB', 'resp': 'reach'}",14,102,Left,47.07780506714231,30.28898846427342,2.3538902533571155,0.47577831822013683,Left,Correct,0.0,0.0,-45,45,2008,1591,-2.18
"{'cat': 'RB', 'resp': 'reach'}",14,103,Right,61.115083725190416,35.40633229783489,3.0557541862595206,0.5561613671871856,Right,Correct,0.0,0.0,-45,45,2004,2392,-0.2
"{'cat': 'RB', 'resp': 'reach'}",14,104,Right,65.617898953291,56.45085515511449,3.28089494766455,0.8867279592208459,Right,Correct,0.0,0.0,-45,45,2012,967,-0.25
"{'cat': 'RB', 'resp': 'reach'}",14,105,Left,35.27319273756358,74.25714635840855,1.7636596368781792,1.1664285273805919,Right,Incorrect,0.0,0.0,-45,45,2003,584,-0.19
"{'cat': 'RB', 'resp': 'reach'}",14,106,Right,57.732000109156694,35.012633073567876,2.8866000054578347,0.5499771542337792,Left,Incorrect,0.0,0.0,-45,45,2012,588,-2.26
"{'cat': 'RB', 'resp': 'reach'}",14,107,Right,67.02984977112392,75.27357133807138,3.351492488556196,1.1823944936257613,Right,Correct,0.0,0.0,-45,45,2004,454,-0.22
"{'cat': 'RB', 'resp': 'reach'}",14,108,Right,55.64970171545244,55.94934879296467,2.782485085772622,0.8788503157055538,Right,Correct,0.0,0.0,-45,45,2012,567,-0.28
"{'cat': 'RB', 'resp': 'reach'}",14,109,Left,35.58983003319282,46.787453126220875,1.7794915016596409,0.7349355951075615,Right,Incorrect,0.0,0.0,-45,45,2004,542,-0.34
"{'cat': 'RB', 'resp': 'reach'}",14,110,Right,62.673391832111186,49.086245310846806,3.1336695916055595,0.771044938304314,Left,Incorrect,0.0,0.0,-45,45,2008,533,-2.19
"{'cat': 'RB', 'resp': 'reach'}",14,111,Right,55.62374075134261,19.021779752736954,2.7811870375671304,0.29879341764700745,Right,Correct,0.0,0.0,-45,45,2004,1071,-0.36
"{'cat': 'RB', 'resp': 'reach'}",14,112,Left,33.617700021598324,65.14066706113802,1.6808850010799161,1.0232272054460492,Right,Incorrect,0.0,0.0,-45,45,2004,1004,-0.34
"{'cat': 'RB', 'resp': 'reach'}",14,113,Right,59.00736105684527,10.390441289397863,2.9503680528422636,0.1632126701116419,Left,Incorrect,0.0,0.0,-45,45,2004,733,-2.22
"{'cat': 'RB', 'resp': 'reach'}",14,114,Right,65.73429616930858,33.02559843677553,3.2867148084654287,0.5187648871469028,Right,Correct,0.0,0.0,-45,45,2008,1521,-0.25
"{'cat': 'RB', 'resp': 'reach'}",14,115,Right,54.87671405065368,51.008754144217846,2.7438357025326843,0.8012436364412135,Right,Correct,0.0,0.0,-45,45,2012,617,-0.31
"{'cat': 'RB', 'resp': 'reach'}",14,116,Right,58.19585385647362,44.04325130788047,2.9097926928236806,0.6918297737452317,Left,Incorrect,0.0,0.0,-45,45,2004,592,-2.23
"{'cat': 'RB', 'resp': 'reach'}",14,117,Right,64.95665011357326,22.320157986194978,3.2478325056786628,0.3506042217819685,Right,Correct,0.0,0.0,-45,45,2004,937,-0.39
"{'cat': 'RB', 'resp': 'reach'}",14,118,Left,38.52484655279738,87.01592719019443,1.926242327639869,1.3668429880300959,Right,Incorrect,0.0,0.0,-45,45,2004,596,-0.27
"{'cat': 'RB', 'resp': 'reach'}",14,119,Right,66.42295468350555,40.42878499541956,3.3211477341752778,0.6350538696758568,Left,Incorrect,0.0,0.0,-45,45,2008,571,-2.29
"{'cat': 'RB', 'resp': 'reach'}",14,120,Right,66.16261626231672,30.844585714784643,3.308130813115836,0.48450561942294057,Left,Incorrect,0.0,0.0,-45,45,2016,550,-2.39
"{'cat': 'RB', 'resp': 'reach'}",14,121,Left,37.22138247735972,74.89632122040504,1.861069123867986,1.176468662634629,Right,Incorrect,0.0,0.0,-45,45,2012,588,-0.44
"{'cat': 'RB', 'resp': 'reach'}",14,122,Left,34.3067337122672,82.62256751083618,1.71533668561336,1.2978322555638482,Right,Incorrect,0.0,0.0,-45,45,2009,533,-0.42
"{'cat': 'RB', 'resp': 'reach'}",14,123,Right,59.77748980001884,29.96986961261208,2.988874490000942,0.47076561102013037,Right,Correct,0.0,0.0,-45,45,2008,704,-1.07
"{'cat': 'RB', 'resp': 'reach'}",14,124,Right,52.61684784001956,67.53775789052655,2.630842392000978,1.0608806201440215,Left,Incorrect,0.0,0.0,-45,45,2009,500,-2.31
"{'cat': 'RB', 'resp': 'reach'}",14,125,Right,55.650568056885966,63.36274404126505,2.7825284028442985,0.9952996559566436,Right,Correct,0.0,0.0,-45,45,2008,500,-0.25
"{'cat': 'RB', 'resp': 'reach'}",14,126,Right,61.976684244272555,66.23729635811628,3.0988342122136276,1.0404530181615403,Right,Correct,0.0,0.0,-45,45,2004,484,-0.23
"{'cat': 'RB', 'resp': 'reach'}",14,127,Left,42.60532679433941,19.518839554967233,2.1302663397169708,0.30660121476241464,Right,Incorrect,0.0,0.0,-45,45,2004,484,-0.22
"{'cat': 'RB', 'resp': 'reach'}",14,128,Right,58.693464160404595,52.85279540186601,2.93467320802023,0.8302097687809333,Left,Incorrect,0.0,0.0,-45,45,2004,591,-2.06
"{'cat': 'RB', 'resp': 'reach'}",14,129,Left,49.36148500769091,46.09600864090518,2.468074250384545,0.7240744105303967,Right,Incorrect,0.0,0.0,-45,45,2017,704,-0.18
"{'cat': 'RB', 'resp': 'reach'}",14,130,Right,60.17363332432988,21.32015667995412,3.0086816662164937,0.33489623799563606,Right,Correct,0.0,0.0,-45,45,2004,1454,-0.23
"{'cat': 'RB', 'resp': 'reach'}",14,131,Left,36.614187073761315,56.04378054049585,1.8307093536880656,0.8803336461271019,Right,Incorrect,0.0,0.0,-45,45,2016,763,-0.21
"{'cat': 'RB', 'resp': 'reach'}",14,132,Right,65.8831296485961,64.54149908732381,3.2941564824298046,1.0138154969220443,Left,Incorrect,0.0,0.0,-45,45,2004,604,-2.27
"{'cat': 'RB', 'resp': 'reach'}",14,133,Left,32.67858179384536,44.233854384666216,1.633929089692268,0.6948237598741401,Right,Incorrect,0.0,0.0,-45,45,2004,604,-0.17
"{'cat': 'RB', 'resp': 'reach'}",14,134,Right,63.91294819189564,34.74632682373441,3.1956474095947818,0.5457940254433699,Right,Correct,0.0,0.0,-45,45,2004,625,-0.27
"{'cat': 'RB', 'resp': 'reach'}",14,135,Left,35.88857625549562,66.06098062016619,1.7944288127747812,1.0376834570262592,Right,Incorrect,0.0,0.0,-45,45,2012,617,-0.32
"{'cat': 'RB', 'resp': 'reach'}",14,136,Right,65.10562039981315,22.975908343129447,3.255281019990657,0.3609047243016396,Right,Correct,0.0,0.0,-45,45,2004,917,-1.54
"{'cat': 'RB', 'resp': 'reach'}",14,137,Left,39.87477522518935,69.80986571429958,1.9937387612594677,1.0965708063806676,Right,Incorrect,0.0,0.0,-45,45,2004,521,-0.19
"{'cat': 'RB', 'resp': 'reach'}",14,138,Left,42.27393970607025,80.14803235749159,2.1136969853035126,1.258962348269863,Right,Incorrect,0.0,0.0,-45,45,2008,605,-0.13
"{'cat': 'RB', 'resp': 'reach'}",14,139,Right,57.769699502017495,85.35237080713551,2.8884849751008748,1.3407119054708443,Right,Correct,0.0,0.0,-45,45,2004,625,-0.15
"{'cat': 'RB', 'resp': 'reach'}",14,140,Left,34.388894916195746,24.877022838046603,1.7194447458097872,0.3907673609559636,Left,Correct,0.0,0.0,-45,45,2004,917,-2.2
"{'cat': 'RB', 'resp': 'reach'}",14,141,Right,55.796848816406566,18.562812502660215,2.7898424408203284,0.2915839769416104,Right,Correct,0.0,0.0,-45,45,2004,779,-0.28
"{'cat': 'RB', 'resp': 'reach'}",14,142,Right,54.68952038735775,58.71132060331966,2.7344760193678876,0.9222352674497205,Left,Incorrect,0.0,0.0,-45,45,2017,583,-2.43
"{'cat': 'RB', 'resp': 'reach'}",14,143,Right,63.04154784160234,17.802125771513047,3.1520773920801166,0.2796351377103346,Left,Incorrect,0.0,0.0,-45,45,2009,1108,-2.26
"{'cat': 'RB', 'resp': 'reach'}",14,144,Right,63.49839347082013,72.01689630135314,3.1749196735410066,1.1312387617733448,Right,Correct,0.0,0.0,-45,45,2008,563,-0.32
"{'cat': 'RB', 'resp': 'reach'}",14,145,Left,45.17855563898139,23.01204113297645,2.2589277819490694,0.3614722968373248,Right,Incorrect,0.0,0.0,-45,45,2004,642,-0.2
"{'cat': 'RB', 'resp': 'reach'}",14,146,Left,47.49377061488258,42.190881339828906,2.374688530744129,0.6627328143284259,Right,Incorrect,0.0,0.0,-45,45,2004,625,-0.27
"{'cat': 'RB', 'resp': 'reach'}",14,147,Right,58.56114058376245,53.62191377672947,2.9280570291881225,0.8422910519619933,Left,Incorrect,0.0,0.0,-45,45,2004,1966,-2.16
"{'cat': 'RB', 'resp': 'reach'}",14,148,Left,42.65630778798711,11.160046152735895,2.1328153893993558,0.1753015950357906,Left,Correct,0.0,0.0,-45,45,2008,692,-2.21
"{'cat': 'RB', 'resp': 'reach'}",14,149,Right,63.30192456547861,88.17589675741638,3.1650962282739306,1.3850637473839569,Right,Correct,0.0,0.0,-45,45,2004,612,-0.16
"{'cat': 'RB', 'resp': 'reach'}",14,150,Left,43.40687994268253,52.134589229801165,2.1703439971341267,0.8189282126113244,Right,Incorrect,0.0,0.0,-45,45,2004,1021,-0.22
"{'cat': 'RB', 'resp': 'reach'}",14,151,Left,47.78624816028971,51.79938245468136,2.3893124080144856,0.813662796900575,Left,Correct,0.0,0.0,-45,45,2004,654,-2.26
"{'cat': 'RB', 'resp': 'reach'}",14,152,Left,41.01962031766131,14.29304791413059,2.0509810158830653,0.22451467162219785,Left,Correct,0.0,0.0,-45,45,2004,538,-2.37
"{'cat': 'RB', 'resp': 'reach'}",14,153,Left,38.797092176776154,28.75971368725151,1.9398546088388076,0.45175652619607576,Right,Incorrect,0.0,0.0,-45,45,2004,454,-0.23
"{'cat': 'RB', 'resp': 'reach'}",14,154,Right,54.55812824460923,68.24906152197065,2.7279064122304613,1.072053751459104,Right,Correct,0.0,0.0,-45,45,2012,517,-0.12
"{'cat': 'RB', 'resp': 'reach'}",14,155,Right,68.91629379830395,41.2695787874036,3.445814689915198,0.6482610276762617,Right,Correct,0.0,0.0,-45,45,2004,946,-0.24
"{'cat': 'RB', 'resp': 'reach'}",14,156,Right,58.69886635061869,63.719474116018866,2.9349433175309345,1.0009031588674493,Left,Incorrect,0.0,0.0,-45,45,2004,988,-2.33
"{'cat': 'RB', 'resp': 'reach'}",14,157,Right,59.51704238095051,48.96060149200391,2.9758521190475253,0.7690713298130848,Right,Correct,0.0,0.0,-45,45,2004,554,-0.16
"{'cat': 'RB', 'resp': 'reach'}",14,158,Left,40.6919687685673,32.91740649453381,2.034598438428365,0.5170654120922817,Right,Incorrect,0.0,0.0,-45,45,2013,687,-0.25
"{'cat': 'RB', 'resp': 'reach'}",14,159,Right,59.5321912852111,14.694108003634575,2.9766095642605546,0.23081450877636683,Right,Correct,0.0,0.0,-45,45,2004,759,-0.19
"{'cat': 'RB', 'resp': 'reach'}",14,160,Left,37.53765541092125,14.84237617872941,1.8768827705460627,0.2331434998245623,Right,Incorrect,0.0,0.0,-45,45,2017,675,-0.37
"{'cat': 'RB', 'resp': 'reach'}",14,161,Right,57.32187763669761,86.23992627906861,2.86609388183488,1.3546535942222366,Left,Incorrect,0.0,0.0,-45,45,2012,1059,-2.19
"{'cat': 'RB', 'resp': 'reach'}",14,162,Right,65.8280394356705,81.67039961165821,3.2914019717835252,1.282875637178641,Right,Correct,0.0,0.0,-45,45,2004,2541,-0.2
"{'cat': 'RB', 'resp': 'reach'}",14,163,Right,51.346216831297625,56.00947091049797,2.5673108415648813,0.8797947117193582,Left,Incorrect,0.0,0.0,-45,45,2004,1158,-2.06
"{'cat': 'RB', 'resp': 'reach'}",14,164,Right,64.44694310767494,47.33033381474065,3.222347155383747,0.7434631450217088,Right,Correct,0.0,0.0,-45,45,2008,521,-0.2
"{'cat': 'RB', 'resp': 'reach'}",14,165,Right,53.46932694330262,58.34659532958609,2.673466347165131,0.9165061762470208,Right,Correct,0.0,0.0,-45,45,2012,604,-0.27
"{'cat': 'RB', 'resp': 'reach'}",14,166,Left,48.29513787650206,42.560319655560804,2.414756893825103,0.6685359378217154,Right,Incorrect,0.0,0.0,-45,45,2004,496,-0.21
"{'cat': 'RB', 'resp': 'reach'}",14,167,Left,35.96148249622572,14.947426455425685,1.7980741248112861,0.23479362571219525,Right,Incorrect,0.0,0.0,-45,45,2017,533,-0.22
"{'cat': 'RB', 'resp': 'reach'}",14,168,Left,37.38816840298118,71.97621364572663,1.869408420149059,1.1305997201131213,Left,Correct,0.0,0.0,-45,45,2004,896,-2.0
"{'cat': 'RB', 'resp': 'reach'}",14,169,Left,45.02103697018927,73.15762370355799,2.2510518485094635,1.1491572659059215,Right,Incorrect,0.0,0.0,-45,45,2017,604,-0.25
"{'cat': 'RB', 'resp': 'reach'}",14,170,Left,33.32550991457184,30.38581721172625,1.6662754957285921,0.47729930062840736,Left,Correct,0.0,0.0,-45,45,2004,867,-2.07
"{'cat': 'RB', 'resp': 'reach'}",14,171,Left,38.063160195262164,89.06459844375902,1.903158009763108,1.3990234408291913,Right,Incorrect,0.0,0.0,-45,45,2004,3446,-0.22
"{'cat': 'RB', 'resp': 'reach'}",14,172,Left,39.11784952325111,13.908313859290054,1.9558924761625553,0.2184712832208337,Right,Incorrect,0.0,0.0,-45,45,2012,709,-0.3
"{'cat': 'RB', 'resp': 'reach'}",14,173,Left,45.20874748495253,55.63524146105284,2.2604373742476267,0.8739163292736893,Right,Incorrect,0.0,0.0,-45,45,2004,979,-0.18
"{'cat': 'RB', 'resp': 'reach'}",14,174,Right,54.593459910857035,25.3248605489908,2.729672995542852,0.3978019792694773,Left,Incorrect,0.0,0.0,-45,45,2005,654,-2.21
"{'cat': 'RB', 'resp': 'reach'}",14,175,Left,36.60533378499435,65.29883868939105,1.8302666892497175,1.0257117595726795,Right,Incorrect,0.0,0.0,-45,45,2013,658,-0.21
"{'cat': 'RB', 'resp': 'reach'}",14,176,Left,39.35210896620994,33.0056827109054,1.9676054483104968,0.5184520516564801,Right,Incorrect,0.0,0.0,-45,45,2012,638,-0.2
"{'cat': 'RB', 'resp': 'reach'}",14,177,Left,31.36034883439302,54.84680199355966,1.5680174417196509,0.8615315510793053,Right,Incorrect,0.0,0.0,-45,45,2012,604,-0.23
"{'cat': 'RB', 'resp': 'reach'}",14,178,Left,34.40941149253723,41.07736904495519,1.7204705746268616,0.64524180410214,Left,Correct,0.0,0.0,-45,45,2009,712,-1.95
"{'cat': 'RB', 'resp': 'reach'}",14,179,Right,60.6870770094963,44.27583618480751,3.034353850474815,0.6954832084486819,Right,Correct,0.0,0.0,-45,45,2012,658,-0.28
"{'cat': 'RB', 'resp': 'reach'}",14,180,Right,67.04552367325063,75.43257472342151,3.352276183662531,1.1848921129623207,Right,Correct,0.0,0.0,-45,45,2017,683,-0.16
"{'cat': 'RB', 'resp': 'reach'}",14,181,Right,65.47825318501611,81.72274614689712,3.2739126592508057,1.283697894631378,Left,Incorrect,0.0,0.0,-45,45,2004,675,-2.3
"{'cat': 'RB', 'resp': 'reach'}",14,182,Right,52.68301041954548,43.71203954342764,2.634150520977274,0.686627111515294,Right,Correct,0.0,0.0,-45,45,2008,825,-0.23
"{'cat': 'RB', 'resp': 'reach'}",14,183,Right,60.233332092595234,57.82820671913783,3.0116666046297613,0.9083633469955766,Left,Incorrect,0.0,0.0,-45,45,2008,675,-2.05
"{'cat': 'RB', 'resp': 'reach'}",14,184,Left,45.062046549075546,76.03088540881873,2.253102327453777,1.1942903552313617,Right,Incorrect,0.0,0.0,-45,45,2013,637,-0.21
"{'cat': 'RB', 'resp': 'reach'}",14,185,Right,58.10182428463047,66.99428957260164,2.9050912142315237,1.052343839768763,Right,Correct,0.0,0.0,-45,45,2013,554,-0.19
"{'cat': 'RB', 'resp': 'reach'}",14,186,Left,31.97304033896681,52.97434134847368,1.5986520169483407,0.8321190080456144,Right,Incorrect,0.0,0.0,-45,45,2004,663,-0.29
"{'cat': 'RB', 'resp': 'reach'}",14,187,Left,37.90240718902174,31.913245934294046,1.895120359451087,0.5012920948969126,Left,Correct,0.0,0.0,-45,45,2004,708,-2.02
"{'cat': 'RB', 'resp': 'reach'}",14,188,Left,36.27457437777457,72.67221786414605,1.8137287188887286,1.1415325288103908,Left,Correct,0.0,0.0,-45,45,2004,767,-2.27
"{'cat': 'RB', 'resp': 'reach'}",14,189,Left,33.68450832486665,65.26868364782284,1.6842254162433323,1.0252380852873826,Left,Correct,0.0,0.0,-45,45,2009,704,-2.32
"{'cat': 'RB', 'resp': 'reach'}",14,190,Right,58.81695499334194,79.21110702681678,2.940847749667097,1.2442451595908122,Left,Incorrect,0.0,0.0,-45,45,2008,604,-2.33
"{'cat': 'RB', 'resp': 'reach'}",14,191,Right,63.953422441534784,52.78019200642544,3.197671122076739,0.8290693173122243,Right,Correct,0.0,0.0,-45,45,2004,592,-0.31
"{'cat': 'RB', 'resp': 'reach'}",14,192,Left,31.755134271375233,43.965539669082766,1.5877567135687616,0.6906090821775053,Left,Correct,0.0,0.0,-45,45,2012,596,-2.28
"{'cat': 'RB', 'resp': 'reach'}",14,193,Right,52.83590089665328,53.549906639444075,2.641795044832664,0.841159966494484,Left,Incorrect,0.0,0.0,-45,45,2004,687,-2.35
"{'cat': 'RB', 'resp': 'reach'}",14,194,Left,31.77288374591399,70.05565876187927,1.5886441872956996,1.100431714543567,Right,Incorrect,0.0,0.0,-45,45,2004,625,-0.26
"{'cat': 'RB', 'resp': 'reach'}",14,195,Left,47.571537743500386,55.73863496512735,2.3785768871750195,0.8755404306378364,Left,Correct,0.0,0.0,-45,45,2004,642,-2.21
"{'cat': 'RB', 'resp': 'reach'}",14,196,Right,52.67869983990718,58.91677077017721,2.6339349919953587,0.9254624711241128,Left,Incorrect,0.0,0.0,-45,45,2017,571,-2.29
"{'cat': 'RB', 'resp': 'reach'}",14,197,Left,36.57486035603005,59.08819990499584,1.8287430178015027,0.9281552736769002,Right,Incorrect,0.0,0.0,-45,45,2013,654,-0.28
"{'cat': 'RB', 'resp': 'reach'}",14,198,Left,41.226492731725926,89.69255527210925,2.0613246365862965,1.4088873636227743,Right,Incorrect,0.0,0.0,-45,45,2004,1146,-0.4
"{'cat': 'RB', 'resp': 'reach'}",14,199,Left,34.76207051701509,27.82090694160572,1.7381035258507547,0.43700978431976906,Right,Incorrect,0.0,0.0,-45,45,2004,712,-0.3
"{'cat': 'RB', 'resp': 'reach'}",14,200,Left,43.70175651715645,57.361495270801576,2.1850878258578224,0.9010322607083795,Left,Correct,0.0,0.0,-45,45,2016,796,-2.34
"{'cat': 'RB', 'resp': 'reach'}",14,201,Right,60.981855137991204,45.90471483642332,3.0490927568995603,0.7210695744762093,Right,Correct,0.0,0.0,-45,45,2012,708,-0.45
"{'cat': 'RB', 'resp': 'reach'}",14,202,Left,39.97995131952952,15.66397575014377,1.9989975659764758,0.24604915571330166,Right,Incorrect,0.0,0.0,-45,45,2004,896,-0.26
"{'cat': 'RB', 'resp': 'reach'}",14,203,Right,58.842338483823,63.52215954442279,2.9421169241911502,0.997803748824587,Left,Incorrect,0.0,0.0,-45,45,2012,617,-2.14
"{'cat': 'RB', 'resp': 'reach'}",14,204,Right,60.668510289960246,73.82819592918926,3.0334255144980125,1.1596905897946443,Right,Correct,0.0,0.0,-45,45,2004,484,-0.18
"{'cat': 'RB', 'resp': 'reach'}",14,205,Left,43.27619939365384,82.93751317697232,2.163809969682692,1.3027794105189145,Right,Incorrect,0.0,0.0,-45,45,2004,625,-0.36
"{'cat': 'RB', 'resp': 'reach'}",14,206,Left,40.371985127066736,61.49425314048017,2.018599256353337,0.9659494695206179,Right,Incorrect,0.0,0.0,-45,45,2008,783,-0.27
"{'cat': 'RB', 'resp': 'reach'}",14,207,Right,57.668759969343185,41.23439263346737,2.883437998467159,0.647708324862691,Left,Incorrect,0.0,0.0,-45,45,2004,638,-2.15
"{'cat': 'RB', 'resp': 'reach'}",14,208,Right,50.81134849375725,58.859915949687434,2.5405674246878625,0.9245693976922537,Right,Correct,0.0,0.0,-45,45,2007,705,-0.42
"{'cat': 'RB', 'resp': 'reach'}",14,209,Left,38.24323624759582,10.8827115371176,1.9121618123797908,0.1709452330807277,Left,Correct,0.0,0.0,-45,45,2004,746,-2.05
"{'cat': 'RB', 'resp': 'reach'}",14,210,Left,35.5993060697339,46.53195991940076,1.779965303486695,0.7309223171996208,Right,Incorrect,0.0,0.0,-45,45,2004,595,-0.27
"{'cat': 'RB', 'resp': 'reach'}",14,211,Left,34.56085950248541,17.30164201882723,1.7280429751242705,0.2717735573069405,Right,Incorrect,0.0,0.0,-45,45,2004,609,-0.31
"{'cat': 'RB', 'resp': 'reach'}",14,212,Right,62.490415072824305,60.71007637367285,3.124520753641215,0.9536316496720294,Left,Incorrect,0.0,0.0,-45,45,2004,595,-2.33
"{'cat': 'RB', 'resp': 'reach'}",14,213,Right,62.95778881282795,60.38336841281505,3.1478894406413973,0.9484997330235286,Right,Correct,0.0,0.0,-45,45,2004,987,-0.26
"{'cat': 'RB', 'resp': 'reach'}",14,214,Left,34.75565784573349,58.42701821895187,1.7377828922866743,0.9177694560390809,Right,Incorrect,0.0,0.0,-45,45,2013,1029,-0.34
"{'cat': 'RB', 'resp': 'reach'}",14,215,Right,52.40501796247403,30.232288471015124,2.6202508981237016,0.4748876768087426,Left,Incorrect,0.0,0.0,-45,45,2004,625,-2.22
"{'cat': 'RB', 'resp': 'reach'}",14,216,Left,48.429681006063035,47.360435428998954,2.421484050303152,0.7439359800727843,Right,Incorrect,0.0,0.0,-45,45,2012,850,-0.42
"{'cat': 'RB', 'resp': 'reach'}",14,217,Right,63.39364423562066,76.49909792386897,3.169682211781033,1.2016450202193647,Right,Correct,0.0,0.0,-45,45,2008,775,-0.35
"{'cat': 'RB', 'resp': 'reach'}",14,218,Left,38.983770619489015,80.56158419929945,1.9491885309744506,1.2654584054103735,Right,Incorrect,0.0,0.0,-45,45,2008,763,-0.17
"{'cat': 'RB', 'resp': 'reach'}",14,219,Left,36.947464889851005,15.6353828405501,1.8473732444925504,0.24560001933968054,Left,Correct,0.0,0.0,-45,45,2004,738,-2.08
"{'cat': 'RB', 'resp': 'reach'}",14,220,Left,42.10692920948415,27.428021406701525,2.1053464604742076,0.43083835276898547,Right,Incorrect,0.0,0.0,-45,45,2005,537,-0.38
"{'cat': 'RB', 'resp': 'reach'}",14,221,Left,37.409178224631994,67.98458881444779,1.8704589112315997,1.0678994238839599,Left,Correct,0.0,0.0,-45,45,2008,575,-2.3
"{'cat': 'RB', 'resp': 'reach'}",14,222,Left,34.18337733778727,76.15380430251487,1.7091688668893636,1.1962211606984774,Right,Incorrect,0.0,0.0,-45,45,2004,605,-0.24
"{'cat': 'RB', 'resp': 'reach'}",14,223,Left,42.17747315165855,37.78768558130091,2.1088736575829277,0.5935675770918796,Right,Incorrect,0.0,0.0,-45,45,2009,533,-0.24
"{'cat': 'RB', 'resp': 'reach'}",14,224,Left,45.136373497574304,61.10901494570069,2.256818674878715,0.9598981621076108,Right,Incorrect,0.0,0.0,-45,45,2017,825,-0.2
"{'cat': 'RB', 'resp': 'reach'}",14,225,Left,48.458962458454856,62.49611954244397,2.422948122922743,0.9816867501620575,Left,Correct,0.0,0.0,-45,45,2012,588,-2.23
"{'cat': 'RB', 'resp': 'reach'}",14,226,Right,61.10184781046386,44.81659347690216,3.055092390523193,0.7039774041297804,Right,Correct,0.0,0.0,-45,45,2017,1137,-0.22
"{'cat': 'RB', 'resp': 'reach'}",14,227,Right,51.94116764664251,41.55590172875489,2.5970583823321256,0.6527585779217788,Right,Correct,0.0,0.0,-45,45,2004,604,-0.27
"{'cat': 'RB', 'resp': 'reach'}",14,228,Left,35.41092941508632,25.147480863138885,1.770546470754316,0.3950157056796351,Right,Incorrect,0.0,0.0,-45,45,2008,938,-0.39
"{'cat': 'RB', 'resp': 'reach'}",14,229,Right,67.12982166741818,57.00986775555811,3.3564910833709094,0.895508908614935,Left,Incorrect,0.0,0.0,-45,45,2004,604,-2.27
"{'cat': 'RB', 'resp': 'reach'}",14,230,Right,66.27584987351574,23.759027592148286,3.313792493675787,0.37320593269965124,Right,Correct,0.0,0.0,-45,45,2004,525,-0.42
"{'cat': 'RB', 'resp': 'reach'}",14,231,Right,51.47576147579562,40.65602816289304,2.573788073789781,0.6386233970034224,Right,Correct,0.0,0.0,-45,45,2012,2734,-0.3
"{'cat': 'RB', 'resp': 'reach'}",14,232,Left,33.22344199722018,67.0972543687173,1.6611720998610087,1.0539612070040396,Left,Correct,0.0,0.0,-45,45,2013,587,-2.12
"{'cat': 'RB', 'resp': 'reach'}",14,233,Right,59.82212544469567,28.253402527948726,2.9911062722347834,0.443803409103595,Right,Correct,0.0,0.0,-45,45,2004,576,-0.16
"{'cat': 'RB', 'resp': 'reach'}",14,234,Right,64.4722857378033,43.19815728753612,3.2236142868901654,0.6785550679156993,Right,Correct,0.0,0.0,-45,45,2008,500,-0.15
"{'cat': 'RB', 'resp': 'reach'}",14,235,Right,63.580846081733675,63.55200774849351,3.1790423040866838,0.9982726033177441,Right,Correct,0.0,0.0,-45,45,2004,434,-0.31
"{'cat': 'RB', 'resp': 'reach'}",14,236,Right,61.94513975401439,15.691972010084186,3.0972569877007197,0.2464889199360857,Left,Incorrect,0.0,0.0,-45,45,2004,584,-2.18
"{'cat': 'RB', 'resp': 'reach'}",14,237,Left,43.753241391261525,78.79950533438071,2.187662069563076,1.2377797353250009,Right,Incorrect,0.0,0.0,-45,45,2004,684,-0.24
"{'cat': 'RB', 'resp': 'reach'}",14,238,Left,44.92142107584405,65.63262813389183,2.2460710537922024,1.0309549119061268,Left,Correct,0.0,0.0,-45,45,2017,521,-2.27
"{'cat': 'RB', 'resp': 'reach'}",14,239,Right,63.440529602814394,71.96330436024977,3.17202648014072,1.1303969415310349,Left,Incorrect,0.0,0.0,-45,45,2004,604,-2.14
"{'cat': 'RB', 'resp': 'reach'}",14,240,Left,43.390720330312234,53.66150401510624,2.169536016515612,0.8429129339721848,Right,Incorrect,0.0,0.0,-45,45,2004,595,-0.22
"{'cat': 'RB', 'resp': 'reach'}",14,241,Right,66.69026370094278,48.8662404179123,3.334513185047139,0.7675891095273296,Right,Correct,0.0,0.0,-45,45,2004,567,-0.32
"{'cat': 'RB', 'resp': 'reach'}",14,242,Right,68.79364065655889,52.764671694233954,3.4396820328279443,0.8288255248184135,Right,Correct,0.0,0.0,-45,45,2004,525,-0.29
"{'cat': 'RB', 'resp': 'reach'}",14,243,Right,66.20589321367973,26.190566889281477,3.310294660683986,0.4114004626635938,Right,Correct,0.0,0.0,-45,45,2017,691,-0.32
"{'cat': 'RB', 'resp': 'reach'}",14,244,Right,57.75139834714232,24.21789940628485,2.887569917357116,0.3804138743008055,Right,Correct,0.0,0.0,-45,45,2016,484,-0.26
"{'cat': 'RB', 'resp': 'reach'}",14,245,Right,66.79925811002127,28.397970577988023,3.3399629055010633,0.44607427872333133,Right,Correct,0.0,0.0,-45,45,2017,500,-0.2
"{'cat': 'RB', 'resp': 'reach'}",14,246,Left,42.86084525940632,61.59007027822086,2.143042262970316,0.9674545616006885,Right,Incorrect,0.0,0.0,-45,45,2004,554,-0.2
"{'cat': 'RB', 'resp': 'reach'}",14,247,Right,64.72280112569429,56.71247763014387,3.2361400562847145,0.8908375154486774,Left,Incorrect,0.0,0.0,-45,45,2017,612,-1.87
"{'cat': 'RB', 'resp': 'reach'}",14,248,Right,54.811622747422575,51.59997074564639,2.740581137371129,0.8105304450998547,Right,Correct,0.0,0.0,-45,45,2009,1679,-0.26
"{'cat': 'RB', 'resp': 'reach'}",14,249,Right,63.455921573536074,61.89018048246449,3.172796078676804,0.9721686816652843,Left,Incorrect,0.0,0.0,-45,45,2012,2842,-2.11
"{'cat': 'RB', 'resp': 'reach'}",14,250,Left,35.098181058715454,70.78920283331477,1.7549090529357727,1.1119541978730973,Right,Incorrect,0.0,0.0,-45,45,2004,483,-0.21
"{'cat': 'RB', 'resp': 'reach'}",14,251,Right,59.66513456866752,17.78408221412208,2.983256728433376,0.27935171017361415,Right,Correct,0.0,0.0,-45,45,2004,516,-0.23
"{'cat': 'RB', 'resp': 'reach'}",14,252,Left,43.160776365537075,35.9597507042711,2.1580388182768537,0.5648544431872925,Right,Incorrect,0.0,0.0,-45,45,2016,3029,-0.35
"{'cat': 'RB', 'resp': 'reach'}",14,253,Right,64.59882827476241,78.76829912717486,3.2299414137381204,1.2372895493684792,Right,Correct,0.0,0.0,-45,45,2004,517,-0.21
"{'cat': 'RB', 'resp': 'reach'}",14,254,Right,66.20621901066535,64.92535849444772,3.3103109505332675,1.0198451463892033,Right,Correct,0.0,0.0,-45,45,2004,638,-0.21
"{'cat': 'RB', 'resp': 'reach'}",14,255,Left,35.007879312656996,75.9302014001025,1.7503939656328498,1.1927088145207774,Right,Incorrect,0.0,0.0,-45,45,2004,575,-0.18
"{'cat': 'RB', 'resp': 'reach'}",14,256,Right,55.2504054752599,72.83701089670022,2.7625202737629952,1.1441210917125657,Right,Correct,0.0,0.0,-45,45,2004,533,-0.27
"{'cat': 'RB', 'resp': 'reach'}",14,257,Right,53.89396688063492,40.40195224746272,2.694698344031746,0.6346323818565724,Left,Incorrect,0.0,0.0,-45,45,2008,571,-2.26
"{'cat': 'RB', 'resp': 'reach'}",14,258,Left,38.40651694437872,81.44100178200016,1.9203258472189362,1.2792722644966248,Right,Incorrect,0.0,0.0,-45,45,2008,500,-0.17
"{'cat': 'RB', 'resp': 'reach'}",14,259,Left,48.72111570216242,41.62777510371102,2.4360557851081213,0.6538875622555332,Right,Incorrect,0.0,0.0,-45,45,2016,483,-0.2
"{'cat': 'RB', 'resp': 'reach'}",14,260,Left,48.522427140573676,46.41561647647955,2.4261213570286837,0.7290947986717475,Right,Incorrect,0.0,0.0,-45,45,2004,1834,-0.39
"{'cat': 'RB', 'resp': 'reach'}",14,261,Right,64.14808195509895,65.82901753237415,3.2074040977549476,1.0340397893637017,Left,Incorrect,0.0,0.0,-45,45,2004,575,-2.27
"{'cat': 'RB', 'resp': 'reach'}",14,262,Left,35.19238560758018,65.84388324405604,1.759619280379009,1.0342732994167527,Right,Incorrect,0.0,0.0,-45,45,2017,787,-0.27
"{'cat': 'RB', 'resp': 'reach'}",14,263,Right,56.09792067673847,78.79315434770189,2.8048960338369233,1.2376799742595344,Right,Correct,0.0,0.0,-45,45,2013,696,-0.38
"{'cat': 'RB', 'resp': 'reach'}",14,264,Left,38.971335792593656,46.43344913927892,1.948566789629683,0.7293749134839698,Right,Incorrect,0.0,0.0,-45,45,2008,571,-0.24
"{'cat': 'RB', 'resp': 'reach'}",14,265,Left,35.54809415486142,42.28995111894678,1.7774047077430708,0.6642889987797733,Right,Incorrect,0.0,0.0,-45,45,2008,604,-0.19
"{'cat': 'RB', 'resp': 'reach'}",14,266,Left,41.969940638974,43.207875935762885,2.0984970319487,0.6787077280850595,Right,Incorrect,0.0,0.0,-45,45,2017,621,-0.33
"{'cat': 'RB', 'resp': 'reach'}",14,267,Left,36.71913240833742,79.82467969311166,1.8359566204168711,1.2538831364951895,Left,Correct,0.0,0.0,-45,45,2005,625,-2.1
"{'cat': 'RB', 'resp': 'reach'}",14,268,Right,53.839743780939166,60.70422839276885,2.6919871890469587,0.9535397898027977,Right,Correct,0.0,0.0,-45,45,2017,925,-0.1
"{'cat': 'RB', 'resp': 'reach'}",14,269,Left,47.9749682560111,66.86989699240523,2.398748412800555,1.0503898856882323,Right,Incorrect,0.0,0.0,-45,45,2004,646,-0.18
"{'cat': 'RB', 'resp': 'reach'}",14,270,Left,46.14827730713931,67.72966279647115,2.3074138653569656,1.0638950553575384,Left,Correct,0.0,0.0,-45,45,2004,717,-2.36
"{'cat': 'RB', 'resp': 'reach'}",14,271,Right,50.9378811538371,57.397779391376126,2.546894057691855,0.9016022103415744,Right,Correct,0.0,0.0,-45,45,2004,659,-0.2
"{'cat': 'RB', 'resp': 'reach'}",14,272,Right,63.498692356875694,19.418436150668633,3.174934617843785,0.30502408177571516,Left,Incorrect,0.0,0.0,-45,45,2009,896,-2.39
"{'cat': 'RB', 'resp': 'reach'}",14,273,Left,47.375018466576705,38.98915521196349,2.368750923328835,0.6124402179178835,Right,Incorrect,0.0,0.0,-45,45,2005,612,-0.3
"{'cat': 'RB', 'resp': 'reach'}",14,274,Right,57.720311053640145,12.10409685042761,2.8860155526820073,0.19013070871821366,Left,Incorrect,0.0,0.0,-45,45,2004,604,-2.16
"{'cat': 'RB', 'resp': 'reach'}",14,275,Left,32.67321301434893,70.91787228486164,1.6336606507174465,1.1139753328917026,Right,Incorrect,0.0,0.0,-45,45,2009,583,-0.21
"{'cat': 'RB', 'resp': 'reach'}",14,276,Left,41.37530613628906,70.94721917846155,2.068765306814453,1.1144363128183985,Right,Incorrect,0.0,0.0,-45,45,2004,575,-0.2
"{'cat': 'RB', 'resp': 'reach'}",14,277,Left,46.373759093500325,79.64117918624382,2.318687954675016,1.2510007172736597,Right,Incorrect,0.0,0.0,-45,45,2017,554,-0.22
"{'cat': 'RB', 'resp': 'reach'}",14,278,Right,58.85626127674049,53.000214186400854,2.9428130638370242,0.8325254176334123,Right,Correct,0.0,0.0,-45,45,2004,1071,-0.3
"{'cat': 'RB', 'resp': 'reach'}",14,279,Left,39.44082345015118,34.26900490135807,1.972041172507559,0.5382962702196956,Right,Incorrect,0.0,0.0,-45,45,2004,1108,-0.36
"{'cat': 'RB', 'resp': 'reach'}",14,280,Left,47.85877543339971,39.71679073716274,2.3929387716699853,0.623869890020168,Right,Incorrect,0.0,0.0,-45,45,2004,1662,-0.25
"{'cat': 'RB', 'resp': 'reach'}",14,281,Right,67.1489624428537,68.07234581223831,3.357448122142685,1.069277907581759,Right,Correct,0.0,0.0,-45,45,2017,875,-0.31
"{'cat': 'RB', 'resp': 'reach'}",14,282,Right,64.60370796363509,74.89354988149859,3.2301853981817543,1.1764251305448834,Right,Correct,0.0,0.0,-45,45,2004,1059,-0.34
"{'cat': 'RB', 'resp': 'reach'}",14,283,Left,32.87544050056557,60.36897324091111,1.6437720250282783,0.9482736141920256,Right,Incorrect,0.0,0.0,-45,45,2004,1179,-0.27
"{'cat': 'RB', 'resp': 'reach'}",14,284,Right,59.571007736640176,80.58006182379769,2.9785503868320085,1.2657486512572709,Left,Incorrect,0.0,0.0,-45,45,2012,417,-2.2
"{'cat': 'RB', 'resp': 'reach'}",14,285,Right,65.91363697808644,52.2071200752031,3.2956818489043225,0.8200675244666913,Right,Correct,0.0,0.0,-45,45,2005,2700,-0.39
"{'cat': 'RB', 'resp': 'reach'}",14,286,Left,45.293498277861005,72.68035177526139,2.2646749138930504,1.1416602959874151,Right,Incorrect,0.0,0.0,-45,45,2004,846,-0.44
"{'cat': 'RB', 'resp': 'reach'}",14,287,Right,61.58326026305458,51.4492288532781,3.079163013152729,0.8081625969915925,Right,Correct,0.0,0.0,-45,45,2013,537,-0.2
"{'cat': 'RB', 'resp': 'reach'}",14,288,Right,64.86928449043596,17.198934427150178,3.243464224521798,0.2701602302295379,Right,Correct,0.0,0.0,-45,45,2004,625,-0.28
"{'cat': 'RB', 'resp': 'reach'}",14,289,Left,38.35893284969918,77.1720598568058,1.9179466424849592,1.2122158815426645,Left,Correct,0.0,0.0,-45,45,2004,796,-2.27
"{'cat': 'RB', 'resp': 'reach'}",14,290,Right,68.29135233933567,52.67173359444287,3.414567616966784,0.827365656560702,Right,Correct,0.0,0.0,-45,45,2004,463,-0.3
"{'cat': 'RB', 'resp': 'reach'}",14,291,Right,59.263160174808746,36.125181490557694,2.963158008740437,0.5674530239016702,Right,Correct,0.0,0.0,-45,45,2004,592,-0.41
"{'cat': 'RB', 'resp': 'reach'}",14,292,Right,61.18457969284764,24.26539084331632,3.059228984642382,0.3811598680492379,Left,Incorrect,0.0,0.0,-45,45,2005,950,-2.16
"{'cat': 'RB', 'resp': 'reach'}",14,293,Left,43.57609137415394,34.81438444685656,2.178804568707697,0.5468630720874766,Right,Incorrect,0.0,0.0,-45,45,2004,638,-0.33
"{'cat': 'RB', 'resp': 'reach'}",14,294,Right,66.97621658725988,75.97241356489825,3.3488108293629946,1.1933718816548493,Right,Correct,0.0,0.0,-45,45,2004,780,-0.41
"{'cat': 'RB', 'resp': 'reach'}",14,295,Left,40.225039412284325,63.229891718872324,2.0112519706142162,0.9932128165564369,Right,Incorrect,0.0,0.0,-45,45,2004,542,-0.35
"{'cat': 'RB', 'resp': 'reach'}",14,296,Right,62.678326725512484,39.30870500378197,3.1339163362756244,0.6174596943100488,Right,Correct,0.0,0.0,-45,45,2004,617,-0.33
"{'cat': 'RB', 'resp': 'reach'}",14,297,Right,66.45701175176984,40.80954564354383,3.3228505875884924,0.6410348439504732,Left,Incorrect,0.0,0.0,-45,45,2004,1762,-2.06
"{'cat': 'RB', 'resp': 'reach'}",14,298,Left,36.44406010382821,67.00569293625293,1.8222030051914104,1.0525229633861284,Right,Incorrect,0.0,0.0,-45,45,2017,483,-0.31
"{'cat': 'RB', 'resp': 'reach'}",14,299,Right,55.77713461835798,45.788262433474685,2.788856730917899,0.7192403444082278,Right,Correct,0.0,0.0,-45,45,2012,496,-0.32
"{'cat': 'RB', 'resp': 'reach'}",14,300,Left,47.13634884551118,52.793129332303316,2.356817442275559,0.8292725363518996,Left,Correct,0.0,0.0,-45,45,2008,633,-2.04
"{'cat': 'RB', 'resp': 'reach'}",14,301,Left,36.79267194332992,47.06323475207596,1.839633597166496,0.7392675627564683,Right,Incorrect,0.0,0.0,-45,45,2017,754,-0.36
"{'cat': 'RB', 'resp': 'reach'}",14,302,Left,38.088363211629996,57.3292744240275,1.9044181605814998,0.9005261368307902,Left,Correct,0.0,0.0,-45,45,2004,641,-2.17
"{'cat': 'RB', 'resp': 'reach'}",14,303,Right,55.44452992855622,20.719577403425934,2.772226496427811,0.32546236078043994,Right,Correct,0.0,0.0,-45,45,2009,896,-0.35
"{'cat': 'RB', 'resp': 'reach'}",14,304,Left,47.569774722524826,31.619193370191145,2.3784887361262412,0.49667312802113794,Left,Correct,0.0,0.0,-45,45,2004,883,-2.27
"{'cat': 'RB', 'resp': 'reach'}",14,305,Right,60.772472457209545,68.03939483226831,3.0386236228604777,1.0687603147987474,Right,Correct,0.0,0.0,-45,45,2004,646,-0.41
"{'cat': 'RB', 'resp': 'reach'}",14,306,Left,48.18095366371213,44.20002491650274,2.4090476831856065,0.6942923678308541,Left,Correct,0.0,0.0,-45,45,2004,638,-2.21
"{'cat': 'RB', 'resp': 'reach'}",14,307,Left,45.90100465938163,63.80110693453685,2.295050232969081,1.002185444182189,Right,Incorrect,0.0,0.0,-45,45,2012,938,-0.43
"{'cat': 'RB', 'resp': 'reach'}",14,308,Left,39.41803743725225,48.468861176028454,1.9709018718626126,0.7613470909923726,Right,Incorrect,0.0,0.0,-45,45,2004,917,-0.38
"{'cat': 'RB', 'resp': 'reach'}",14,309,Left,42.1692429438231,48.11608242120517,2.108462147191155,0.7558056552698957,Right,Incorrect,0.0,0.0,-45,45,2008,725,-0.39
"{'cat': 'RB', 'resp': 'reach'}",14,310,Left,33.417268427030486,74.95069416075182,1.670863421351524,1.1773227507843667,Right,Incorrect,0.0,0.0,-45,45,2013,808,-0.33
"{'cat': 'RB', 'resp': 'reach'}",14,311,Left,43.710344124047715,23.519857205530954,2.1855172062023858,0.369449053051885,Right,Incorrect,0.0,0.0,-45,45,2013,1333,-0.28
"{'cat': 'RB', 'resp': 'reach'}",14,312,Right,62.44735101303566,43.54787301667015,3.1223675506517825,0.6840483897431606,Left,Incorrect,0.0,0.0,-45,45,2017,692,-2.17
"{'cat': 'RB', 'resp': 'reach'}",14,313,Right,53.86398386305304,32.8536012356511,2.6931991931526524,0.5160631614294502,Right,Correct,0.0,0.0,-45,45,2004,691,-0.41
"{'cat': 'RB', 'resp': 'reach'}",14,314,Left,40.94673149656875,34.92845475661797,2.047336574828438,0.5486548843231722,Right,Incorrect,0.0,0.0,-45,45,2004,817,-0.56
"{'cat': 'RB', 'resp': 'reach'}",14,315,Right,57.37360413001521,52.43256658492515,2.868680206500761,0.8236088299602926,Right,Correct,0.0,0.0,-45,45,2004,809,-0.41
"{'cat': 'RB', 'resp': 'reach'}",14,316,Left,40.11310694179445,58.86243812173328,2.0056553470897227,0.9246090158781052,Right,Incorrect,0.0,0.0,-45,45,2005,745,-0.31
"{'cat': 'RB', 'resp': 'reach'}",14,317,Left,46.296330629592525,63.778095783789915,2.314816531479626,1.0018239858715026,Left,Correct,0.0,0.0,-45,45,2012,675,-2.07
"{'cat': 'RB', 'resp': 'reach'}",14,318,Left,41.785005272482515,34.26563015751374,2.089250263624126,0.5382432598673502,Right,Incorrect,0.0,0.0,-45,45,2004,1108,-0.4
"{'cat': 'RB', 'resp': 'reach'}",14,319,Left,40.054221340190445,12.280493298327372,2.0027110670095225,0.1929015376424198,Right,Incorrect,0.0,0.0,-45,45,2013,708,-0.46
"{'cat': 'RB', 'resp': 'reach'}",14,320,Right,56.61774070843556,83.56359135778098,2.830887035421778,1.312613823585921,Right,Correct,0.0,0.0,-45,45,2017,1208,-0.43
"{'cat': 'RB', 'resp': 'reach'}",14,321,Left,45.18146075230723,79.179307887887,2.2590730376153614,1.2437456598845509,Left,Correct,0.0,0.0,-45,45,2004,695,-2.32
"{'cat': 'RB', 'resp': 'reach'}",14,322,Left,41.39582744050146,40.00733416348167,2.0697913720250734,0.6284337354885299,Right,Incorrect,0.0,0.0,-45,45,2008,691,-0.33
"{'cat': 'RB', 'resp': 'reach'}",14,323,Right,61.87996607120543,43.48996409471183,3.0939983035602716,0.6831387585241527,Right,Correct,0.0,0.0,-45,45,2004,2116,-0.23
"{'cat': 'RB', 'resp': 'reach'}",14,324,Right,64.57500747521115,30.84557846675424,3.2287503737605574,0.4845212135344132,Right,Correct,0.0,0.0,-45,45,2004,592,-0.3
"{'cat': 'RB', 'resp': 'reach'}",14,325,Left,42.74802005818195,76.55541103571375,2.1374010029090975,1.2025295845117265,Right,Incorrect,0.0,0.0,-45,45,2004,504,-0.32
"{'cat': 'RB', 'resp': 'reach'}",14,326,Right,65.07548393340794,20.395501033540725,3.2537741966703972,0.32037178106627284,Left,Incorrect,0.0,0.0,-45,45,2008,604,-2.18
"{'cat': 'RB', 'resp': 'reach'}",14,327,Right,59.79319415415867,51.86211286380181,2.989659707707933,0.8146481638628222,Right,Correct,0.0,0.0,-45,45,2004,654,-0.28
"{'cat': 'RB', 'resp': 'reach'}",14,328,Left,39.80532295946168,77.99025040104209,1.9902661479730839,1.2250679885577112,Right,Incorrect,0.0,0.0,-45,45,2005,745,-0.38
"{'cat': 'RB', 'resp': 'reach'}",14,329,Left,45.10871730639212,27.361384732391738,2.255435865319606,0.4297916263366291,Right,Incorrect,0.0,0.0,-45,45,2017,675,-0.29
"{'cat': 'RB', 'resp': 'reach'}",14,330,Right,56.14127806537703,64.66210880602038,2.807063903268851,1.0157100299530877,Left,Incorrect,0.0,0.0,-45,45,2017,583,-2.24
"{'cat': 'RB', 'resp': 'reach'}",14,331,Right,52.39079809422438,40.37739003633458,2.619539904711219,0.6342465595463921,Right,Correct,0.0,0.0,-45,45,2009,925,-0.29
"{'cat': 'RB', 'resp': 'reach'}",14,332,Right,57.57949459126452,25.30395946774855,2.8789747295632258,0.3974736658530637,Right,Correct,0.0,0.0,-45,45,2008,704,-0.38
"{'cat': 'RB', 'resp': 'reach'}",14,333,Left,43.822203838759066,12.703562812538571,2.191110191937953,0.1995470980314383,Right,Incorrect,0.0,0.0,-45,45,2005,604,-0.32
"{'cat': 'RB', 'resp': 'reach'}",14,334,Right,61.77502449615087,66.8422147867221,3.0887512248075435,1.049955054618186,Left,Incorrect,0.0,0.0,-45,45,2012,637,-2.28
"{'cat': 'RB', 'resp': 'reach'}",14,335,Right,54.10564134510868,66.15212583077569,2.7052820672554336,1.0391151626465625,Right,Correct,0.0,0.0,-45,45,2004,746,-0.48
"{'cat': 'RB', 'resp': 'reach'}",14,336,Right,51.361590655867325,38.914601895411174,2.5680795327933663,0.611269137159976,Left,Incorrect,0.0,0.0,-45,45,2004,796,-2.28
"{'cat': 'RB', 'resp': 'reach'}",14,337,Right,59.34267236986795,51.22276290632277,2.9671336184933974,0.804605278215377,Right,Correct,0.0,0.0,-45,45,2009,966,-0.36
"{'cat': 'RB', 'resp': 'reach'}",14,338,Left,46.45398647096137,27.179850084034914,2.3226993235480684,0.42694008674838,Right,Incorrect,0.0,0.0,-45,45,2013,616,-0.51
"{'cat': 'RB', 'resp': 'reach'}",14,339,Left,43.98998858725098,23.06261514154788,2.199499429362549,0.36226671150627776,Left,Correct,0.0,0.0,-45,45,2004,625,-2.12
"{'cat': 'RB', 'resp': 'reach'}",14,340,Left,39.83500156212868,55.55270697332381,1.9917500781064341,0.8726198805721027,Right,Incorrect,0.0,0.0,-45,45,2008,605,-0.42
"{'cat': 'RB', 'resp': 'reach'}",14,341,Left,32.62247536448283,66.02599164493776,1.6311237682241415,1.0371338514885875,Right,Incorrect,0.0,0.0,-45,45,2004,1633,-0.25
"{'cat': 'RB', 'resp': 'reach'}",14,342,Left,42.00309343501245,51.56353043063447,2.1001546717506225,0.8099580419701751,Left,Correct,0.0,0.0,-45,45,2012,554,-2.3
"{'cat': 'RB', 'resp': 'reach'}",14,343,Right,66.79593458614283,28.828219070305874,3.3397967293071416,0.45283260623675053,Right,Correct,0.0,0.0,-45,45,2016,917,-0.34
"{'cat': 'RB', 'resp': 'reach'}",14,344,Right,50.95643802388148,42.44812805680807,2.547821901194074,0.6667736363095351,Right,Correct,0.0,0.0,-45,45,2004,554,-0.32
"{'cat': 'RB', 'resp': 'reach'}",14,345,Left,35.6265718569359,29.388374103240572,1.7813285928467948,0.4616315009184455,Left,Correct,0.0,0.0,-45,45,2013,666,-2.17
"{'cat': 'RB', 'resp': 'reach'}",14,346,Right,52.000352012080526,31.435245142101508,2.600017600604026,0.4937836760111016,Right,Correct,0.0,0.0,-45,45,2016,542,-0.26
"{'cat': 'RB', 'resp': 'reach'}",14,347,Right,68.46920548006575,45.42746425339076,3.4234602740032876,0.7135729398483267,Right,Correct,0.0,0.0,-45,45,2013,483,-0.25
"{'cat': 'RB', 'resp': 'reach'}",14,348,Right,62.463733332726875,45.16962616882707,3.1231866666363435,0.709522828686922,Left,Incorrect,0.0,0.0,-45,45,2016,504,-2.36
"{'cat': 'RB', 'resp': 'reach'}",14,349,Left,34.56229275921841,27.516811958370543,1.7281146379609202,0.4322330714931434,Right,Incorrect,0.0,0.0,-45,45,2004,938,-0.2
"{'cat': 'RB', 'resp': 'reach'}",14,350,Right,54.51702026005573,42.491480622654045,2.725851013002787,0.6674546168214149,Right,Correct,0.0,0.0,-45,45,2004,446,-0.33
"{'cat': 'RB', 'resp': 'reach'}",14,351,Left,47.236196148002705,45.943406519192564,2.3618098074001352,0.7216773420079239,Left,Correct,0.0,0.0,-45,45,2016,504,-2.39
"{'cat': 'RB', 'resp': 'reach'}",14,352,Left,36.875831098558855,13.300145049072242,1.8437915549279427,0.2089181898892201,Right,Incorrect,0.0,0.0,-45,45,2004,604,-0.29
"{'cat': 'RB', 'resp': 'reach'}",14,353,Right,56.19592524496653,29.459068656236067,2.8097962622483266,0.46274196836014286,Right,Correct,0.0,0.0,-45,45,2004,559,-0.22
"{'cat': 'RB', 'resp': 'reach'}",14,354,Left,43.0615094076465,74.18725246787302,2.153075470382325,1.1653306367154057,Right,Incorrect,0.0,0.0,-45,45,2004,555,-0.37
"{'cat': 'RB', 'resp': 'reach'}",14,355,Left,39.74070601111942,48.19638368449844,1.9870353005559709,0.7570670245640764,Left,Correct,0.0,0.0,-45,45,2009,604,-2.22
"{'cat': 'RB', 'resp': 'reach'}",14,356,Left,44.59937835524503,36.31175301932414,2.2299689177622515,0.5703836826223785,Left,Correct,0.0,0.0,-45,45,2008,533,-2.37
"{'cat': 'RB', 'resp': 'reach'}",14,357,Left,35.269272928995846,73.58173609139472,1.7634636464497924,1.155819207715543,Right,Incorrect,0.0,0.0,-45,45,2013,496,-0.31
"{'cat': 'RB', 'resp': 'reach'}",14,358,Left,40.70680529752544,46.193106815670184,2.035340264876272,0.7255996250929904,Right,Incorrect,0.0,0.0,-45,45,2004,675,-0.4
"{'cat': 'RB', 'resp': 'reach'}",14,359,Left,44.92107191003465,41.40615803310172,2.2460535955017322,0.6504064094508517,Right,Incorrect,0.0,0.0,-45,45,2008,555,-0.43
"{'cat': 'RB', 'resp': 'reach'}",14,360,Right,60.45588264087419,88.35229509804724,3.0227941320437095,1.3878346060391136,Right,Correct,0.0,0.0,-45,45,2004,596,-0.3
"{'cat': 'RB', 'resp': 'reach'}",14,361,Right,64.74135444087636,77.95399062156615,3.237067722043818,1.2244984212735992,Right,Correct,0.0,0.0,-45,45,2004,675,-0.48
"{'cat': 'RB', 'resp': 'reach'}",14,362,Left,46.792037574697076,24.846910744082628,2.339601878734854,0.3902943612900564,Right,Incorrect,0.0,0.0,-45,45,2004,604,-0.33
"{'cat': 'RB', 'resp': 'reach'}",14,363,Left,33.74025288547929,66.07325397702354,1.6870126442739646,1.0378762464649487,Left,Correct,0.0,0.0,-45,45,2004,817,-2.11
"{'cat': 'RB', 'resp': 'reach'}",14,364,Left,38.40784694713475,79.63777564248451,1.9203923473567375,1.2509472545333076,Right,Incorrect,0.0,0.0,-45,45,2013,596,-0.27
"{'cat': 'RB', 'resp': 'reach'}",14,365,Right,53.360686356402695,24.695254220667035,2.668034317820135,0.3879121461908994,Right,Correct,0.0,0.0,-45,45,2004,1025,-0.39
"{'cat': 'RB', 'resp': 'reach'}",14,366,Left,39.6279599065635,67.37271788918122,1.9813979953281748,1.0582881778651467,Right,Incorrect,0.0,0.0,-45,45,2004,816,-0.3
"{'cat': 'RB', 'resp': 'reach'}",14,367,Right,57.27434736691174,54.08971853800572,2.863717368345587,0.8496393119686922,Left,Incorrect,0.0,0.0,-45,45,2004,837,-2.11
"{'cat': 'RB', 'resp': 'reach'}",14,368,Right,54.73179291273145,23.137973837581804,2.7365896456365726,0.3634504431354991,Right,Correct,0.0,0.0,-45,45,2017,2187,-0.3
"{'cat': 'RB', 'resp': 'reach'}",14,369,Right,62.11107059441498,68.82678321997201,3.105553529720749,1.0811285826704067,Right,Correct,0.0,0.0,-45,45,2004,1158,-0.27
"{'cat': 'RB', 'resp': 'reach'}",14,370,Right,65.90627230633021,30.12186094290445,3.2953136153165103,0.4731530852534097,Left,Incorrect,0.0,0.0,-45,45,2004,734,-1.98
"{'cat': 'RB', 'resp': 'reach'}",14,371,Right,55.94424728519906,36.652444853092796,2.797212364259953,0.5757352574329068,Right,Correct,0.0,0.0,-45,45,2008,1275,-0.2
"{'cat': 'RB', 'resp': 'reach'}",14,372,Left,34.67175010317324,61.13201243371201,1.7335875051586618,0.9602594058045478,Right,Incorrect,0.0,0.0,-45,45,2009,675,-0.35
"{'cat': 'RB', 'resp': 'reach'}",14,373,Right,57.35468202370841,11.900544236337666,2.867734101185421,0.18693331173299382,Right,Correct,0.0,0.0,-45,45,2004,688,-0.47
"{'cat': 'RB', 'resp': 'reach'}",14,374,Left,32.80101307071937,45.496600102619325,1.6400506535359685,0.7146589232285075,Right,Incorrect,0.0,0.0,-45,45,2012,729,-0.37
"{'cat': 'RB', 'resp': 'reach'}",14,375,Right,60.33251073650984,62.45210530069367,3.016625536825492,0.980995376069377,Left,Incorrect,0.0,0.0,-45,45,2008,675,-2.13
"{'cat': 'RB', 'resp': 'reach'}",14,376,Right,56.60895258935851,56.210641525605766,2.8304476294679257,0.8829546923520621,Right,Correct,0.0,0.0,-45,45,2013,796,-0.29
"{'cat': 'RB', 'resp': 'reach'}",14,377,Left,46.13717540842494,56.279139148609524,2.306858770421247,0.8840306504981471,Left,Correct,0.0,0.0,-45,45,2008,825,-2.03
"{'cat': 'RB', 'resp': 'reach'}",14,378,Right,62.08043677122642,42.48665297689935,3.1040218385613207,0.6673787843392295,Right,Correct,0.0,0.0,-45,45,2017,737,-0.4
"{'cat': 'RB', 'resp': 'reach'}",14,379,Right,66.9080466033532,55.4177316537205,3.3454023301676603,0.8704996932096943,Left,Incorrect,0.0,0.0,-45,45,2008,754,-2.05
"{'cat': 'RB', 'resp': 'reach'}",14,380,Right,59.94740242953317,44.8516158517257,2.997370121476658,0.7045275343070648,Right,Correct,0.0,0.0,-45,45,2004,604,-0.37
"{'cat': 'RB', 'resp': 'reach'}",14,381,Right,62.98743302290542,84.31835415054171,3.149371651145271,1.3244696098106212,Right,Correct,0.0,0.0,-45,45,2004,867,-0.36
"{'cat': 'RB', 'resp': 'reach'}",14,382,Left,48.98691150496871,49.25060030694612,2.449345575248435,0.7736266205459457,Left,Correct,0.0,0.0,-45,45,2017,675,-2.27
"{'cat': 'RB', 'resp': 'reach'}",14,383,Left,31.170218854671766,61.77624590100034,1.5585109427335881,0.9703790014446961,Right,Incorrect,0.0,0.0,-45,45,2005,900,-0.29
"{'cat': 'RB', 'resp': 'reach'}",14,384,Left,47.917189960773136,39.95517266587471,2.3958594980386567,0.6276143846001185,Left,Correct,0.0,0.0,-45,45,2004,1129,-2.27
"{'cat': 'RB', 'resp': 'reach'}",14,385,Left,39.15965469931723,15.39134032407501,1.9579827349658614,0.241766608455072,Right,Incorrect,0.0,0.0,-45,45,2009,916,-0.31
"{'cat': 'RB', 'resp': 'reach'}",14,386,Right,67.59370493872015,73.4772141110168,3.379685246936008,1.1541773802870734,Left,Incorrect,0.0,0.0,-45,45,2013,575,-2.34
"{'cat': 'RB', 'resp': 'reach'}",14,387,Right,64.9010320446175,23.182847927227794,3.245051602230875,0.36415532368734105,Right,Correct,0.0,0.0,-45,45,2013,737,-0.63
"{'cat': 'RB', 'resp': 'reach'}",14,388,Right,51.609284346412,32.18618935386602,2.5804642173206,0.5055794801057775,Right,Correct,0.0,0.0,-45,45,2008,934,-0.33
"{'cat': 'RB', 'resp': 'reach'}",14,389,Right,63.319943333065886,47.56956699101713,3.1659971666532942,0.7472210109671347,Left,Incorrect,0.0,0.0,-45,45,2004,575,-2.19
"{'cat': 'RB', 'resp': 'reach'}",14,390,Right,60.777046921627246,72.84543219312049,3.038852346081362,1.1442533731274038,Right,Correct,0.0,0.0,-45,45,2004,604,-0.21
"{'cat': 'RB', 'resp': 'reach'}",14,391,Left,34.746429071339705,65.19568579062116,1.7373214535669854,1.0240914376278194,Right,Incorrect,0.0,0.0,-45,45,2005,724,-0.32
"{'cat': 'RB', 'resp': 'reach'}",14,392,Left,40.82982411894744,28.89067106563443,2.041491205947372,0.45381359988538156,Left,Correct,0.0,0.0,-45,45,2008,642,-2.31
"{'cat': 'RB', 'resp': 'reach'}",14,393,Right,53.97346703677049,26.542360923593407,2.6986733518385244,0.4169264304324492,Right,Correct,0.0,0.0,-45,45,2004,662,-0.42
"{'cat': 'RB', 'resp': 'reach'}",14,394,Left,36.89010091129083,71.95924352298908,1.8445050455645415,1.1303331540485073,Left,Correct,0.0,0.0,-45,45,2017,604,-2.31
"{'cat': 'RB', 'resp': 'reach'}",14,395,Right,61.07874492916612,85.91764754366989,3.053937246458306,1.349591251684552,Right,Correct,0.0,0.0,-45,45,2004,746,-0.35
"{'cat': 'RB', 'resp': 'reach'}",14,396,Right,58.98515426771317,20.16245160866213,2.9492577133856583,0.31671104926066335,Left,Incorrect,0.0,0.0,-45,45,2008,605,-2.49
"{'cat': 'RB', 'resp': 'reach'}",14,397,Right,62.86970708270126,83.9674462587895,3.1434853541350627,1.318957561536544,Right,Correct,0.0,0.0,-45,45,2013,1021,-0.36
"{'cat': 'RB', 'resp': 'reach'}",14,398,Left,34.25825039704805,53.46731069008128,1.7129125198524024,0.8398625523558118,Left,Correct,0.0,0.0,-45,45,2017,716,-2.3
"{'cat': 'RB', 'resp': 'reach'}",14,399,Left,38.025449841566626,20.014322384760565,1.9012724920783313,0.3143842408527077,Right,Incorrect,0.0,0.0,-45,45,2004,796,-0.47
