condition,subject,trial,cat,x,y,xt,yt,resp,fb,rotation,su,target_angle_left,target_angle_right,rt,mt,ep
<<<<<<< HEAD
"{'cat': 'II', 'resp': 'button'}",23,0,Right,71.55995429324045,62.400108627653445,3.5779977146620228,0.9801786142392055,Right,Correct,0.0,0.0,-45,45,27459,-1,-1
"{'cat': 'II', 'resp': 'button'}",23,1,Right,55.89189855250745,39.41554905531464,2.7945949276253725,0.6191379967469229,Left,Incorrect,0.0,0.0,-45,45,3070,-1,-1
=======
"{'cat': 'II', 'resp': 'button'}",23,0,Right,72.01929603663942,51.4940042619949,3.6009648018319704,0.8088659274670235,Left,Incorrect,0.0,0.0,-45,45,2118,-1,-1
"{'cat': 'II', 'resp': 'button'}",23,1,Left,24.56221580386727,51.35432613504699,1.2281107901933637,0.8066718685795896,Right,Incorrect,0.0,0.0,-45,45,642,-1,-1
"{'cat': 'II', 'resp': 'button'}",23,2,Left,57.7353498437953,71.276163205922,2.8867674921897652,1.1196033535189585,Right,Incorrect,0.0,0.0,-45,45,581,-1,-1
"{'cat': 'II', 'resp': 'button'}",23,3,Left,32.55324923837633,57.24274244472807,1.6276624619188167,0.8991668956784518,Right,Incorrect,0.0,0.0,-45,45,1089,-1,-1
"{'cat': 'II', 'resp': 'button'}",23,4,Left,31.135912975387594,55.29693664220659,1.5567956487693797,0.8686022496058824,Left,Correct,0.0,0.0,-45,45,1657,-1,-1
"{'cat': 'II', 'resp': 'button'}",23,5,Right,51.2046518978735,22.53351256444242,2.560232594893675,0.3539555876601281,Right,Correct,0.0,0.0,-45,45,869,-1,-1
"{'cat': 'II', 'resp': 'button'}",23,6,Right,86.68324229094219,60.134912815003034,4.33416211454711,0.9445970016193812,Right,Correct,0.0,0.0,-45,45,1265,-1,-1
"{'cat': 'II', 'resp': 'button'}",23,7,Right,62.28324038118105,45.89918527683542,3.114162019059053,0.7209827163573147,Left,Incorrect,0.0,0.0,-45,45,738,-1,-1
"{'cat': 'II', 'resp': 'button'}",23,8,Right,86.74137756577386,62.560650214698036,4.337068878288693,0.9827003955914803,Left,Incorrect,0.0,0.0,-45,45,244,-1,-1
"{'cat': 'II', 'resp': 'button'}",23,9,Left,46.027429665166146,71.4617769403445,2.301371483258307,1.122518967241294,Left,Correct,0.0,0.0,-45,45,266,-1,-1
"{'cat': 'II', 'resp': 'button'}",23,10,Left,39.909890055816426,65.70705001810634,1.9954945027908213,1.0321239281296999,Right,Incorrect,0.0,0.0,-45,45,1083,-1,-1
"{'cat': 'II', 'resp': 'button'}",23,11,Left,35.45139021603559,63.14284161854222,1.7725695108017794,0.9918454367779803,Left,Correct,0.0,0.0,-45,45,820,-1,-1
"{'cat': 'II', 'resp': 'button'}",23,12,Right,58.31473873561985,40.2051992819897,2.915736936780992,0.6315417935020623,Right,Correct,0.0,0.0,-45,45,956,-1,-1
"{'cat': 'II', 'resp': 'button'}",23,13,Left,34.790919493119524,63.46990012452903,1.7395459746559763,0.9969828597764916,Left,Correct,0.0,0.0,-45,45,683,-1,-1
"{'cat': 'II', 'resp': 'button'}",23,14,Left,69.11315688108718,83.33214703746872,3.4556578440543593,1.3089783047038808,Left,Correct,0.0,0.0,-45,45,1566,-1,-1
"{'cat': 'II', 'resp': 'button'}",23,15,Right,38.36884023905955,11.505871798775999,1.9184420119529775,0.1807338115809033,Left,Incorrect,0.0,0.0,-45,45,1646,-1,-1
"{'cat': 'II', 'resp': 'button'}",23,16,Left,51.14170269847417,66.11137518583583,2.5570851349237085,1.0384750530127018,Right,Incorrect,0.0,0.0,-45,45,603,-1,-1
"{'cat': 'II', 'resp': 'button'}",23,17,Left,54.97985955063553,68.97604611696471,2.7489929775317767,1.0834731987736355,Left,Correct,0.0,0.0,-45,45,844,-1,-1
"{'cat': 'II', 'resp': 'button'}",23,18,Right,39.11995720385081,29.867816548313105,1.9559978601925405,0.4691625652347405,Right,Correct,0.0,0.0,-45,45,1269,-1,-1
"{'cat': 'II', 'resp': 'button'}",23,19,Left,31.28076272334012,43.986732877172045,1.564038136167006,0.6909419843117016,Right,Incorrect,0.0,0.0,-45,45,1426,-1,-1
"{'cat': 'II', 'resp': 'button'}",23,20,Right,54.06234769748775,42.42762624969171,2.7031173848743877,0.6664515946764248,Left,Incorrect,0.0,0.0,-45,45,976,-1,-1
"{'cat': 'II', 'resp': 'button'}",23,21,Right,53.6214186968244,35.01304781079541,2.68107093484122,0.5499836689109153,Right,Correct,0.0,0.0,-45,45,1036,-1,-1
"{'cat': 'II', 'resp': 'button'}",23,22,Left,43.37268050654872,59.98350770678188,2.1686340253274357,0.9422187357408635,Left,Correct,0.0,0.0,-45,45,915,-1,-1
"{'cat': 'II', 'resp': 'button'}",23,23,Left,40.31017105499751,47.428417140599834,2.0155085527498757,0.7450038343015035,Right,Incorrect,0.0,0.0,-45,45,746,-1,-1
"{'cat': 'II', 'resp': 'button'}",23,24,Right,79.68973495552817,49.23784142983031,3.984486747776408,0.7734262045728703,Left,Incorrect,0.0,0.0,-45,45,3136,-1,-1
"{'cat': 'II', 'resp': 'button'}",23,25,Right,46.72079747415382,39.56116057923218,2.336039873707691,0.6214252572160097,Right,Correct,0.0,0.0,-45,45,589,-1,-1
"{'cat': 'II', 'resp': 'button'}",23,26,Left,60.464310932523716,77.89270985424177,3.023215546626186,1.2235358252314361,Left,Correct,0.0,0.0,-45,45,254,-1,-1
"{'cat': 'II', 'resp': 'button'}",23,27,Right,73.17175683759827,50.97287822974832,3.658587841879913,0.8006800988945222,107,Incorrect,0.0,0.0,-45,45,2632,-1,-1
"{'cat': 'II', 'resp': 'button'}",23,28,Left,49.34243181250629,66.83840938986711,2.4671215906253146,1.0498952795841678,Right,Incorrect,0.0,0.0,-45,45,317,-1,-1
"{'cat': 'II', 'resp': 'button'}",23,29,Right,52.99126763020442,37.42208761539852,2.6495633815102213,0.5878247776726478,Right,Correct,0.0,0.0,-45,45,217,-1,-1
"{'cat': 'II', 'resp': 'button'}",23,30,Right,63.999330635982204,46.62631867401536,3.1999665317991104,0.7324045010511161,Left,Incorrect,0.0,0.0,-45,45,1466,-1,-1
"{'cat': 'II', 'resp': 'button'}",23,31,Left,25.004517436578894,48.516613111813,1.2502258718289447,0.7620971766456497,Right,Incorrect,0.0,0.0,-45,45,804,-1,-1
"{'cat': 'II', 'resp': 'button'}",23,32,Left,57.49485583376551,72.57982260863368,2.8747427916882757,1.1400811875306698,Left,Correct,0.0,0.0,-45,45,455,-1,-1
"{'cat': 'II', 'resp': 'button'}",23,33,Left,14.143541517102069,37.210928904206654,0.7071770758551034,0.5845079043935386,Left,Correct,0.0,0.0,-45,45,1541,-1,-1
"{'cat': 'II', 'resp': 'button'}",23,34,Right,51.21316512820216,30.34134080490701,2.560658256410108,0.4766006668638005,Right,Correct,0.0,0.0,-45,45,1534,-1,-1
"{'cat': 'II', 'resp': 'button'}",23,35,Right,72.24651630102338,60.34071045119421,3.6123258150511686,0.9478296633293031,Right,Correct,0.0,0.0,-45,45,1404,-1,-1
"{'cat': 'II', 'resp': 'button'}",23,36,Right,71.13520834510378,46.24001518475398,3.5567604172551888,0.7263364600315177,Left,Incorrect,0.0,0.0,-45,45,2242,-1,-1
"{'cat': 'II', 'resp': 'button'}",23,37,Right,47.290585461804625,26.095531662309703,2.3645292730902314,0.40990765280916003,Right,Correct,0.0,0.0,-45,45,1818,-1,-1
"{'cat': 'II', 'resp': 'button'}",23,38,Left,56.3615886787711,69.17840715966588,2.8180794339385553,1.0866518785992494,Right,Incorrect,0.0,0.0,-45,45,1009,-1,-1
"{'cat': 'II', 'resp': 'button'}",23,39,Left,57.67454397945167,84.14508397086547,2.8837271989725832,1.3217478881928362,Left,Correct,0.0,0.0,-45,45,823,-1,-1
"{'cat': 'II', 'resp': 'button'}",23,40,Left,49.24879142551276,65.37808767500998,2.462439571275638,1.0269565997278038,Right,Incorrect,0.0,0.0,-45,45,323,-1,-1
"{'cat': 'II', 'resp': 'button'}",23,41,Right,53.39958902126833,43.94591030176116,2.6699794510634165,0.6903007447966444,Left,Incorrect,0.0,0.0,-45,45,375,-1,-1
"{'cat': 'II', 'resp': 'button'}",23,42,Right,61.33017973807161,33.47859044151797,3.06650898690358,0.5258804689180717,Right,Correct,0.0,0.0,-45,45,258,-1,-1
"{'cat': 'II', 'resp': 'button'}",23,43,Right,50.14143208493477,40.23786745522184,2.5070716042467383,0.6320549439672238,Right,Correct,0.0,0.0,-45,45,1124,-1,-1
"{'cat': 'II', 'resp': 'button'}",23,44,Left,20.92451580175902,50.0721670587732,1.046225790087951,0.7865317609058137,Left,Correct,0.0,0.0,-45,45,1492,-1,-1
"{'cat': 'II', 'resp': 'button'}",23,45,Left,19.11712468293801,39.31289507657145,0.9558562341469005,0.617525511819516,Right,Incorrect,0.0,0.0,-45,45,655,-1,-1
"{'cat': 'II', 'resp': 'button'}",23,46,Right,46.22514405626898,34.99297668221646,2.311257202813449,0.5496683923604507,Right,Correct,0.0,0.0,-45,45,149,-1,-1
"{'cat': 'II', 'resp': 'button'}",23,47,Right,68.32084688040264,39.81673352759234,3.4160423440201324,0.6254397877011324,Left,Incorrect,0.0,0.0,-45,45,371,-1,-1
"{'cat': 'II', 'resp': 'button'}",23,48,Right,45.139491440170445,21.975974031207688,2.2569745720085224,0.34519779285961066,Right,Correct,0.0,0.0,-45,45,265,-1,-1
"{'cat': 'II', 'resp': 'button'}",23,49,Right,58.021556134783516,48.269015426599765,2.901077806739176,0.758207921301091,Right,Correct,0.0,0.0,-45,45,772,-1,-1
"{'cat': 'II', 'resp': 'button'}",23,50,Right,76.56081653033263,61.66698566278631,3.8280408265166317,0.968662745636183,Right,Correct,0.0,0.0,-45,45,762,-1,-1
"{'cat': 'II', 'resp': 'button'}",23,51,Right,46.91287491328856,35.5776949955976,2.345643745664428,0.5588531261491387,Right,Correct,0.0,0.0,-45,45,527,-1,-1
"{'cat': 'II', 'resp': 'button'}",23,52,Right,49.60730109197111,30.179227817165433,2.480365054598556,0.47405420200709825,Left,Incorrect,0.0,0.0,-45,45,681,-1,-1
"{'cat': 'II', 'resp': 'button'}",23,53,Right,49.58138967393755,20.62256800255385,2.4790694836968776,0.32393854067489564,Right,Correct,0.0,0.0,-45,45,441,-1,-1
"{'cat': 'II', 'resp': 'button'}",23,54,Right,81.74625789159552,60.720040302244314,4.087312894579776,0.9537881626960345,Left,Incorrect,0.0,0.0,-45,45,289,-1,-1
"{'cat': 'II', 'resp': 'button'}",23,55,Left,28.91982801943248,46.01949760785079,1.4459914009716242,0.7228725780335855,Right,Incorrect,0.0,0.0,-45,45,287,-1,-1
"{'cat': 'II', 'resp': 'button'}",23,56,Left,27.527432717109576,41.759584683268955,1.3763716358554787,0.655958022289593,Right,Incorrect,0.0,0.0,-45,45,2085,-1,-1
"{'cat': 'II', 'resp': 'button'}",23,57,Left,34.785139110367645,54.74356097868501,1.7392569555183823,0.8599098450099084,Left,Correct,0.0,0.0,-45,45,651,-1,-1
"{'cat': 'II', 'resp': 'button'}",23,58,Right,44.24982355680427,32.548369819560406,2.2124911778402137,0.5112685975572736,Right,Correct,0.0,0.0,-45,45,1309,-1,-1
"{'cat': 'II', 'resp': 'button'}",23,59,Right,70.05061721528361,46.68418384582893,3.5025308607641805,0.7333134450444574,Left,Incorrect,0.0,0.0,-45,45,1660,-1,-1
"{'cat': 'II', 'resp': 'button'}",23,60,Left,53.84074305583108,65.6988880441962,2.692037152791554,1.0319957201433252,Right,Incorrect,0.0,0.0,-45,45,278,-1,-1
"{'cat': 'II', 'resp': 'button'}",23,61,Right,85.0172373410544,57.27071473011205,4.25086186705272,0.8996062833097838,Right,Correct,0.0,0.0,-45,45,284,-1,-1
"{'cat': 'II', 'resp': 'button'}",23,62,Right,53.59757838164242,21.82184975335614,2.6798789190821206,0.3427768143644195,Left,Incorrect,0.0,0.0,-45,45,437,-1,-1
"{'cat': 'II', 'resp': 'button'}",23,63,Right,38.34550530338214,16.41866232177963,1.917275265169107,0.25790374465937216,Right,Correct,0.0,0.0,-45,45,318,-1,-1
"{'cat': 'II', 'resp': 'button'}",23,64,Left,20.919527741857035,49.24138121599487,1.0459763870928518,0.7734818074039195,Right,Incorrect,0.0,0.0,-45,45,329,-1,-1
"{'cat': 'II', 'resp': 'button'}",23,65,Right,43.52235577722337,32.13933692810329,2.1761177888611685,0.5048435239228822,Right,Correct,0.0,0.0,-45,45,540,-1,-1
"{'cat': 'II', 'resp': 'button'}",23,66,Left,36.56137322380626,46.403324366065725,1.8280686611903127,0.7289017146528816,Right,Incorrect,0.0,0.0,-45,45,916,-1,-1
"{'cat': 'II', 'resp': 'button'}",23,67,Left,38.20662676382946,55.557356189379156,1.910331338191473,0.8726929102871248,Right,Incorrect,0.0,0.0,-45,45,2980,-1,-1
"{'cat': 'II', 'resp': 'button'}",23,68,Left,45.67720554941273,77.5339110244741,2.283860277470637,1.2178998263928624,Left,Correct,0.0,0.0,-45,45,659,-1,-1
"{'cat': 'II', 'resp': 'button'}",23,69,Left,29.130279297699065,50.01363682468461,1.4565139648849532,0.7856123701386856,Right,Incorrect,0.0,0.0,-45,45,5590,-1,-1
"{'cat': 'II', 'resp': 'button'}",23,70,Right,71.47258964952262,45.09488298125598,3.5736294824761305,0.7083487654420259,Left,Incorrect,0.0,0.0,-45,45,3155,-1,-1
"{'cat': 'II', 'resp': 'button'}",23,71,Left,68.01909981605338,84.60838222043513,3.400954990802669,1.3290253600791817,Right,Incorrect,0.0,0.0,-45,45,237,-1,-1
"{'cat': 'II', 'resp': 'button'}",23,72,Left,35.398334388809175,56.72274614640386,1.7699167194404588,0.8909988129249055,Right,Incorrect,0.0,0.0,-45,45,601,-1,-1
"{'cat': 'II', 'resp': 'button'}",23,73,Left,37.04764514404919,53.351515529985406,1.8523822572024597,0.8380436462344196,Left,Correct,0.0,0.0,-45,45,1577,-1,-1
"{'cat': 'II', 'resp': 'button'}",23,74,Right,36.986654642986096,23.78040156065704,1.8493327321493047,0.3735416742118771,Left,Incorrect,0.0,0.0,-45,45,720,-1,-1
"{'cat': 'II', 'resp': 'button'}",23,75,Right,36.03743310196642,15.514954658134968,1.8018716550983211,0.24370833787387777,Right,Correct,0.0,0.0,-45,45,308,-1,-1
"{'cat': 'II', 'resp': 'button'}",23,76,Left,41.66945938412069,55.23942762448871,2.0834729692060345,0.867698900067994,Right,Incorrect,0.0,0.0,-45,45,1477,-1,-1
"{'cat': 'II', 'resp': 'button'}",23,77,Left,59.1182666545475,68.56014664435635,2.9559133327273748,1.076940265134744,Right,Incorrect,0.0,0.0,-45,45,3821,-1,-1
"{'cat': 'II', 'resp': 'button'}",23,78,Right,51.46283119945747,32.4500063244724,2.5731415599728735,0.5097235073895241,Left,Incorrect,0.0,0.0,-45,45,908,-1,-1
"{'cat': 'II', 'resp': 'button'}",23,79,Left,38.05917512613595,68.59249189674688,1.9029587563067976,1.077448343171187,Right,Incorrect,0.0,0.0,-45,45,2651,-1,-1
"{'cat': 'II', 'resp': 'button'}",23,80,Left,30.96893818805446,46.442598930958994,1.5484469094027231,0.7295186380755898,Left,Correct,0.0,0.0,-45,45,757,-1,-1
"{'cat': 'II', 'resp': 'button'}",23,81,Right,72.27154549776715,60.16742335026228,3.6135772748883572,0.9451076759130549,Right,Correct,0.0,0.0,-45,45,390,-1,-1
"{'cat': 'II', 'resp': 'button'}",23,82,Left,23.055596704031764,35.97751191476903,1.152779835201588,0.5651334356293882,Right,Incorrect,0.0,0.0,-45,45,464,-1,-1
"{'cat': 'II', 'resp': 'button'}",23,83,Left,29.811947588061837,47.683140253691505,1.490597379403092,0.7490050156054449,Right,Incorrect,0.0,0.0,-45,45,422,-1,-1
"{'cat': 'II', 'resp': 'button'}",23,84,Right,80.16279164216228,57.10052955627076,4.008139582108114,0.8969330208503352,Left,Incorrect,0.0,0.0,-45,45,283,-1,-1
"{'cat': 'II', 'resp': 'button'}",23,85,Left,63.05123167552016,88.0575644104176,3.152561583776008,1.3832049872238898,Right,Incorrect,0.0,0.0,-45,45,302,-1,-1
"{'cat': 'II', 'resp': 'button'}",23,86,Left,33.43032232306681,52.03293870219836,1.6715161161533405,0.8173314898575719,Left,Correct,0.0,0.0,-45,45,957,-1,-1
"{'cat': 'II', 'resp': 'button'}",23,87,Left,62.88671621214127,87.68426099371422,3.144335810607064,1.3773411508665132,Left,Correct,0.0,0.0,-45,45,1356,-1,-1
"{'cat': 'II', 'resp': 'button'}",23,88,Left,52.99071436903757,82.94238597266285,2.6495357184518786,1.3028559522146335,Left,Correct,0.0,0.0,-45,45,1827,-1,-1
"{'cat': 'II', 'resp': 'button'}",23,89,Right,36.52770584929921,26.41957252140856,1.8263852924649604,0.41499767472119947,Left,Incorrect,0.0,0.0,-45,45,2203,-1,-1
"{'cat': 'II', 'resp': 'button'}",23,90,Left,54.394521758686935,67.50650422859982,2.719726087934347,1.0603896887704876,Right,Incorrect,0.0,0.0,-45,45,3986,-1,-1
"{'cat': 'II', 'resp': 'button'}",23,91,Left,29.995415565291072,46.68214316276589,1.4997707782645537,0.7332813900698615,Left,Correct,0.0,0.0,-45,45,7916,-1,-1
"{'cat': 'II', 'resp': 'button'}",23,92,Right,45.57471067312224,29.538445571095785,2.278735533656112,0.46398881802308245,Left,Incorrect,0.0,0.0,-45,45,1542,-1,-1
"{'cat': 'II', 'resp': 'button'}",23,93,Left,33.44591690110333,58.82930040166633,1.6722958450551664,0.92408848978851,Right,Incorrect,0.0,0.0,-45,45,1199,-1,-1
"{'cat': 'II', 'resp': 'button'}",23,94,Left,31.936001771642033,43.193002229976045,1.5968000885821017,0.6784740924609015,Right,Incorrect,0.0,0.0,-45,45,14384,-1,-1
"{'cat': 'II', 'resp': 'button'}",23,95,Right,68.36568262781918,53.63725481811086,3.4182841313909593,0.842532028476504,Left,Incorrect,0.0,0.0,-45,45,1149,-1,-1
"{'cat': 'II', 'resp': 'button'}",23,96,Right,55.29458933230041,24.403377131225334,2.764729466615021,0.3833273515911933,Right,Correct,0.0,0.0,-45,45,1472,-1,-1
"{'cat': 'II', 'resp': 'button'}",23,97,Left,57.325282994633014,72.24282278969596,2.866264149731651,1.1347876067534906,Left,Correct,0.0,0.0,-45,45,3556,-1,-1
"{'cat': 'II', 'resp': 'button'}",23,98,Left,32.10691032391168,59.01194662803003,1.6053455161955839,0.9269574900032604,Right,Incorrect,0.0,0.0,-45,45,1763,-1,-1
"{'cat': 'II', 'resp': 'button'}",23,99,Left,29.533151612662273,57.76981661798185,1.4766575806331135,0.9074461574314068,Right,Incorrect,0.0,0.0,-45,45,960,-1,-1
"{'cat': 'II', 'resp': 'button'}",23,100,Right,47.558373103133306,16.982586919748265,2.377918655156665,0.2667618515301563,Right,Correct,0.0,0.0,-45,45,254,-1,-1
"{'cat': 'II', 'resp': 'button'}",23,101,Right,38.995161883328365,17.281556123620536,1.9497580941664183,0.2714580488028299,Left,Incorrect,0.0,0.0,-45,45,2135,-1,-1
"{'cat': 'II', 'resp': 'button'}",23,102,Left,20.042861280742297,47.29565342400922,1.002143064037115,0.7429183867179815,Right,Incorrect,0.0,0.0,-45,45,1992,-1,-1
"{'cat': 'II', 'resp': 'button'}",23,103,Left,62.57125436807388,71.73632876981898,3.128562718403694,1.1268316172938273,Right,Incorrect,0.0,0.0,-45,45,4921,-1,-1
"{'cat': 'II', 'resp': 'button'}",23,104,Left,22.141596858145494,35.28991256697344,1.1070798429072746,0.5543326503311494,Right,Incorrect,0.0,0.0,-45,45,272,-1,-1
"{'cat': 'II', 'resp': 'button'}",23,105,Left,63.41534813309832,84.08298045287447,3.1707674066549156,1.320772368413423,Right,Incorrect,0.0,0.0,-45,45,234,-1,-1
"{'cat': 'II', 'resp': 'button'}",23,106,Right,32.548241433396015,18.660923382465732,1.6274120716698008,0.29312509903778167,Right,Correct,0.0,0.0,-45,45,249,-1,-1
"{'cat': 'II', 'resp': 'button'}",23,107,Left,67.22202346695825,82.8509392603323,3.3611011733479126,1.3014195106163706,Left,Correct,0.0,0.0,-45,45,446,-1,-1
"{'cat': 'II', 'resp': 'button'}",23,108,Left,17.381343503013653,43.457914581818805,0.8690671751506827,0.6826353259528736,Left,Correct,0.0,0.0,-45,45,314,-1,-1
"{'cat': 'II', 'resp': 'button'}",23,109,Left,39.67432298318024,66.71483680121817,1.983716149159012,1.047954205900745,Right,Incorrect,0.0,0.0,-45,45,725,-1,-1
"{'cat': 'II', 'resp': 'button'}",23,110,Left,11.74425003348044,33.25360556875122,0.5872125016740221,0.5223464148008072,Left,Correct,0.0,0.0,-45,45,6974,-1,-1
"{'cat': 'II', 'resp': 'button'}",23,111,Left,19.201606267615862,37.709806210643436,0.960080313380793,0.5923442507982608,Right,Incorrect,0.0,0.0,-45,45,2540,-1,-1
"{'cat': 'II', 'resp': 'button'}",23,112,Left,48.15898864176181,55.384100898301,2.4079494320880905,0.8699714225388914,Left,Correct,0.0,0.0,-45,45,910,-1,-1
"{'cat': 'II', 'resp': 'button'}",23,113,Right,39.11617780746614,16.091312552890535,1.9558088903733069,0.2527617465138906,Right,Correct,0.0,0.0,-45,45,1787,-1,-1
"{'cat': 'II', 'resp': 'button'}",23,114,Left,33.99318971916726,42.09019398735097,1.6996594859583631,0.6611512210941555,Left,Correct,0.0,0.0,-45,45,863,-1,-1
"{'cat': 'II', 'resp': 'button'}",23,115,Right,73.02248303609281,47.17847731195924,3.6511241518046402,0.7410777886540194,Right,Correct,0.0,0.0,-45,45,675,-1,-1
"{'cat': 'II', 'resp': 'button'}",23,116,Right,35.93280593713827,17.194574069472296,1.7966402968569133,0.2700917378912986,Left,Incorrect,0.0,0.0,-45,45,723,-1,-1
"{'cat': 'II', 'resp': 'button'}",23,117,Right,46.53540474292084,18.577739670086928,2.3267702371460417,0.2918184523392438,Right,Correct,0.0,0.0,-45,45,586,-1,-1
"{'cat': 'II', 'resp': 'button'}",23,118,Right,73.56676070398223,41.482236459783586,3.6783380351991117,0.6516014465826538,Right,Correct,0.0,0.0,-45,45,244,-1,-1
"{'cat': 'II', 'resp': 'button'}",23,119,Right,41.43774392276626,27.523015698634616,2.071887196138313,0.4323305196173353,Left,Incorrect,0.0,0.0,-45,45,78,-1,-1
"{'cat': 'II', 'resp': 'button'}",23,120,Right,83.93614340809373,56.1960225824,4.196807170404686,0.8827250585291697,Right,Correct,0.0,0.0,-45,45,259,-1,-1
"{'cat': 'II', 'resp': 'button'}",23,121,Left,34.27611217512262,61.70376071558729,1.713805608756131,0.9692404068147576,Right,Incorrect,0.0,0.0,-45,45,202,-1,-1
"{'cat': 'II', 'resp': 'button'}",23,122,Left,45.88584505424184,60.08121364083301,2.2942922527120917,0.9437534969639993,Right,Incorrect,0.0,0.0,-45,45,260,-1,-1
"{'cat': 'II', 'resp': 'button'}",23,123,Left,48.89776397350993,69.32173662903453,2.4448881986754967,1.0889032926393067,Left,Correct,0.0,0.0,-45,45,232,-1,-1
"{'cat': 'II', 'resp': 'button'}",23,124,Right,56.8913064821578,30.53917683370782,2.84456532410789,0.47970826793728044,Right,Correct,0.0,0.0,-45,45,236,-1,-1
"{'cat': 'II', 'resp': 'button'}",23,125,Right,86.43042659456027,58.931082367645814,4.3215213297280135,0.9256872771714554,Left,Incorrect,0.0,0.0,-45,45,555,-1,-1
"{'cat': 'II', 'resp': 'button'}",23,126,Left,39.92305453106326,49.286330856918816,1.996152726553163,0.7741878747124603,Left,Correct,0.0,0.0,-45,45,322,-1,-1
"{'cat': 'II', 'resp': 'button'}",23,127,Left,39.177267848946634,62.48609076995186,1.9588633924473315,0.9815292185721287,Left,Correct,0.0,0.0,-45,45,204,-1,-1
"{'cat': 'II', 'resp': 'button'}",23,128,Left,25.418788144599816,50.0505685883771,1.2709394072299909,0.7861924929261876,Right,Incorrect,0.0,0.0,-45,45,220,-1,-1
"{'cat': 'II', 'resp': 'button'}",23,129,Right,62.245851620670734,30.223296500799893,3.112292581033537,0.4747464312708952,Left,Incorrect,0.0,0.0,-45,45,1784,-1,-1
"{'cat': 'II', 'resp': 'button'}",23,130,Left,56.81319788226749,82.59691744504919,2.8406598941133745,1.2974293452726458,Right,Incorrect,0.0,0.0,-45,45,465,-1,-1
"{'cat': 'II', 'resp': 'button'}",23,131,Left,21.18035845868085,40.41947340149566,1.0590179229340424,0.6349076035005341,Right,Incorrect,0.0,0.0,-45,45,202,-1,-1
"{'cat': 'II', 'resp': 'button'}",23,132,Right,61.022921344872245,41.142412722554695,3.0511460672436126,0.6462635078006853,Right,Correct,0.0,0.0,-45,45,248,-1,-1
"{'cat': 'II', 'resp': 'button'}",23,133,Left,49.5108226127718,70.1753163322763,2.47554113063859,1.1023112912640953,Right,Incorrect,0.0,0.0,-45,45,244,-1,-1
"{'cat': 'II', 'resp': 'button'}",23,134,Left,64.44403681334497,84.87374269637756,3.222201840667248,1.3331936326880507,Right,Incorrect,0.0,0.0,-45,45,195,-1,-1
"{'cat': 'II', 'resp': 'button'}",23,135,Right,63.55735295660731,44.54955402566618,3.177867647830366,0.6997827582386723,Right,Correct,0.0,0.0,-45,45,235,-1,-1
"{'cat': 'II', 'resp': 'button'}",23,136,Left,26.65607617909223,43.232675369243594,1.3328038089546115,0.6790972766752403,Left,Correct,0.0,0.0,-45,45,232,-1,-1
"{'cat': 'II', 'resp': 'button'}",23,137,Left,38.17191187105554,62.075395102306054,1.9085955935527772,0.9750780261104427,Right,Incorrect,0.0,0.0,-45,45,218,-1,-1
"{'cat': 'II', 'resp': 'button'}",23,138,Right,69.20331844415044,40.3445394706436,3.4601659222075223,0.6337305440671869,Left,Incorrect,0.0,0.0,-45,45,1433,-1,-1
"{'cat': 'II', 'resp': 'button'}",23,139,Right,36.02294466780136,22.029799585658616,1.8011472333900682,0.34604328269180284,Right,Correct,0.0,0.0,-45,45,6211,-1,-1
"{'cat': 'II', 'resp': 'button'}",23,140,Right,70.97667462974253,56.80811698068575,3.548833731487127,0.8923398148539599,Right,Correct,0.0,0.0,-45,45,6615,-1,-1
"{'cat': 'II', 'resp': 'button'}",23,141,Left,55.92597033661096,67.22975867671026,2.796298516830548,1.056042579806838,Left,Correct,0.0,0.0,-45,45,6466,-1,-1
"{'cat': 'II', 'resp': 'button'}",23,142,Right,76.4054734454199,47.84786550627438,3.8202736722709947,0.7515925138223204,Right,Correct,0.0,0.0,-45,45,5035,-1,-1
"{'cat': 'II', 'resp': 'button'}",23,143,Right,55.06254831070387,32.11547945534438,2.7531274155351935,0.5044687716171191,Right,Correct,0.0,0.0,-45,45,2528,-1,-1
"{'cat': 'II', 'resp': 'button'}",23,144,Right,64.60965472658006,55.296496204292964,3.230482736329003,0.8685953312233132,Left,Incorrect,0.0,0.0,-45,45,1886,-1,-1
"{'cat': 'II', 'resp': 'button'}",23,145,Left,57.49614441092831,72.16604812627175,2.8748072205464155,1.1335816331605137,Right,Incorrect,0.0,0.0,-45,45,1432,-1,-1
"{'cat': 'II', 'resp': 'button'}",23,146,Right,50.93433600567793,42.997184007939445,2.5467168002838965,0.6753981870219555,Right,Correct,0.0,0.0,-45,45,283,-1,-1
"{'cat': 'II', 'resp': 'button'}",23,147,Left,61.35682337742081,74.63848177010496,3.0678411688710407,1.1724185300202874,Left,Correct,0.0,0.0,-45,45,6080,-1,-1
"{'cat': 'II', 'resp': 'button'}",23,148,Left,56.619804875822766,84.604640238637,2.8309902437911383,1.3289665811665472,Left,Correct,0.0,0.0,-45,45,2394,-1,-1
"{'cat': 'II', 'resp': 'button'}",23,149,Left,27.952947988397046,59.19541576045346,1.3976473994198522,0.9298394163961702,Right,Incorrect,0.0,0.0,-45,45,5805,-1,-1
"{'cat': 'II', 'resp': 'button'}",23,150,Right,39.04955642796449,29.645166530346813,1.9524778213982246,0.4656651869309178,Right,Correct,0.0,0.0,-45,45,1907,-1,-1
"{'cat': 'II', 'resp': 'button'}",23,151,Left,27.48182180670753,38.03840135924196,1.3740910903353765,0.5975058113224727,Left,Correct,0.0,0.0,-45,45,1841,-1,-1
"{'cat': 'II', 'resp': 'button'}",23,152,Left,31.33689350002653,46.66253506637538,1.5668446750013265,0.7329733868120051,Right,Incorrect,0.0,0.0,-45,45,7347,-1,-1
"{'cat': 'II', 'resp': 'button'}",23,153,Left,15.112906524762998,37.91430054646686,0.7556453262381498,0.595556440313879,Left,Correct,0.0,0.0,-45,45,2562,-1,-1
"{'cat': 'II', 'resp': 'button'}",23,154,Right,75.55342199850772,63.56048053819903,3.7776710999253855,0.9984056935872156,Left,Incorrect,0.0,0.0,-45,45,2346,-1,-1
"{'cat': 'II', 'resp': 'button'}",23,155,Left,53.27269389287069,74.23480404783226,2.6636346946435343,1.166077575186738,Right,Incorrect,0.0,0.0,-45,45,5942,-1,-1
"{'cat': 'II', 'resp': 'button'}",23,156,Right,69.53453240356635,41.58125284779528,3.4767266201783174,0.6531567923684666,Right,Correct,0.0,0.0,-45,45,835,-1,-1
"{'cat': 'II', 'resp': 'button'}",23,157,Left,55.88317886052651,81.36169571471703,2.794158943026326,1.2780265277048157,Right,Incorrect,0.0,0.0,-45,45,2349,-1,-1
"{'cat': 'II', 'resp': 'button'}",23,158,Left,63.23898870565786,73.22143863105215,3.1619494352828927,1.1501596684429467,Left,Correct,0.0,0.0,-45,45,3110,-1,-1
"{'cat': 'II', 'resp': 'button'}",23,159,Right,42.29616028423928,30.009465322057345,2.114808014211964,0.47138757896966504,Right,Correct,0.0,0.0,-45,45,1675,-1,-1
"{'cat': 'II', 'resp': 'button'}",23,160,Left,42.50363459688505,58.78428354187967,2.125181729844252,0.9233813666085428,Left,Correct,0.0,0.0,-45,45,1448,-1,-1
"{'cat': 'II', 'resp': 'button'}",23,161,Right,57.60254542248751,26.31578597796242,2.8801272711243757,0.41336739950904006,Left,Incorrect,0.0,0.0,-45,45,277,-1,-1
"{'cat': 'II', 'resp': 'button'}",23,162,Right,74.63888224730668,57.077831290091325,3.7319441123653343,0.8965764773189426,Left,Incorrect,0.0,0.0,-45,45,755,-1,-1
"{'cat': 'II', 'resp': 'button'}",23,163,Right,73.03716695131837,46.04439749885313,3.651858347565918,0.7232637046068262,Left,Incorrect,0.0,0.0,-45,45,285,-1,-1
"{'cat': 'II', 'resp': 'button'}",23,164,Right,64.30566985917672,50.94288120527435,3.215283492958836,0.800208906735937,Left,Incorrect,0.0,0.0,-45,45,362,-1,-1
"{'cat': 'II', 'resp': 'button'}",23,165,Left,57.68836973134388,69.05615102676558,2.884418486567194,1.08473148375437,Left,Correct,0.0,0.0,-45,45,752,-1,-1
"{'cat': 'II', 'resp': 'button'}",23,166,Right,52.487327618432154,36.27315714646447,2.624366380921608,0.5697774200692044,Right,Correct,0.0,0.0,-45,45,6143,-1,-1
"{'cat': 'II', 'resp': 'button'}",23,167,Left,59.12443426212549,69.04705136003551,2.9562217131062742,1.0845885465236234,Right,Incorrect,0.0,0.0,-45,45,8164,-1,-1
"{'cat': 'II', 'resp': 'button'}",23,168,Left,26.381535015513762,40.171933737080536,1.319076750775688,0.6310192595445409,Left,Correct,0.0,0.0,-45,45,6944,-1,-1
"{'cat': 'II', 'resp': 'button'}",23,169,Left,35.0238835526793,59.09220848847645,1.7511941776339652,0.92821824035897,Left,Correct,0.0,0.0,-45,45,5107,-1,-1
"{'cat': 'II', 'resp': 'button'}",23,170,Left,17.28518472279999,33.43146231918715,0.8642592361399994,0.5251401821036116,Right,Incorrect,0.0,0.0,-45,45,2897,-1,-1
"{'cat': 'II', 'resp': 'button'}",23,171,Left,47.0619076243607,78.75319853280268,2.3530953812180346,1.2370523497867572,Left,Correct,0.0,0.0,-45,45,8446,-1,-1
"{'cat': 'II', 'resp': 'button'}",23,172,Right,78.94335095585477,47.26385620437594,3.9471675477927386,0.7424189171599592,Right,Correct,0.0,0.0,-45,45,1700,-1,-1
"{'cat': 'II', 'resp': 'button'}",23,173,Right,31.771456910832118,12.284681804406983,1.588572845541606,0.19296733054206588,Left,Incorrect,0.0,0.0,-45,45,4449,-1,-1
"{'cat': 'II', 'resp': 'button'}",23,174,Left,62.06909890056806,77.57439927819156,3.103454945028403,1.21853581439504,Right,Incorrect,0.0,0.0,-45,45,817,-1,-1
"{'cat': 'II', 'resp': 'button'}",23,175,Left,18.317601837491893,36.587247426023396,0.9158800918745946,0.5747111386433359,107,Incorrect,0.0,0.0,-45,45,67,-1,-1
"{'cat': 'II', 'resp': 'button'}",23,176,Left,40.067805078696644,65.99535966787852,2.0033902539348323,1.0366526855181166,Right,Incorrect,0.0,0.0,-45,45,859,-1,-1
"{'cat': 'II', 'resp': 'button'}",23,177,Right,55.09765247139074,26.655578670870597,2.7548826235695367,0.4187048506479592,Left,Incorrect,0.0,0.0,-45,45,610,-1,-1
"{'cat': 'II', 'resp': 'button'}",23,178,Right,37.72504225483838,26.48057706679669,1.8862521127419187,0.41595593187933416,Right,Correct,0.0,0.0,-45,45,987,-1,-1
"{'cat': 'II', 'resp': 'button'}",23,179,Left,23.49140704779528,46.091527527963244,1.174570352389764,0.7240040213729052,Right,Incorrect,0.0,0.0,-45,45,6188,-1,-1
"{'cat': 'II', 'resp': 'button'}",23,180,Left,40.18612667688305,65.4040184556576,2.0093063338441524,1.0273639194777258,Right,Incorrect,0.0,0.0,-45,45,3528,-1,-1
"{'cat': 'II', 'resp': 'button'}",23,181,Left,40.71214524457867,58.28538274260894,2.0356072622289334,0.9155446511792478,Left,Correct,0.0,0.0,-45,45,483,-1,-1
"{'cat': 'II', 'resp': 'button'}",23,182,Left,24.64972150895101,53.74344229487664,1.2324860754475506,0.844200017461057,Right,Incorrect,0.0,0.0,-45,45,1325,-1,-1
"{'cat': 'II', 'resp': 'button'}",23,183,Left,14.750405815848683,41.41261539413783,0.7375202907924341,0.650507841440815,Right,Incorrect,0.0,0.0,-45,45,1173,-1,-1
"{'cat': 'II', 'resp': 'button'}",23,184,Right,59.82238597329194,34.954659639604024,2.9911192986645965,0.5490665096625582,Left,Incorrect,0.0,0.0,-45,45,1700,-1,-1
"{'cat': 'II', 'resp': 'button'}",23,185,Left,49.57572629470521,77.7218295717349,2.478786314735261,1.2208516440306014,Right,Incorrect,0.0,0.0,-45,45,12998,-1,-1
"{'cat': 'II', 'resp': 'button'}",23,186,Left,13.831535405649998,34.4964337658366,0.6915767702825,0.5418687144689956,Right,Incorrect,0.0,0.0,-45,45,796,-1,-1
"{'cat': 'II', 'resp': 'button'}",23,187,Right,69.86490155249322,44.25012283199955,3.4932450776246613,0.6950793040472788,Right,Correct,0.0,0.0,-45,45,397,-1,-1
"{'cat': 'II', 'resp': 'button'}",23,188,Left,67.94643956146226,82.30019906614314,3.397321978073113,1.292768503875864,Right,Incorrect,0.0,0.0,-45,45,1589,-1,-1
"{'cat': 'II', 'resp': 'button'}",23,189,Right,47.95595524902606,40.65979351394539,2.397797762451303,0.6386825429994437,Left,Incorrect,0.0,0.0,-45,45,1600,-1,-1
"{'cat': 'II', 'resp': 'button'}",23,190,Left,41.138874267243395,64.76784219053225,2.0569437133621697,1.0173708860731958,Right,Incorrect,0.0,0.0,-45,45,1789,-1,-1
"{'cat': 'II', 'resp': 'button'}",23,191,Left,66.80988386845205,87.27958487926139,3.3404941934226025,1.3709845133252718,Right,Incorrect,0.0,0.0,-45,45,1270,-1,-1
"{'cat': 'II', 'resp': 'button'}",23,192,Left,53.64506176445957,69.02522442467911,2.6822530882229785,1.0842456898247934,Left,Correct,0.0,0.0,-45,45,538,-1,-1
"{'cat': 'II', 'resp': 'button'}",23,193,Right,69.3829393240628,42.55474344770087,3.4691469662031404,0.6684483469534772,Left,Incorrect,0.0,0.0,-45,45,24926,-1,-1
"{'cat': 'II', 'resp': 'button'}",23,194,Right,31.450667261082486,18.02281027154303,1.5725333630541243,0.2831016417306112,Right,Correct,0.0,0.0,-45,45,866,-1,-1
"{'cat': 'II', 'resp': 'button'}",23,195,Right,74.9796309426647,58.82053320748828,3.748981547133235,0.9239507750243983,Left,Incorrect,0.0,0.0,-45,45,864,-1,-1
"{'cat': 'II', 'resp': 'button'}",23,196,Right,35.94191931064843,19.944077656713116,1.7970959655324215,0.3132808392447713,Right,Correct,0.0,0.0,-45,45,1327,-1,-1
"{'cat': 'II', 'resp': 'button'}",23,197,Right,49.324895091504565,34.89012250935784,2.466244754575228,0.5480527627912324,Left,Incorrect,0.0,0.0,-45,45,13040,-1,-1
"{'cat': 'II', 'resp': 'button'}",23,198,Right,72.08370622365084,44.95742321006261,3.6041853111825417,0.7061895524052997,Right,Correct,0.0,0.0,-45,45,448,-1,-1
"{'cat': 'II', 'resp': 'button'}",23,199,Right,67.16107426275592,46.360477202101876,3.358053713137796,0.7282286729752017,Right,Correct,0.0,0.0,-45,45,924,-1,-1
"{'cat': 'II', 'resp': 'button'}",23,200,Right,39.38090871848339,14.189229137889832,1.9690454359241696,0.22288389009848464,Right,Correct,0.0,0.0,-45,45,5608,-1,-1
"{'cat': 'II', 'resp': 'button'}",23,201,Right,73.61984280407272,41.95308867779549,3.680992140203636,0.6589975759278172,100,Correct,0.0,0.0,-45,45,778,-1,-1
"{'cat': 'II', 'resp': 'button'}",23,202,Right,51.149103761669856,36.13632565965897,2.557455188083493,0.5676280761005648,Left,Incorrect,0.0,0.0,-45,45,305,-1,-1
"{'cat': 'II', 'resp': 'button'}",23,203,Left,28.022235023588717,52.24482922547555,1.401111751179436,0.8206598584140364,Right,Incorrect,0.0,0.0,-45,45,887,-1,-1
"{'cat': 'II', 'resp': 'button'}",23,204,Right,76.081560994463,47.5379363943891,3.8040780497231506,0.7467241587171582,Right,Correct,0.0,0.0,-45,45,430,-1,-1
"{'cat': 'II', 'resp': 'button'}",23,205,Left,41.527444579730385,54.02881248094225,2.0763722289865196,0.8486826018615434,107,Correct,0.0,0.0,-45,45,690,-1,-1
"{'cat': 'II', 'resp': 'button'}",23,206,Right,63.40087122468882,45.586334832107745,3.170043561234441,0.7160684730631709,100,Correct,0.0,0.0,-45,45,1366,-1,-1
"{'cat': 'II', 'resp': 'button'}",23,207,Left,61.57258398284494,81.15216661583912,3.078629199142247,1.274735252316075,107,Correct,0.0,0.0,-45,45,353,-1,-1
"{'cat': 'II', 'resp': 'button'}",23,208,Left,53.797209257339134,76.88995908327783,2.6898604628669567,1.207784652954227,107,Correct,0.0,0.0,-45,45,171,-1,-1
"{'cat': 'II', 'resp': 'button'}",23,209,Right,73.90503843138502,48.803588436437025,3.6952519215692514,0.7666049745036515,107,Incorrect,0.0,0.0,-45,45,380,-1,-1
"{'cat': 'II', 'resp': 'button'}",23,210,Right,32.65704620079954,13.273198944102656,1.632852310039977,0.20849492146214357,Right,Correct,0.0,0.0,-45,45,637,-1,-1
"{'cat': 'II', 'resp': 'button'}",23,211,Left,63.42426055349089,74.27992918326008,3.1712130276745443,1.1667863991564997,Left,Correct,0.0,0.0,-45,45,386,-1,-1
"{'cat': 'II', 'resp': 'button'}",23,212,Left,39.85203507607184,49.93738215213006,1.992601753803592,0.7844145645431894,Right,Incorrect,0.0,0.0,-45,45,690,-1,-1
"{'cat': 'II', 'resp': 'button'}",23,213,Right,76.52872115237038,47.89355458700816,3.826436057618519,0.7523101962242328,Left,Incorrect,0.0,0.0,-45,45,2114,-1,-1
"{'cat': 'II', 'resp': 'button'}",23,214,Left,52.23805449840794,60.43503218414812,2.6119027249203968,0.9493112656459122,Right,Incorrect,0.0,0.0,-45,45,344,-1,-1
"{'cat': 'II', 'resp': 'button'}",23,215,Left,55.95369375943776,83.0299288140931,2.797684687971888,1.304231071952192,Right,Incorrect,0.0,0.0,-45,45,1351,-1,-1
"{'cat': 'II', 'resp': 'button'}",23,216,Right,84.78426850371388,65.26432264340295,4.239213425185693,1.0251695827901435,107,Incorrect,0.0,0.0,-45,45,317,-1,-1
"{'cat': 'II', 'resp': 'button'}",23,217,Right,63.293319436666266,37.72786061954818,3.164665971833313,0.5926278487901612,Right,Correct,0.0,0.0,-45,45,919,-1,-1
"{'cat': 'II', 'resp': 'button'}",23,218,Left,21.776047479790815,42.92917606636715,1.0888023739895407,0.674329920773809,Right,Incorrect,0.0,0.0,-45,45,2493,-1,-1
"{'cat': 'II', 'resp': 'button'}",23,219,Left,39.83961438724374,64.67074931435255,1.991980719362187,1.0158457547405857,Left,Correct,0.0,0.0,-45,45,11068,-1,-1
"{'cat': 'II', 'resp': 'button'}",23,220,Right,39.40730786745038,23.84056954691991,1.970365393372519,0.3744867907300007,Right,Correct,0.0,0.0,-45,45,3176,-1,-1
"{'cat': 'II', 'resp': 'button'}",23,221,Right,65.52127591532509,55.87154625715121,3.2760637957662544,0.8776281963308429,Right,Correct,0.0,0.0,-45,45,998,-1,-1
"{'cat': 'II', 'resp': 'button'}",23,222,Right,37.8014162161701,26.840331791903974,1.8900708108085047,0.4216069458867905,Left,Incorrect,0.0,0.0,-45,45,449,-1,-1
"{'cat': 'II', 'resp': 'button'}",23,223,Left,47.18998537363404,56.46418537343712,2.359499268681702,0.8869373498006116,Right,Incorrect,0.0,0.0,-45,45,2742,-1,-1
"{'cat': 'II', 'resp': 'button'}",23,224,Right,65.61847170118621,41.03386055972872,3.2809235850593104,0.6445583744143585,Right,Correct,0.0,0.0,-45,45,291,-1,-1
"{'cat': 'II', 'resp': 'button'}",23,225,Left,47.45680329914364,64.32508383116549,2.3728401649571818,1.0104160540276854,Left,Correct,0.0,0.0,-45,45,819,-1,-1
"{'cat': 'II', 'resp': 'button'}",23,226,Right,60.83590177030969,44.422215108041314,3.0417950885154847,0.6977825231980406,Right,Correct,0.0,0.0,-45,45,382,-1,-1
"{'cat': 'II', 'resp': 'button'}",23,227,Right,69.57362604399543,50.11524462218549,3.478681302199772,0.7872084216895666,Right,Correct,0.0,0.0,-45,45,240,-1,-1
"{'cat': 'II', 'resp': 'button'}",23,228,Right,33.65947064243935,22.189165904254246,1.6829735321219674,0.3485466029704513,Left,Incorrect,0.0,0.0,-45,45,386,-1,-1
"{'cat': 'II', 'resp': 'button'}",23,229,Left,20.865659032382393,44.40298446993924,1.0432829516191198,0.6974804490411141,Right,Incorrect,0.0,0.0,-45,45,8675,-1,-1
"{'cat': 'II', 'resp': 'button'}",23,230,Left,45.468531335549805,70.49746965099406,2.2734265667774904,1.107371663761162,Left,Correct,0.0,0.0,-45,45,636,-1,-1
"{'cat': 'II', 'resp': 'button'}",23,231,Right,59.62913789963032,39.770880706980705,2.981456894981516,0.624719533279233,Right,Correct,0.0,0.0,-45,45,4626,-1,-1
"{'cat': 'II', 'resp': 'button'}",23,232,Left,51.72778136670614,62.300330768759395,2.5863890683353072,0.9786113072967433,Left,Correct,0.0,0.0,-45,45,1745,-1,-1
"{'cat': 'II', 'resp': 'button'}",23,233,Right,74.68184919525442,63.50248047597578,3.7340924597627208,0.9974946307402738,Right,Correct,0.0,0.0,-45,45,2755,-1,-1
"{'cat': 'II', 'resp': 'button'}",23,234,Left,17.3842007187377,39.251940096277735,0.869210035936885,0.6165680332280639,Right,Incorrect,0.0,0.0,-45,45,284,-1,-1
"{'cat': 'II', 'resp': 'button'}",23,235,Left,34.275263241659424,48.347884546654555,1.7137631620829712,0.7594467945418871,Right,Incorrect,0.0,0.0,-45,45,267,-1,-1
"{'cat': 'II', 'resp': 'button'}",23,236,Right,72.83270359095965,44.03107726442829,3.641635179547983,0.6916385443178624,Right,Correct,0.0,0.0,-45,45,211,-1,-1
"{'cat': 'II', 'resp': 'button'}",23,237,Right,61.30518670344352,49.07603037976954,3.065259335172176,0.7708844825421676,Left,Incorrect,0.0,0.0,-45,45,632,-1,-1
"{'cat': 'II', 'resp': 'button'}",23,238,Right,84.29805949234083,60.64448427360951,4.214902974617042,0.9526013313735668,Left,Incorrect,0.0,0.0,-45,45,162,-1,-1
"{'cat': 'II', 'resp': 'button'}",23,239,Right,50.10023855969329,20.26315091282845,2.5050119279846643,0.3182928302316158,115,Incorrect,0.0,0.0,-45,45,217,-1,-1
"{'cat': 'II', 'resp': 'button'}",23,240,Right,84.4848271826126,55.48099827401795,4.22424135913063,0.8714934829574139,Left,Incorrect,0.0,0.0,-45,45,255,-1,-1
"{'cat': 'II', 'resp': 'button'}",23,241,Right,56.37742669263087,39.535420488577856,2.8188713346315435,0.6210209328174979,Left,Incorrect,0.0,0.0,-45,45,169,-1,-1
"{'cat': 'II', 'resp': 'button'}",23,242,Left,30.075782978185053,56.43211524844802,1.5037891489092527,0.8864335934552843,Left,Correct,0.0,0.0,-45,45,99,-1,-1
"{'cat': 'II', 'resp': 'button'}",23,243,Left,18.19621248816413,40.958104336709646,0.9098106244082064,0.6433683984458564,Left,Correct,0.0,0.0,-45,45,238,-1,-1
"{'cat': 'II', 'resp': 'button'}",23,244,Right,81.40455826285147,56.251174106831016,4.070227913142573,0.8835913766491035,Right,Correct,0.0,0.0,-45,45,226,-1,-1
"{'cat': 'II', 'resp': 'button'}",23,245,Right,67.79617949491256,58.129816359286494,3.389808974745628,0.9131010201442911,Right,Correct,0.0,0.0,-45,45,294,-1,-1
"{'cat': 'II', 'resp': 'button'}",23,246,Right,35.61040836395003,23.279928629131913,1.7805204181975014,0.36568026378687757,Left,Incorrect,0.0,0.0,-45,45,427,-1,-1
"{'cat': 'II', 'resp': 'button'}",23,247,Right,58.99959987382794,42.79942716731422,2.9499799936913966,0.6722918298334288,Right,Correct,0.0,0.0,-45,45,1714,-1,-1
"{'cat': 'II', 'resp': 'button'}",23,248,Right,63.857699333545966,32.83349711458751,3.192884966677298,0.5157473666342489,Left,Incorrect,0.0,0.0,-45,45,12973,-1,-1
"{'cat': 'II', 'resp': 'button'}",23,249,Left,30.809290387412894,50.71103953199459,1.5404645193706445,0.7965671462480789,Right,Incorrect,0.0,0.0,-45,45,573,-1,-1
"{'cat': 'II', 'resp': 'button'}",23,250,Right,65.01028315749036,50.69594825741563,3.250514157874518,0.7963300930613261,107,Correct,0.0,0.0,-45,45,116,-1,-1
"{'cat': 'II', 'resp': 'button'}",23,251,Left,24.762182050929518,43.71894755438872,1.2381091025464759,0.6867356222977252,Left,Correct,0.0,0.0,-45,45,393,-1,-1
"{'cat': 'II', 'resp': 'button'}",23,252,Right,46.300998792423535,33.86472606895674,2.315049939621177,0.5319458731703263,Right,Correct,0.0,0.0,-45,45,1764,-1,-1
"{'cat': 'II', 'resp': 'button'}",23,253,Left,24.396608945724527,37.42543151811887,1.2198304472862262,0.5878773035737507,Right,Incorrect,0.0,0.0,-45,45,613,-1,-1
"{'cat': 'II', 'resp': 'button'}",23,254,Right,52.950077307539686,29.834558768423186,2.6475038653769842,0.46864015324985614,Right,Correct,0.0,0.0,-45,45,227,-1,-1
"{'cat': 'II', 'resp': 'button'}",23,255,Right,41.7854785608355,18.975125837552298,2.089273928041775,0.2980605796609809,Left,Incorrect,0.0,0.0,-45,45,864,-1,-1
"{'cat': 'II', 'resp': 'button'}",23,256,Right,65.42139805781005,33.474387538991614,3.2710699028905026,0.5258144498795688,Right,Correct,0.0,0.0,-45,45,329,-1,-1
"{'cat': 'II', 'resp': 'button'}",23,257,Right,42.47924901153199,27.525392129954717,2.1239624505765993,0.43236784851322024,107,Incorrect,0.0,0.0,-45,45,3845,-1,-1
"{'cat': 'II', 'resp': 'button'}",23,258,Right,77.49035979382425,56.21108680994648,3.874517989691213,0.88296168686213,Right,Correct,0.0,0.0,-45,45,607,-1,-1
"{'cat': 'II', 'resp': 'button'}",23,259,Left,31.51784861755091,56.15451675333519,1.5758924308775455,0.882073086490814,Right,Incorrect,0.0,0.0,-45,45,1213,-1,-1
"{'cat': 'II', 'resp': 'button'}",23,260,Right,63.285691590948474,36.97984328273417,3.1642845795474237,0.5808780199396976,Right,Correct,0.0,0.0,-45,45,509,-1,-1
"{'cat': 'II', 'resp': 'button'}",23,261,Left,41.99528801526697,55.15091704202017,2.0997644007633487,0.8663085790897533,Left,Correct,0.0,0.0,-45,45,3058,-1,-1
"{'cat': 'II', 'resp': 'button'}",23,262,Left,38.04547602898062,53.69505144072804,1.9022738014490312,0.8434398957015862,Right,Incorrect,0.0,0.0,-45,45,1604,-1,-1
"{'cat': 'II', 'resp': 'button'}",23,263,Left,23.325237714068276,50.304643878860134,1.166261885703414,0.7901834982563887,Right,Incorrect,0.0,0.0,-45,45,429,-1,-1
"{'cat': 'II', 'resp': 'button'}",23,264,Right,42.09428030442383,22.54482917395049,2.1047140152211914,0.3541333485465985,Left,Incorrect,0.0,0.0,-45,45,802,-1,-1
"{'cat': 'II', 'resp': 'button'}",23,265,Left,47.97044103472004,78.84830080610384,2.398522051736002,1.2385462128024698,Right,Incorrect,0.0,0.0,-45,45,3341,-1,-1
"{'cat': 'II', 'resp': 'button'}",23,266,Left,32.753591868001486,65.4880047529298,1.6376795934000743,1.0286831731502886,Right,Incorrect,0.0,0.0,-45,45,3066,-1,-1
"{'cat': 'II', 'resp': 'button'}",23,267,Left,49.23881821359863,61.690029940274584,2.4619409106799313,0.9690247243005052,Left,Correct,0.0,0.0,-45,45,369,-1,-1
"{'cat': 'II', 'resp': 'button'}",23,268,Left,28.415079785774324,57.59366301766859,1.420753989288716,0.9046791431481689,Right,Incorrect,0.0,0.0,-45,45,569,-1,-1
"{'cat': 'II', 'resp': 'button'}",23,269,Right,85.32273446873708,65.27140687207691,4.266136723436854,1.0252808615939357,Right,Correct,0.0,0.0,-45,45,1523,-1,-1
"{'cat': 'II', 'resp': 'button'}",23,270,Right,78.71555919471767,65.16152521812771,3.9357779597358835,1.02355484460988,Left,Incorrect,0.0,0.0,-45,45,2392,-1,-1
"{'cat': 'II', 'resp': 'button'}",23,271,Right,72.50236813598397,51.99482320427177,3.6251184067991984,0.8167327730162015,Right,Correct,0.0,0.0,-45,45,1863,-1,-1
"{'cat': 'II', 'resp': 'button'}",23,272,Right,46.340425374573925,23.775491545973075,2.317021268728696,0.3734645478815762,Right,Correct,0.0,0.0,-45,45,4616,-1,-1
"{'cat': 'II', 'resp': 'button'}",23,273,Left,51.515197045003006,58.456644282055514,2.57575985225015,0.9182348211500867,Left,Correct,0.0,0.0,-45,45,936,-1,-1
"{'cat': 'II', 'resp': 'button'}",23,274,Left,30.064253589333177,57.40368991052854,1.503212679466659,0.901695052559315,Left,Correct,0.0,0.0,-45,45,1156,-1,-1
"{'cat': 'II', 'resp': 'button'}",23,275,Right,55.664935086636376,31.331501849295567,2.783246754331819,0.4921540801784098,Right,Correct,0.0,0.0,-45,45,603,-1,-1
"{'cat': 'II', 'resp': 'button'}",23,276,Left,62.4489319261896,75.13124628353087,3.1224465963094805,1.1801588568969301,Left,Correct,0.0,0.0,-45,45,709,-1,-1
"{'cat': 'II', 'resp': 'button'}",23,277,Left,57.116126668359506,65.9635452886485,2.8558063334179753,1.0361529464177788,Right,Incorrect,0.0,0.0,-45,45,755,-1,-1
"{'cat': 'II', 'resp': 'button'}",23,278,Right,78.24610930983565,66.01221767608658,3.9123054654917824,1.0369174904918192,Left,Incorrect,0.0,0.0,-45,45,535,-1,-1
"{'cat': 'II', 'resp': 'button'}",23,279,Left,55.61861821762748,79.56082912563079,2.780930910881374,1.2497385814729727,Left,Correct,0.0,0.0,-45,45,280,-1,-1
"{'cat': 'II', 'resp': 'button'}",23,280,Right,82.19364861523914,67.0120675928735,4.109682430761957,1.0526230962581702,Right,Correct,0.0,0.0,-45,45,4331,-1,-1
"{'cat': 'II', 'resp': 'button'}",23,281,Left,36.947807250989925,52.26763579732698,1.847390362549496,0.8210181032069467,Left,Correct,0.0,0.0,-45,45,1157,-1,-1
"{'cat': 'II', 'resp': 'button'}",23,282,Left,54.58979425042885,73.27175211120763,2.7294897125214423,1.1509499907411116,Right,Incorrect,0.0,0.0,-45,45,909,-1,-1
"{'cat': 'II', 'resp': 'button'}",23,283,Right,47.42957335919824,39.23971829004715,2.3714786679599116,0.6163760535447259,Left,Incorrect,0.0,0.0,-45,45,3072,-1,-1
"{'cat': 'II', 'resp': 'button'}",23,284,Right,68.4485122629752,40.80665755157222,3.4224256131487603,0.6409894779078688,Right,Correct,0.0,0.0,-45,45,1021,-1,-1
"{'cat': 'II', 'resp': 'button'}",23,285,Right,53.96054974783434,31.078374562792682,2.698027487391717,0.488177966059907,Left,Incorrect,0.0,0.0,-45,45,3852,-1,-1
"{'cat': 'II', 'resp': 'button'}",23,286,Left,64.78331807303582,81.60606495380836,3.239165903651791,1.281865070736279,Right,Incorrect,0.0,0.0,-45,45,3333,-1,-1
"{'cat': 'II', 'resp': 'button'}",23,287,Left,52.392772995432566,81.88650080581681,2.619638649771628,1.286270146798644,Left,Correct,0.0,0.0,-45,45,334,-1,-1
"{'cat': 'II', 'resp': 'button'}",23,288,Right,78.44031250030817,46.40651622397002,3.9220156250154083,0.7289518522395988,Left,Incorrect,0.0,0.0,-45,45,1785,-1,-1
"{'cat': 'II', 'resp': 'button'}",23,289,Right,47.539686886960254,29.964639607104655,2.3769843443480125,0.4706834582857286,Right,Correct,0.0,0.0,-45,45,944,-1,-1
"{'cat': 'II', 'resp': 'button'}",23,290,Right,46.617652925179314,17.956378688140926,2.3308826462589654,0.2820581368586993,100,Correct,0.0,0.0,-45,45,1110,-1,-1
"{'cat': 'II', 'resp': 'button'}",23,291,Right,77.79896309898521,61.7912079838782,3.8899481549492605,0.9706140252929537,107,Incorrect,0.0,0.0,-45,45,257,-1,-1
"{'cat': 'II', 'resp': 'button'}",23,292,Left,28.220573458522747,51.404757203594414,1.4110286729261372,0.807464037951896,107,Correct,0.0,0.0,-45,45,243,-1,-1
"{'cat': 'II', 'resp': 'button'}",23,293,Right,86.24616032434469,59.52816959135378,4.3123080162172345,0.9350663013492218,107,Incorrect,0.0,0.0,-45,45,418,-1,-1
"{'cat': 'II', 'resp': 'button'}",23,294,Right,78.58036508130729,55.237422415270345,3.9290182540653644,0.8676674023152475,Right,Correct,0.0,0.0,-45,45,458,-1,-1
"{'cat': 'II', 'resp': 'button'}",23,295,Right,32.08165186468664,17.006630165779804,1.604082593234332,0.26713952195566204,Left,Incorrect,0.0,0.0,-45,45,738,-1,-1
"{'cat': 'II', 'resp': 'button'}",23,296,Left,27.324173181884923,48.32882585747353,1.3662086590942462,0.7591474213522965,Right,Incorrect,0.0,0.0,-45,45,1760,-1,-1
"{'cat': 'II', 'resp': 'button'}",23,297,Left,25.224566842218152,41.90119894003681,1.2612283421109076,0.6581824938331203,Left,Correct,0.0,0.0,-45,45,3155,-1,-1
"{'cat': 'II', 'resp': 'button'}",23,298,Left,65.1385872576571,83.04168726618641,3.256929362882855,1.3044157732857615,Left,Correct,0.0,0.0,-45,45,3694,-1,-1
"{'cat': 'II', 'resp': 'button'}",23,299,Left,40.86183712221911,57.50619883836322,2.0430918561109555,0.903305259032379,Right,Incorrect,0.0,0.0,-45,45,1378,-1,-1
"{'cat': 'II', 'resp': 'button'}",23,300,Left,16.883416163066766,33.01845208370911,0.8441708081533383,0.5186526324954357,Left,Correct,0.0,0.0,-45,45,513,-1,-1
"{'cat': 'II', 'resp': 'button'}",23,301,Right,63.69358690505412,35.08124194604845,3.184679345252706,0.5510548598825595,Right,Correct,0.0,0.0,-45,45,746,-1,-1
"{'cat': 'II', 'resp': 'button'}",23,302,Right,65.22944710895064,49.13891522655533,3.261472355447532,0.7718722754055892,Left,Incorrect,0.0,0.0,-45,45,425,-1,-1
"{'cat': 'II', 'resp': 'button'}",23,303,Right,62.742084907805975,47.06077120185075,3.1371042453902986,0.7392288654000221,Right,Correct,0.0,0.0,-45,45,284,-1,-1
"{'cat': 'II', 'resp': 'button'}",23,304,Left,36.06547813397419,48.638359897718345,1.8032739066987094,0.7640095706866419,Left,Correct,0.0,0.0,-45,45,1188,-1,-1
"{'cat': 'II', 'resp': 'button'}",23,305,Right,52.800775323100105,25.20736567148496,2.6400387661550053,0.39595637404944345,Left,Incorrect,0.0,0.0,-45,45,1263,-1,-1
"{'cat': 'II', 'resp': 'button'}",23,306,Left,50.24063758808135,69.59781347644353,2.5120318794040672,1.0932398976175384,Right,Incorrect,0.0,0.0,-45,45,1464,-1,-1
"{'cat': 'II', 'resp': 'button'}",23,307,Right,47.458076684042595,39.29148324658427,2.3729038342021296,0.6171891755805778,Right,Correct,0.0,0.0,-45,45,206,-1,-1
"{'cat': 'II', 'resp': 'button'}",23,308,Right,38.028919620891315,19.314771523772713,1.9014459810445659,0.3033957216242484,Left,Incorrect,0.0,0.0,-45,45,1174,-1,-1
"{'cat': 'II', 'resp': 'button'}",23,309,Left,33.4174894741449,53.67868728211771,1.670874473707245,0.8431828480992242,Right,Incorrect,0.0,0.0,-45,45,749,-1,-1
"{'cat': 'II', 'resp': 'button'}",23,310,Right,66.91391696413994,54.054701254720925,3.345695848206997,0.849089261769111,107,Incorrect,0.0,0.0,-45,45,457,-1,-1
"{'cat': 'II', 'resp': 'button'}",23,311,Right,84.19242141668119,57.41968357416161,4.20962107083406,0.9019462804401831,Right,Correct,0.0,0.0,-45,45,594,-1,-1
"{'cat': 'II', 'resp': 'button'}",23,312,Left,57.36625137384061,69.6498654386164,2.8683125686920308,1.0940575279273748,Left,Correct,0.0,0.0,-45,45,1241,-1,-1
"{'cat': 'II', 'resp': 'button'}",23,313,Right,73.85845282506699,43.360656906626275,3.6929226412533493,0.6811076059634231,Right,Correct,0.0,0.0,-45,45,286,-1,-1
"{'cat': 'II', 'resp': 'button'}",23,314,Left,58.43955870322468,71.2949819679164,2.921977935161234,1.1198989579411147,Right,Incorrect,0.0,0.0,-45,45,229,-1,-1
"{'cat': 'II', 'resp': 'button'}",23,315,Left,53.42540149020739,68.66598918407551,2.6712700745103692,1.078602835860839,Left,Correct,0.0,0.0,-45,45,1146,-1,-1
"{'cat': 'II', 'resp': 'button'}",23,316,Left,43.38429582977273,59.28389464466551,2.1692147914886366,0.9312292394593623,Left,Correct,0.0,0.0,-45,45,1689,-1,-1
"{'cat': 'II', 'resp': 'button'}",23,317,Right,86.47719638887075,60.94642411590506,4.323859819443538,0.9573441913254758,Right,Correct,0.0,0.0,-45,45,3743,-1,-1
"{'cat': 'II', 'resp': 'button'}",23,318,Right,59.575596833766355,46.53053549710176,2.9787798416883176,0.7308999424264698,Right,Correct,0.0,0.0,-45,45,939,-1,-1
"{'cat': 'II', 'resp': 'button'}",23,319,Right,61.05887901779708,51.9736358753926,3.0529439508898544,0.8163999632324217,Left,Incorrect,0.0,0.0,-45,45,441,-1,-1
"{'cat': 'II', 'resp': 'button'}",23,320,Right,69.58371738659434,55.48270392227844,3.4791858693297173,0.8715202752176376,Right,Correct,0.0,0.0,-45,45,737,-1,-1
"{'cat': 'II', 'resp': 'button'}",23,321,Left,37.24155168639038,60.70069233330114,1.862077584319519,0.9534842455105657,Right,Incorrect,0.0,0.0,-45,45,238,-1,-1
"{'cat': 'II', 'resp': 'button'}",23,322,Left,23.317745655514425,37.89802943006484,1.1658872827757214,0.5953008542151074,Right,Incorrect,0.0,0.0,-45,45,262,-1,-1
"{'cat': 'II', 'resp': 'button'}",23,323,Right,39.13837406167916,15.022021072751539,1.9569187030839579,0.23596535522113646,Left,Incorrect,0.0,0.0,-45,45,616,-1,-1
"{'cat': 'II', 'resp': 'button'}",23,324,Left,67.31997352881451,86.76870837523941,3.3659986764407255,1.3629596839656366,Right,Incorrect,0.0,0.0,-45,45,6147,-1,-1
"{'cat': 'II', 'resp': 'button'}",23,325,Right,78.06740499501252,60.21131758298708,3.903370249750626,0.9457971649083707,Right,Correct,0.0,0.0,-45,45,424,-1,-1
"{'cat': 'II', 'resp': 'button'}",23,326,Left,41.552101870447245,66.65671108582889,2.0776050935223624,1.047041169298487,Right,Incorrect,0.0,0.0,-45,45,8850,-1,-1
"{'cat': 'II', 'resp': 'button'}",23,327,Left,62.633746469540995,79.14846648930875,3.13168732347705,1.2432612043285514,Right,Incorrect,0.0,0.0,-45,45,757,-1,-1
"{'cat': 'II', 'resp': 'button'}",23,328,Left,17.82714150528159,33.720907215646704,0.8913570752640794,0.5296867719052937,Left,Correct,0.0,0.0,-45,45,4991,-1,-1
"{'cat': 'II', 'resp': 'button'}",23,329,Left,32.25093621436952,54.27203580478647,1.612546810718476,0.852503144898397,Right,Incorrect,0.0,0.0,-45,45,827,-1,-1
"{'cat': 'II', 'resp': 'button'}",23,330,Right,48.539941604402344,21.58915872884186,2.4269970802201173,0.3391217122985677,Left,Incorrect,0.0,0.0,-45,45,599,-1,-1
"{'cat': 'II', 'resp': 'button'}",23,331,Right,43.31382822262043,35.72462290286518,2.1656914111310215,0.5611610643195346,Right,Correct,0.0,0.0,-45,45,3209,-1,-1
"{'cat': 'II', 'resp': 'button'}",23,332,Left,43.288099385608746,58.60557787547166,2.1644049692804375,0.9205742645648314,100,Incorrect,0.0,0.0,-45,45,1455,-1,-1
"{'cat': 'II', 'resp': 'button'}",23,333,Right,64.70831302873086,31.88673452718905,3.2354156514365426,0.5008756546879256,Left,Incorrect,0.0,0.0,-45,45,634,-1,-1
"{'cat': 'II', 'resp': 'button'}",23,334,Left,61.941941143317145,78.87820874669194,3.0970970571658576,1.239016005634648,Right,Incorrect,0.0,0.0,-45,45,1227,-1,-1
"{'cat': 'II', 'resp': 'button'}",23,335,Right,58.081521423323025,29.804186572832307,2.904076071166151,0.46816306791714773,Right,Correct,0.0,0.0,-45,45,791,-1,-1
"{'cat': 'II', 'resp': 'button'}",23,336,Left,28.118686468367155,52.940395710011344,1.405934323418358,0.8315857912035414,Left,Correct,0.0,0.0,-45,45,1283,-1,-1
"{'cat': 'II', 'resp': 'button'}",23,337,Right,72.8085915889022,56.30374902563777,3.6404295794451103,0.8844172215425353,Right,Correct,0.0,0.0,-45,45,359,-1,-1
"{'cat': 'II', 'resp': 'button'}",23,338,Right,67.08785345589972,36.87929639173554,3.354392672794986,0.5792986330691846,Right,Correct,0.0,0.0,-45,45,228,-1,-1
"{'cat': 'II', 'resp': 'button'}",23,339,Left,25.643767289238603,52.328308042063384,1.2821883644619303,0.8219711405986502,100,Correct,0.0,0.0,-45,45,46,-1,-1
"{'cat': 'II', 'resp': 'button'}",23,340,Right,65.70462561932976,35.186772858794605,3.285231280966488,0.5527125355836092,107,Correct,0.0,0.0,-45,45,220,-1,-1
"{'cat': 'II', 'resp': 'button'}",23,341,Left,29.96312726002681,54.98534854286481,1.4981563630013404,0.8637078351866917,100,Correct,0.0,0.0,-45,45,124,-1,-1
"{'cat': 'II', 'resp': 'button'}",23,342,Right,81.3766159314327,63.09238822042197,4.068830796571635,0.9910529166535643,100,Incorrect,0.0,0.0,-45,45,92,-1,-1
"{'cat': 'II', 'resp': 'button'}",23,343,Right,56.97011274346441,31.983829525110213,2.8485056371732207,0.5024008193487729,107,Correct,0.0,0.0,-45,45,219,-1,-1
"{'cat': 'II', 'resp': 'button'}",23,344,Right,60.647428182161136,40.954178009877985,3.032371409108057,0.6433067238482065,107,Correct,0.0,0.0,-45,45,115,-1,-1
"{'cat': 'II', 'resp': 'button'}",23,345,Left,30.758467434848093,50.42165185638692,1.5379233717424046,0.7920214552694366,107,Incorrect,0.0,0.0,-45,45,89,-1,-1
"{'cat': 'II', 'resp': 'button'}",23,346,Right,47.83127898165999,30.399519491305547,2.3915639490829994,0.4775145355327261,107,Correct,0.0,0.0,-45,45,215,-1,-1
"{'cat': 'II', 'resp': 'button'}",23,347,Left,65.10081524454912,81.52829512798772,3.2550407622274564,1.2806434651689336,100,Correct,0.0,0.0,-45,45,219,-1,-1
"{'cat': 'II', 'resp': 'button'}",23,348,Left,29.167911706603665,44.147009482240655,1.4583955853301833,0.6934596033368309,107,Incorrect,0.0,0.0,-45,45,151,-1,-1
"{'cat': 'II', 'resp': 'button'}",23,349,Left,46.79239673937017,76.4559695844482,2.339619836968508,1.2009675618479356,100,Correct,0.0,0.0,-45,45,149,-1,-1
"{'cat': 'II', 'resp': 'button'}",23,350,Left,48.78594504638192,68.72770248454302,2.439297252319096,1.0795722261177265,107,Incorrect,0.0,0.0,-45,45,71,-1,-1
"{'cat': 'II', 'resp': 'button'}",23,351,Right,40.520977131243235,14.701124233116047,2.0260488565621615,0.23092471945134127,100,Incorrect,0.0,0.0,-45,45,57,-1,-1
"{'cat': 'II', 'resp': 'button'}",23,352,Right,59.1313087675651,27.229160697504504,2.956565438378255,0.42771465605348036,100,Incorrect,0.0,0.0,-45,45,181,-1,-1
"{'cat': 'II', 'resp': 'button'}",23,353,Left,39.43647090291134,51.85158991748381,1.971823545145567,0.8144828698085885,100,Correct,0.0,0.0,-45,45,110,-1,-1
"{'cat': 'II', 'resp': 'button'}",23,354,Right,34.32754091509112,15.687228580121939,1.716377045754556,0.2464144103124746,100,Correct,0.0,0.0,-45,45,293,-1,-1
"{'cat': 'II', 'resp': 'button'}",23,355,Right,74.11825174536897,64.16742747946375,3.7059125872684486,1.0079395938461957,100,Incorrect,0.0,0.0,-45,45,138,-1,-1
"{'cat': 'II', 'resp': 'button'}",23,356,Right,79.30360176399778,61.763614458727915,3.965180088199889,0.9701805872134598,Left,Incorrect,0.0,0.0,-45,45,172,-1,-1
"{'cat': 'II', 'resp': 'button'}",23,357,Right,44.4773496024913,27.920764344146242,2.2238674801245653,0.43857834073090834,Left,Incorrect,0.0,0.0,-45,45,218,-1,-1
"{'cat': 'II', 'resp': 'button'}",23,358,Left,57.832548423705724,84.12200218460703,2.8916274211852864,1.32138532034213,Left,Correct,0.0,0.0,-45,45,226,-1,-1
"{'cat': 'II', 'resp': 'button'}",23,359,Left,42.23309385987924,67.13760814222262,2.111654692993962,1.0545950825959842,Right,Incorrect,0.0,0.0,-45,45,326,-1,-1
"{'cat': 'II', 'resp': 'button'}",23,360,Right,37.1047501831103,17.647324472900152,1.8552375091555149,0.27720352459789244,Left,Incorrect,0.0,0.0,-45,45,1341,-1,-1
"{'cat': 'II', 'resp': 'button'}",23,361,Right,65.52327647672212,41.143513676800026,3.276163823836106,0.6462808015495307,Right,Correct,0.0,0.0,-45,45,2372,-1,-1
"{'cat': 'II', 'resp': 'button'}",23,362,Right,53.81672997350256,41.80692011760847,2.690836498675128,0.6567015655534705,Left,Incorrect,0.0,0.0,-45,45,1668,-1,-1
"{'cat': 'II', 'resp': 'button'}",23,363,Left,37.81883920958398,67.96981308200469,1.890941960479199,1.0676673272214867,Right,Incorrect,0.0,0.0,-45,45,1336,-1,-1
"{'cat': 'II', 'resp': 'button'}",23,364,Right,81.64902794910323,64.2063746188603,4.082451397455162,1.0085513740812282,Right,Correct,0.0,0.0,-45,45,359,-1,-1
"{'cat': 'II', 'resp': 'button'}",23,365,Left,46.28158739557826,54.584022329482124,2.3140793697789133,0.8574038177684115,107,Correct,0.0,0.0,-45,45,408,-1,-1
"{'cat': 'II', 'resp': 'button'}",23,366,Left,37.48360824126832,59.841869470690135,1.874180412063416,0.9399938875309972,Right,Incorrect,0.0,0.0,-45,45,373,-1,-1
"{'cat': 'II', 'resp': 'button'}",23,367,Right,39.81927278153809,13.87309152376173,1.9909636390769043,0.21791801206814343,107,Incorrect,0.0,0.0,-45,45,657,-1,-1
"{'cat': 'II', 'resp': 'button'}",23,368,Left,47.41288213563521,61.05356216196392,2.3706441067817603,0.9590271118175678,Right,Incorrect,0.0,0.0,-45,45,221,-1,-1
"{'cat': 'II', 'resp': 'button'}",23,369,Left,26.168301833655455,48.304602688405915,1.3084150916827726,0.7587669247023491,Right,Incorrect,0.0,0.0,-45,45,209,-1,-1
"{'cat': 'II', 'resp': 'button'}",23,370,Left,23.07219634034336,40.342172159526,1.153609817017168,0.6336933584311077,Right,Incorrect,0.0,0.0,-45,45,263,-1,-1
"{'cat': 'II', 'resp': 'button'}",23,371,Right,42.40870812487466,26.601257864247856,2.120435406243733,0.41785158141284384,Right,Correct,0.0,0.0,-45,45,148,-1,-1
"{'cat': 'II', 'resp': 'button'}",23,372,Right,33.61447815324809,16.387373383788294,1.6807239076624045,0.2574122591707111,Left,Incorrect,0.0,0.0,-45,45,262,-1,-1
"{'cat': 'II', 'resp': 'button'}",23,373,Right,52.16163614951964,33.48724396108879,2.6080818074759815,0.5260163980856285,Right,Correct,0.0,0.0,-45,45,402,-1,-1
"{'cat': 'II', 'resp': 'button'}",23,374,Left,25.813425078273912,52.79722113321599,1.2906712539136955,0.8293368102103357,Right,Incorrect,0.0,0.0,-45,45,212,-1,-1
"{'cat': 'II', 'resp': 'button'}",23,375,Left,55.01391810456712,71.27660549772202,2.750695905228356,1.1196103010223069,Right,Incorrect,0.0,0.0,-45,45,228,-1,-1
"{'cat': 'II', 'resp': 'button'}",23,376,Left,55.021792520314726,71.83889915626744,2.7510896260157365,1.1284427891565392,Left,Correct,0.0,0.0,-45,45,222,-1,-1
"{'cat': 'II', 'resp': 'button'}",23,377,Right,50.68597790189335,25.77246640983747,2.5342988950946674,0.40483295569017547,Left,Incorrect,0.0,0.0,-45,45,35,-1,-1
"{'cat': 'II', 'resp': 'button'}",23,378,Left,55.595377912429306,71.03883846396575,2.7797688956214652,1.1158754651897342,Right,Incorrect,0.0,0.0,-45,45,259,-1,-1
"{'cat': 'II', 'resp': 'button'}",23,379,Right,48.71520966965238,39.755707936929475,2.435760483482619,0.6244811999645954,107,Incorrect,0.0,0.0,-45,45,1266,-1,-1
"{'cat': 'II', 'resp': 'button'}",23,380,Right,55.70663309303581,44.43740121172323,2.785331654651791,0.6980210659568593,100,Correct,0.0,0.0,-45,45,771,-1,-1
"{'cat': 'II', 'resp': 'button'}",23,381,Right,51.74713934330473,24.678835880331487,2.5873569671652366,0.38765424750398797,Left,Incorrect,0.0,0.0,-45,45,1108,-1,-1
"{'cat': 'II', 'resp': 'button'}",23,382,Right,76.15787660873931,62.36785089386435,3.807893830436966,0.9796719109417392,Left,Incorrect,0.0,0.0,-45,45,962,-1,-1
"{'cat': 'II', 'resp': 'button'}",23,383,Left,64.9088266781149,76.45403614243845,3.2454413339057453,1.2009371914118658,Right,Incorrect,0.0,0.0,-45,45,1240,-1,-1
"{'cat': 'II', 'resp': 'button'}",23,384,Left,24.856086557066973,54.567007608152196,1.2428043278533487,0.8571365511507464,Left,Correct,0.0,0.0,-45,45,434,-1,-1
"{'cat': 'II', 'resp': 'button'}",23,385,Right,62.90227438013829,44.38519327875986,3.1451137190069143,0.6972009856635751,107,Incorrect,0.0,0.0,-45,45,673,-1,-1
"{'cat': 'II', 'resp': 'button'}",23,386,Right,59.99219755782518,47.02257938080779,2.999609877891259,0.7386289496779431,Right,Correct,0.0,0.0,-45,45,971,-1,-1
"{'cat': 'II', 'resp': 'button'}",23,387,Left,39.20206376250217,51.714415571340226,1.9601031881251085,0.8123281402180603,100,Incorrect,0.0,0.0,-45,45,602,-1,-1
"{'cat': 'II', 'resp': 'button'}",23,388,Left,49.110518159665816,63.898281993843874,2.455525907983291,1.0037118664443443,107,Correct,0.0,0.0,-45,45,666,-1,-1
"{'cat': 'II', 'resp': 'button'}",23,389,Right,83.6440681015496,57.169611547953785,4.18220340507748,0.8980181582381691,Right,Correct,0.0,0.0,-45,45,1378,-1,-1
"{'cat': 'II', 'resp': 'button'}",23,390,Right,48.249261650768645,34.70883245068994,2.412463082538432,0.5452050652088326,Left,Incorrect,0.0,0.0,-45,45,544,-1,-1
"{'cat': 'II', 'resp': 'button'}",23,391,Left,41.69377409769633,68.56489399020066,2.084688704884816,1.077014836268887,Right,Incorrect,0.0,0.0,-45,45,2417,-1,-1
"{'cat': 'II', 'resp': 'button'}",23,392,Left,34.04604467022552,53.95398440891508,1.7023022335112759,0.8475072052547293,107,Incorrect,0.0,0.0,-45,45,1289,-1,-1
"{'cat': 'II', 'resp': 'button'}",23,393,Left,24.004414816557166,40.99441789762368,1.2002207408278582,0.6439388105268224,Right,Incorrect,0.0,0.0,-45,45,1503,-1,-1
"{'cat': 'II', 'resp': 'button'}",23,394,Left,58.32590915660705,71.34162861663727,2.916295457830352,1.120631681785795,Left,Correct,0.0,0.0,-45,45,2397,-1,-1
"{'cat': 'II', 'resp': 'button'}",23,395,Left,15.701496079486343,32.4159586565832,0.7850748039743172,0.5091886878729611,Left,Correct,0.0,0.0,-45,45,2849,-1,-1
"{'cat': 'II', 'resp': 'button'}",23,396,Left,18.132880080019913,38.21386063975076,0.9066440040009957,0.6002619192557257,Right,Incorrect,0.0,0.0,-45,45,696,-1,-1
"{'cat': 'II', 'resp': 'button'}",23,397,Right,72.60167273015665,46.47922989729514,3.6300836365078326,0.7300940359492676,Left,Incorrect,0.0,0.0,-45,45,651,-1,-1
"{'cat': 'II', 'resp': 'button'}",23,398,Right,65.51019259722483,37.954822231323874,3.2755096298612414,0.5961929534511682,Right,Correct,0.0,0.0,-45,45,1224,-1,-1
"{'cat': 'II', 'resp': 'button'}",23,399,Right,57.707146676878104,36.48849600270647,2.8853573338439054,0.5731599549132159,Left,Incorrect,0.0,0.0,-45,45,1027,-1,-1
>>>>>>> cadf4998b15db736784c442d1b356b219858c768
