condition,subject,trial,cat,x,y,xt,yt,resp,fb,rotation,su,target_angle_left,target_angle_right,rt,mt,ep
"{'cat': 'II', 'resp': 'reach'}",16,0,Right,75.94872437571635,60.08443146628956,3.7974362187858173,0.9438040424480734,Left,Incorrect,0.0,0.0,-45,45,2006,11750,-2.7
"{'cat': 'II', 'resp': 'reach'}",16,1,Right,85.1848916990495,59.97417053044837,4.259244584952475,0.9420720677179903,Right,Correct,0.0,0.0,-45,45,2015,2275,-0.75
"{'cat': 'II', 'resp': 'reach'}",16,2,Right,33.066743755318726,12.802470631190896,1.6533371877659362,0.20110073841374201,Left,Incorrect,0.0,0.0,-45,45,2009,1342,-2.49
"{'cat': 'II', 'resp': 'reach'}",16,3,Right,87.04854110117634,63.25946807221063,4.352427055058817,0.9936774008282749,Right,Correct,0.0,0.0,-45,45,2001,913,-0.64
"{'cat': 'II', 'resp': 'reach'}",16,4,Left,55.695988944439165,72.13096904089886,2.784799447221958,1.1330306121760032,Right,Incorrect,0.0,0.0,-45,45,2006,1755,-0.64
"{'cat': 'II', 'resp': 'reach'}",16,5,Right,62.71239732719639,35.218072554177375,3.1356198663598196,0.5532041900489797,Right,Correct,0.0,0.0,-45,45,2007,1383,-0.7
"{'cat': 'II', 'resp': 'reach'}",16,6,Left,14.256710327462358,32.68444677830941,0.7128355163731179,0.5134060894269171,Left,Correct,0.0,0.0,-45,45,2002,2079,-2.65
"{'cat': 'II', 'resp': 'reach'}",16,7,Right,51.183737541287286,31.694468132573583,2.559186877064364,0.4978555412236449,Right,Correct,0.0,0.0,-45,45,2007,929,-0.63
"{'cat': 'II', 'resp': 'reach'}",16,8,Right,83.12322277318972,62.64355136604803,4.156161138659486,0.9840026038317566,Right,Correct,0.0,0.0,-45,45,2012,1060,-0.75
"{'cat': 'II', 'resp': 'reach'}",16,9,Left,31.23351239444606,48.44909852856489,1.561675619722303,0.7610366600519375,Left,Correct,0.0,0.0,-45,45,2008,763,-2.65
"{'cat': 'II', 'resp': 'reach'}",16,10,Right,48.48651819923123,20.589862059045867,2.4243259099615613,0.3234247969156286,Right,Correct,0.0,0.0,-45,45,2002,852,-0.63
"{'cat': 'II', 'resp': 'reach'}",16,11,Left,58.685489822334866,71.78205210434346,2.934274491116743,1.127549837753026,Right,Incorrect,0.0,0.0,-45,45,2007,974,-0.71
"{'cat': 'II', 'resp': 'reach'}",16,12,Left,60.25064535945547,70.91471824377646,3.0125322679727735,1.1139257893301913,Right,Incorrect,0.0,0.0,-45,45,2007,1645,-0.68
"{'cat': 'II', 'resp': 'reach'}",16,13,Right,62.69488661788221,49.98085168701074,3.1347443308941103,0.7850973824003697,Left,Incorrect,0.0,0.0,-45,45,2005,2437,-2.63
"{'cat': 'II', 'resp': 'reach'}",16,14,Right,47.85069598389134,25.38422558841102,2.392534799194567,0.39873448312809057,Left,Incorrect,0.0,0.0,-45,45,2008,1167,-2.58
"{'cat': 'II', 'resp': 'reach'}",16,15,Left,60.91983664724969,88.0390732515067,3.0459918323624846,1.3829145287789353,Right,Incorrect,0.0,0.0,-45,45,2005,1027,-0.64
"{'cat': 'II', 'resp': 'reach'}",16,16,Right,55.82857576141221,32.430598312085536,2.7914287880706103,0.5094186470438473,Left,Incorrect,0.0,0.0,-45,45,2004,2010,-2.6
"{'cat': 'II', 'resp': 'reach'}",16,17,Right,70.59965965776034,40.34170035782979,3.529982982888017,0.6336859473873939,Right,Correct,0.0,0.0,-45,45,2005,914,-0.67
"{'cat': 'II', 'resp': 'reach'}",16,18,Right,36.67573069394248,12.863023273306993,1.8337865346971238,0.20205189709187896,Left,Incorrect,0.0,0.0,-45,45,2008,993,-2.57
"{'cat': 'II', 'resp': 'reach'}",16,19,Right,61.153242553316545,42.27132903208523,3.0576621276658273,0.6639964837233795,Right,Correct,0.0,0.0,-45,45,2007,1024,-0.64
"{'cat': 'II', 'resp': 'reach'}",16,20,Left,55.60916842275472,81.74280290405947,2.7804584211377357,1.2840129454361582,Right,Incorrect,0.0,0.0,-45,45,2008,798,-0.58
"{'cat': 'II', 'resp': 'reach'}",16,21,Right,69.43786428832175,60.37939515095532,3.4718932144160872,0.9484373211721819,Right,Correct,0.0,0.0,-45,45,2010,1484,-0.8
"{'cat': 'II', 'resp': 'reach'}",16,22,Left,42.34287111652105,68.60741820297989,2.1171435558260527,1.0776828050412213,Left,Correct,0.0,0.0,-45,45,2008,958,-2.54
"{'cat': 'II', 'resp': 'reach'}",16,23,Right,82.96222705339,61.38351484796469,4.1481113526695,0.9642099964894293,Right,Correct,0.0,0.0,-45,45,2002,631,-0.64
"{'cat': 'II', 'resp': 'reach'}",16,24,Left,28.565679991733415,43.280134273772084,1.4282839995866707,0.679842759404311,Left,Correct,0.0,0.0,-45,45,2014,794,-2.66
"{'cat': 'II', 'resp': 'reach'}",16,25,Right,66.73181161041632,33.63066841478877,3.336590580520816,0.5282693041360734,Right,Correct,0.0,0.0,-45,45,2001,740,-0.73
"{'cat': 'II', 'resp': 'reach'}",16,26,Right,70.75775659913289,50.87717940957879,3.5378878299566447,0.7991768653425131,Left,Incorrect,0.0,0.0,-45,45,2002,786,-2.47
"{'cat': 'II', 'resp': 'reach'}",16,27,Right,30.831802799730216,12.203690255630331,1.5415901399865108,0.19169511826886795,Left,Incorrect,0.0,0.0,-45,45,2013,991,-2.42
"{'cat': 'II', 'resp': 'reach'}",16,28,Right,79.5847905579272,59.54566084333005,3.97923952789636,0.9353410532927754,Right,Correct,0.0,0.0,-45,45,2009,1894,-0.65
"{'cat': 'II', 'resp': 'reach'}",16,29,Left,39.11324941031645,57.90356527052773,1.9556624705158225,0.9095470763527348,Left,Correct,0.0,0.0,-45,45,2002,1966,-2.5
"{'cat': 'II', 'resp': 'reach'}",16,30,Right,34.13249738052551,18.96112251353455,1.7066248690262753,0.29784061596168093,Left,Incorrect,0.0,0.0,-45,45,2002,1271,-2.45
"{'cat': 'II', 'resp': 'reach'}",16,31,Left,32.776040661100325,65.15886442746756,1.6388020330550161,1.023513049007927,Left,Correct,0.0,0.0,-45,45,2003,2537,-2.69
"{'cat': 'II', 'resp': 'reach'}",16,32,Left,21.194510554609142,34.3279587061469,1.0597255277304571,0.5392223144198245,Left,Correct,0.0,0.0,-45,45,2003,1163,-2.35
"{'cat': 'II', 'resp': 'reach'}",16,33,Left,44.93886439724784,67.65569311459795,2.246943219862392,1.0627331423117323,Left,Correct,0.0,0.0,-45,45,2004,897,-2.57
"{'cat': 'II', 'resp': 'reach'}",16,34,Right,69.1940594935351,41.85550275867993,3.4597029746767545,0.6574646998948811,Right,Correct,0.0,0.0,-45,45,2005,3098,-0.43
"{'cat': 'II', 'resp': 'reach'}",16,35,Left,64.2512819876499,86.18461789028514,3.2125640993824955,1.3537848120828162,Right,Incorrect,0.0,0.0,-45,45,2001,1481,-0.69
"{'cat': 'II', 'resp': 'reach'}",16,36,Left,21.712196041491577,40.39689028204759,1.0856098020745788,0.6345528686897681,Left,Correct,0.0,0.0,-45,45,2009,1022,-2.63
"{'cat': 'II', 'resp': 'reach'}",16,37,Left,32.89314075385331,42.19906638302642,1.6446570376926655,0.662861384686319,Left,Correct,0.0,0.0,-45,45,2004,786,-2.53
"{'cat': 'II', 'resp': 'reach'}",16,38,Left,22.223577824459944,49.715597314776325,1.1111788912229972,0.7809307764646489,Left,Correct,0.0,0.0,-45,45,2006,895,-2.47
"{'cat': 'II', 'resp': 'reach'}",16,39,Right,60.17923559875446,34.76294477694299,3.008961779937723,0.5460550596419589,Left,Incorrect,0.0,0.0,-45,45,2003,1879,-2.43
"{'cat': 'II', 'resp': 'reach'}",16,40,Right,65.37873819743949,54.190343971276604,3.2689369098719743,0.8512199325783325,Right,Correct,0.0,0.0,-45,45,2009,1705,-0.52
"{'cat': 'II', 'resp': 'reach'}",16,41,Right,82.98019888219059,65.14262916076606,4.14900994410953,1.0232580260349344,Right,Correct,0.0,0.0,-45,45,2009,857,-0.68
"{'cat': 'II', 'resp': 'reach'}",16,42,Left,47.81134259868112,70.33579845810048,2.390567129934056,1.104832138601704,Left,Correct,0.0,0.0,-45,45,2008,1274,-2.48
"{'cat': 'II', 'resp': 'reach'}",16,43,Left,51.74509896691058,77.45649153445052,2.5872549483455294,1.2166837238873487,Left,Correct,0.0,0.0,-45,45,2006,952,-2.53
"{'cat': 'II', 'resp': 'reach'}",16,44,Right,43.46315699633821,30.575250657621453,2.173157849816911,0.48027491423825025,Right,Correct,0.0,0.0,-45,45,2008,1858,-0.5
"{'cat': 'II', 'resp': 'reach'}",16,45,Right,82.945773147316,53.90758543987807,4.1472886573658005,0.8467783719534252,Right,Correct,0.0,0.0,-45,45,2004,1142,-0.69
"{'cat': 'II', 'resp': 'reach'}",16,46,Right,88.98513905916255,64.91383592550774,4.449256952958127,1.0196641502995414,Right,Correct,0.0,0.0,-45,45,2008,1134,-0.66
"{'cat': 'II', 'resp': 'reach'}",16,47,Left,61.10051087388334,84.731897180963,3.0550255436941667,1.3309655285421955,Left,Correct,0.0,0.0,-45,45,2001,971,-2.66
"{'cat': 'II', 'resp': 'reach'}",16,48,Left,26.288835370833226,53.432557452530446,1.3144417685416614,0.839316649776921,Left,Correct,0.0,0.0,-45,45,2008,885,-2.5
"{'cat': 'II', 'resp': 'reach'}",16,49,Right,54.35921499601239,38.819253316110746,2.7179607498006195,0.6097714051786736,Right,Correct,0.0,0.0,-45,45,2001,897,-0.62
"{'cat': 'II', 'resp': 'reach'}",16,50,Right,49.40337468632923,36.60849060136006,2.4701687343164616,0.5750448256612187,Left,Incorrect,0.0,0.0,-45,45,2003,860,-2.57
"{'cat': 'II', 'resp': 'reach'}",16,51,Right,44.16360104109648,34.235164513867936,2.208180052054824,0.5377647066560274,Right,Correct,0.0,0.0,-45,45,2004,1524,-0.66
"{'cat': 'II', 'resp': 'reach'}",16,52,Left,45.457198539758764,74.93923135176783,2.2728599269879384,1.1771426934018985,Left,Correct,0.0,0.0,-45,45,2012,933,-2.44
"{'cat': 'II', 'resp': 'reach'}",16,53,Left,43.57164991694615,73.56168237309475,2.1785824958473072,1.1555042046451014,Left,Correct,0.0,0.0,-45,45,2012,1010,-2.39
"{'cat': 'II', 'resp': 'reach'}",16,54,Left,48.421735193466276,72.89090971067169,2.421086759673314,1.1449677323026155,Left,Correct,0.0,0.0,-45,45,2012,1087,-2.34
"{'cat': 'II', 'resp': 'reach'}",16,55,Left,58.014455507669155,81.27465771036645,2.9007227753834575,1.2766593379295612,Left,Correct,0.0,0.0,-45,45,2012,842,-2.49
"{'cat': 'II', 'resp': 'reach'}",16,56,Left,55.183889233919984,62.603361490373274,2.7591944616959996,0.9833713027409142,Right,Incorrect,0.0,0.0,-45,45,2008,2318,-0.74
"{'cat': 'II', 'resp': 'reach'}",16,57,Left,47.60087281092646,68.4504712180833,2.3800436405463232,1.0752174875674503,Right,Incorrect,0.0,0.0,-45,45,2004,1907,-0.62
"{'cat': 'II', 'resp': 'reach'}",16,58,Right,75.84620381526229,52.41118736192353,3.7923101907631143,0.8232730059106858,Right,Correct,0.0,0.0,-45,45,2002,998,-0.71
"{'cat': 'II', 'resp': 'reach'}",16,59,Left,41.09442117586669,68.27684913217796,2.054721058793335,1.0724902382195445,Left,Correct,0.0,0.0,-45,45,2007,813,-2.58
"{'cat': 'II', 'resp': 'reach'}",16,60,Right,78.61008903505878,57.80082379556133,3.9305044517529386,0.9079332170378679,Right,Correct,0.0,0.0,-45,45,2006,844,-0.66
"{'cat': 'II', 'resp': 'reach'}",16,61,Left,40.943791658941045,70.4425855197512,2.0471895829470523,1.1065095458436056,Left,Correct,0.0,0.0,-45,45,2012,862,-2.53
"{'cat': 'II', 'resp': 'reach'}",16,62,Right,80.93046869385724,62.46249943999433,4.046523434692862,0.9811586468277138,Right,Correct,0.0,0.0,-45,45,2013,845,-0.68
"{'cat': 'II', 'resp': 'reach'}",16,63,Right,61.5304209559077,43.9007860723343,3.076521047795385,0.6895919350583126,Right,Correct,0.0,0.0,-45,45,2007,1601,-0.64
"{'cat': 'II', 'resp': 'reach'}",16,64,Left,43.000935101231015,50.28499992899532,2.1500467550615507,0.7898749318134748,Left,Correct,0.0,0.0,-45,45,2009,1189,-2.4
"{'cat': 'II', 'resp': 'reach'}",16,65,Right,70.98191588180306,49.08640074311177,3.549095794090153,0.7710473798286226,Right,Correct,0.0,0.0,-45,45,2002,841,-0.73
"{'cat': 'II', 'resp': 'reach'}",16,66,Right,47.260946334511544,35.73580417133537,2.363047316725577,0.5613366992739535,Left,Incorrect,0.0,0.0,-45,45,2005,1311,-2.51
"{'cat': 'II', 'resp': 'reach'}",16,67,Left,13.815300048548433,33.9520538763836,0.6907650024274217,0.533317615161658,Right,Incorrect,0.0,0.0,-45,45,2007,1292,-0.72
"{'cat': 'II', 'resp': 'reach'}",16,68,Right,71.59147903730782,47.68523004330413,3.579573951865391,0.7490378419439178,Right,Correct,0.0,0.0,-45,45,2005,900,-0.67
"{'cat': 'II', 'resp': 'reach'}",16,69,Right,56.72929267117654,47.609932052101186,2.836464633558827,0.7478550638639515,Right,Correct,0.0,0.0,-45,45,2004,2249,-0.34
"{'cat': 'II', 'resp': 'reach'}",16,70,Left,30.595537650544223,57.679440603361996,1.5297768825272113,0.9060265343134545,Left,Correct,0.0,0.0,-45,45,2006,1643,-2.42
"{'cat': 'II', 'resp': 'reach'}",16,71,Left,19.00816520280195,45.81369887369897,0.9504082601400975,0.7196398990769381,Left,Correct,0.0,0.0,-45,45,2001,788,-2.43
"{'cat': 'II', 'resp': 'reach'}",16,72,Left,23.537908678659516,47.69623064491745,1.1768954339329758,0.7492106389899852,Left,Correct,0.0,0.0,-45,45,2006,1825,-2.65
"{'cat': 'II', 'resp': 'reach'}",16,73,Left,20.884515931922643,50.89378766683967,1.0442257965961321,0.7994377472375117,Left,Correct,0.0,0.0,-45,45,2009,841,-2.28
"{'cat': 'II', 'resp': 'reach'}",16,74,Right,83.46304880417443,60.49545637997865,4.173152440208722,0.9502604066945136,Right,Correct,0.0,0.0,-45,45,2005,792,-0.74
"{'cat': 'II', 'resp': 'reach'}",16,75,Left,66.31630974482016,89.54102226981415,3.315815487241008,1.406507088788841,Right,Incorrect,0.0,0.0,-45,45,2002,1646,-0.68
"{'cat': 'II', 'resp': 'reach'}",16,76,Right,47.445263021023464,31.409106297656564,2.372263151051173,0.49337308800269386,Right,Correct,0.0,0.0,-45,45,2006,902,-0.68
"{'cat': 'II', 'resp': 'reach'}",16,77,Left,68.63961973719749,87.44612960377803,3.431980986859875,1.37360059174045,Left,Correct,0.0,0.0,-45,45,2003,1026,-2.54
"{'cat': 'II', 'resp': 'reach'}",16,78,Left,28.7676220409927,52.77373686308217,1.438381102049635,0.828967920157699,Left,Correct,0.0,0.0,-45,45,2009,1719,-2.53
"{'cat': 'II', 'resp': 'reach'}",16,79,Left,33.03403642604811,47.37145333752278,1.6517018213024057,0.7441090489751662,Left,Correct,0.0,0.0,-45,45,2007,1308,-2.36
"{'cat': 'II', 'resp': 'reach'}",16,80,Left,58.66243348325567,85.5152727717281,2.9331216741627832,1.3432707635469414,Left,Correct,0.0,0.0,-45,45,2015,1229,-2.42
"{'cat': 'II', 'resp': 'reach'}",16,81,Left,37.30938735060372,55.025606012205216,1.8654693675301859,0.8643401980363513,Left,Correct,0.0,0.0,-45,45,2001,2306,-2.61
"{'cat': 'II', 'resp': 'reach'}",16,82,Right,31.77080605129495,14.518607482744994,1.5885403025647475,0.22805775304072734,Left,Incorrect,0.0,0.0,-45,45,2012,923,-2.46
"{'cat': 'II', 'resp': 'reach'}",16,83,Left,35.8312415207083,62.975594876259365,1.7915620760354154,0.9892183310935171,Right,Incorrect,0.0,0.0,-45,45,2002,1217,-0.72
"{'cat': 'II', 'resp': 'reach'}",16,84,Left,41.045977179641184,49.56601158751826,2.052298858982059,0.7785810893554695,Right,Incorrect,0.0,0.0,-45,45,2008,1425,-0.7
"{'cat': 'II', 'resp': 'reach'}",16,85,Left,22.388079962520415,44.51785348913408,1.1194039981260206,0.6992848073752518,Left,Correct,0.0,0.0,-45,45,2012,844,-2.49
"{'cat': 'II', 'resp': 'reach'}",16,86,Left,14.63021955271407,36.99283473792214,0.7315109776357035,0.5810820892405875,Left,Correct,0.0,0.0,-45,45,2002,800,-2.43
"{'cat': 'II', 'resp': 'reach'}",16,87,Right,56.55701162924799,30.790146363571857,2.8278505814623993,0.48365048809375916,Right,Correct,0.0,0.0,-45,45,2004,1006,-0.69
"{'cat': 'II', 'resp': 'reach'}",16,88,Left,49.26384651482394,69.39536723614762,2.463192325741197,1.090059879511236,Right,Incorrect,0.0,0.0,-45,45,2008,1583,-0.75
"{'cat': 'II', 'resp': 'reach'}",16,89,Right,37.59397087201401,12.169360659756865,1.8796985436007005,0.19115587023788402,Left,Incorrect,0.0,0.0,-45,45,2004,2344,-2.56
"{'cat': 'II', 'resp': 'reach'}",16,90,Left,41.98045774413627,61.51942818698677,2.099022887206813,0.9663449182264127,Right,Incorrect,0.0,0.0,-45,45,2006,1086,-0.76
"{'cat': 'II', 'resp': 'reach'}",16,91,Left,67.1831252346478,79.62330041529717,3.3591562617323905,1.2507198781963536,Right,Incorrect,0.0,0.0,-45,45,2003,1997,-0.65
"{'cat': 'II', 'resp': 'reach'}",16,92,Left,50.3881642920671,70.98228376906621,2.519408214603355,1.1149871061196222,Left,Correct,0.0,0.0,-45,45,2007,1540,-2.54
"{'cat': 'II', 'resp': 'reach'}",16,93,Right,52.63845300248236,29.89441166411251,2.631922650124118,0.46958032033682445,Left,Incorrect,0.0,0.0,-45,45,2002,1729,-2.46
"{'cat': 'II', 'resp': 'reach'}",16,94,Left,20.65848517111983,38.69039801464221,1.0329242585559912,0.6077473508363255,Left,Correct,0.0,0.0,-45,45,2015,981,-2.4
"{'cat': 'II', 'resp': 'reach'}",16,95,Right,52.06124754741631,32.02099462210475,2.603062377370815,0.5029846073272128,Right,Correct,0.0,0.0,-45,45,2007,1786,-0.5
"{'cat': 'II', 'resp': 'reach'}",16,96,Left,40.89261546108229,57.845383434282546,2.0446307730541147,0.9086331582061339,Left,Correct,0.0,0.0,-45,45,2009,983,-2.27
"{'cat': 'II', 'resp': 'reach'}",16,97,Right,52.18781903927242,33.43939597327319,2.6093909519636207,0.5252648036505758,Right,Correct,0.0,0.0,-45,45,2004,994,-0.72
"{'cat': 'II', 'resp': 'reach'}",16,98,Left,45.528475943775625,55.41449737757957,2.276423797188781,0.8704488893188742,Right,Incorrect,0.0,0.0,-45,45,2004,1237,-0.69
"{'cat': 'II', 'resp': 'reach'}",16,99,Left,40.576982018347636,49.17448984715795,2.0288491009173817,0.7724310802392864,Left,Correct,0.0,0.0,-45,45,2009,1861,-2.51
"{'cat': 'II', 'resp': 'reach'}",16,100,Right,44.499642088947034,26.327880898863214,2.224982104447352,0.4135573860822786,Left,Incorrect,0.0,0.0,-45,45,2012,1581,-2.47
"{'cat': 'II', 'resp': 'reach'}",16,101,Right,56.87295924182093,28.12161398355615,2.8436479620910466,0.44173327948913993,Right,Correct,0.0,0.0,-45,45,2002,998,-0.82
"{'cat': 'II', 'resp': 'reach'}",16,102,Left,40.48194387989211,68.48716172621158,2.024097193994605,1.075793820721412,Left,Correct,0.0,0.0,-45,45,2008,1058,-2.52
"{'cat': 'II', 'resp': 'reach'}",16,103,Left,41.976800230142956,59.110677104788806,2.0988400115071477,0.9285083447056146,Left,Correct,0.0,0.0,-45,45,2003,1051,-2.42
"{'cat': 'II', 'resp': 'reach'}",16,104,Left,57.747561521513234,77.17183706851667,2.8873780760756618,1.2122123819924022,Left,Correct,0.0,0.0,-45,45,2007,1616,-2.51
"{'cat': 'II', 'resp': 'reach'}",16,105,Left,55.827241934676984,70.78941059030245,2.7913620967338493,1.1119574613122285,Left,Correct,0.0,0.0,-45,45,2012,1171,-2.34
"{'cat': 'II', 'resp': 'reach'}",16,106,Right,65.68210148642974,56.88519640201081,3.2841050743214875,0.8935505755728486,Left,Incorrect,0.0,0.0,-45,45,2005,1414,-2.44
"{'cat': 'II', 'resp': 'reach'}",16,107,Right,35.19223375845211,12.049198324011392,1.7596116879226056,0.1892683646818032,Left,Incorrect,0.0,0.0,-45,45,2012,1474,-2.32
"{'cat': 'II', 'resp': 'reach'}",16,108,Right,32.616530376003155,11.35018841009023,1.6308265188001576,0.1782883426299974,Right,Correct,0.0,0.0,-45,45,2013,1080,-0.67
"{'cat': 'II', 'resp': 'reach'}",16,109,Right,54.96539787602684,36.65784550731942,2.748269893801342,0.5758200907111215,Right,Correct,0.0,0.0,-45,45,2012,1239,-0.63
"{'cat': 'II', 'resp': 'reach'}",16,110,Left,54.11593571150578,72.98010227706254,2.705796785575289,1.146368765859257,Left,Correct,0.0,0.0,-45,45,2009,1133,-2.49
"{'cat': 'II', 'resp': 'reach'}",16,111,Left,40.89831142397078,60.54093715670555,2.0449155711985387,0.9509748170647375,Right,Incorrect,0.0,0.0,-45,45,2008,1215,-0.66
"{'cat': 'II', 'resp': 'reach'}",16,112,Left,11.331905843920865,35.074515606795316,0.5665952921960432,0.5509492027926436,Left,Correct,0.0,0.0,-45,45,2012,1001,-2.39
"{'cat': 'II', 'resp': 'reach'}",16,113,Right,53.567321355633595,35.609522041945624,2.6783660677816794,0.5593530642241009,Right,Correct,0.0,0.0,-45,45,2005,1616,-0.62
"{'cat': 'II', 'resp': 'reach'}",16,114,Right,72.87796725241168,39.84461614644084,3.643898362620584,0.625877766853819,Right,Correct,0.0,0.0,-45,45,2005,760,-0.72
"{'cat': 'II', 'resp': 'reach'}",16,115,Right,50.05900577525394,29.284414106977074,2.5029502887626967,0.4599985011158024,Right,Correct,0.0,0.0,-45,45,2008,881,-0.65
"{'cat': 'II', 'resp': 'reach'}",16,116,Left,22.590646322805625,44.47608848069131,1.1295323161402813,0.6986287641567472,Left,Correct,0.0,0.0,-45,45,2001,732,-2.48
"{'cat': 'II', 'resp': 'reach'}",16,117,Right,60.617714684387536,35.74612542207155,3.0308857342193765,0.5614988251013966,Right,Correct,0.0,0.0,-45,45,2004,934,-0.71
"{'cat': 'II', 'resp': 'reach'}",16,118,Left,65.38036789570472,89.08687461385965,3.269018394785236,1.3993733540908826,Left,Correct,0.0,0.0,-45,45,2007,1000,-2.49
"{'cat': 'II', 'resp': 'reach'}",16,119,Left,47.588815128849504,55.8788478414001,2.379440756442475,0.877742889348022,Right,Incorrect,0.0,0.0,-45,45,2003,752,-0.69
"{'cat': 'II', 'resp': 'reach'}",16,120,Right,65.5484642310944,39.758164850795566,3.2774232115547197,0.6245197930773564,Right,Correct,0.0,0.0,-45,45,2001,1035,-0.72
"{'cat': 'II', 'resp': 'reach'}",16,121,Right,67.20198678744359,47.96604277092024,3.3600993393721796,0.7534488379544841,Right,Correct,0.0,0.0,-45,45,2004,861,-0.69
"{'cat': 'II', 'resp': 'reach'}",16,122,Left,58.778183907402756,77.34611741046388,2.9389091953701376,1.2149499712020346,Left,Correct,0.0,0.0,-45,45,2008,1177,-2.42
"{'cat': 'II', 'resp': 'reach'}",16,123,Left,25.145040818467507,56.44533538621996,1.2572520409233754,0.886641254893803,Left,Correct,0.0,0.0,-45,45,2008,986,-2.34
"{'cat': 'II', 'resp': 'reach'}",16,124,Right,72.39374933714103,53.85875291048076,3.619687466857051,0.8460113123753713,Right,Correct,0.0,0.0,-45,45,2001,971,-0.68
"{'cat': 'II', 'resp': 'reach'}",16,125,Right,55.53134630977348,47.20951179962251,2.7765673154886743,0.7415652772462735,Right,Correct,0.0,0.0,-45,45,2012,1463,-0.71
"{'cat': 'II', 'resp': 'reach'}",16,126,Left,59.188710466665455,83.41910113746572,2.9594355233332728,1.3103441765126311,Left,Correct,0.0,0.0,-45,45,2003,877,-2.54
"{'cat': 'II', 'resp': 'reach'}",16,127,Right,42.295194182911764,14.247498466634113,2.1147597091455883,0.22379918257404788,Right,Correct,0.0,0.0,-45,45,2012,740,-0.84
"{'cat': 'II', 'resp': 'reach'}",16,128,Left,32.481792497015924,63.687916304632274,1.6240896248507963,1.000407449925372,Left,Correct,0.0,0.0,-45,45,2009,764,-2.35
"{'cat': 'II', 'resp': 'reach'}",16,129,Left,13.607983238995491,40.606329903118365,0.6803991619497745,0.637842738564401,Left,Correct,0.0,0.0,-45,45,2012,1488,-2.53
"{'cat': 'II', 'resp': 'reach'}",16,130,Right,56.88869219920785,31.441278403744228,2.844434609960393,0.4938784462633714,Right,Correct,0.0,0.0,-45,45,2003,805,-0.75
"{'cat': 'II', 'resp': 'reach'}",16,131,Right,51.77134731549606,34.496423386130296,2.588567365774803,0.5418685514249504,Right,Correct,0.0,0.0,-45,45,2005,835,-0.78
"{'cat': 'II', 'resp': 'reach'}",16,132,Left,33.301530314287675,50.138942361084936,1.6650765157143836,0.7875806649017325,Left,Correct,0.0,0.0,-45,45,2005,951,-2.44
"{'cat': 'II', 'resp': 'reach'}",16,133,Left,38.35134610704489,55.602747126596746,1.9175673053522444,0.8734059094616367,Left,Correct,0.0,0.0,-45,45,2008,958,-2.43
"{'cat': 'II', 'resp': 'reach'}",16,134,Left,23.46462064786378,34.35755133724115,1.173231032393189,0.5396871543820548,Left,Correct,0.0,0.0,-45,45,2005,981,-2.4
"{'cat': 'II', 'resp': 'reach'}",16,135,Right,63.945293373365544,47.132343221992805,3.197264668668277,0.7403531160634265,Right,Correct,0.0,0.0,-45,45,2001,899,-0.82
"{'cat': 'II', 'resp': 'reach'}",16,136,Left,60.399408822416234,69.60863514425067,3.019970441120812,1.093409883977951,Right,Incorrect,0.0,0.0,-45,45,2012,785,-0.8
"{'cat': 'II', 'resp': 'reach'}",16,137,Left,17.829086331289457,40.0327022956442,0.8914543165644728,0.6288322171767153,Left,Correct,0.0,0.0,-45,45,2004,949,-2.43
"{'cat': 'II', 'resp': 'reach'}",16,138,Right,32.76559339054839,11.418234845635759,1.6382796695274195,0.17935721354006143,Left,Incorrect,0.0,0.0,-45,45,2005,1245,-2.28
"{'cat': 'II', 'resp': 'reach'}",16,139,Left,57.07885969097707,72.12726979143616,2.8539429845488535,1.1329725045013244,Right,Incorrect,0.0,0.0,-45,45,2003,1015,-0.68
"{'cat': 'II', 'resp': 'reach'}",16,140,Left,34.197834300736496,58.76271281173551,1.709891715036825,0.9230425343717755,Left,Correct,0.0,0.0,-45,45,2001,903,-2.52
"{'cat': 'II', 'resp': 'reach'}",16,141,Right,42.90252253054965,34.38712241807458,2.1451261265274826,0.5401516558335799,Left,Incorrect,0.0,0.0,-45,45,2004,910,-2.4
"{'cat': 'II', 'resp': 'reach'}",16,142,Right,54.92894381534104,32.84152847501253,2.746447190767052,0.5158735229487968,Right,Correct,0.0,0.0,-45,45,2001,751,-0.73
"{'cat': 'II', 'resp': 'reach'}",16,143,Right,47.6407913780542,27.51194238746202,2.38203956890271,0.43215658045218164,Right,Correct,0.0,0.0,-45,45,2009,841,-0.7
"{'cat': 'II', 'resp': 'reach'}",16,144,Left,38.07785663462122,45.982577736728295,1.9038928317310608,0.722292642054136,Right,Incorrect,0.0,0.0,-45,45,2001,1092,-0.76
"{'cat': 'II', 'resp': 'reach'}",16,145,Right,88.22701495768007,63.40369249013433,4.411350747884003,0.9959428726873617,Right,Correct,0.0,0.0,-45,45,2008,817,-0.7
"{'cat': 'II', 'resp': 'reach'}",16,146,Right,55.04230253693408,32.29594051896881,2.752115126846704,0.5073034473758268,Right,Correct,0.0,0.0,-45,45,2006,767,-0.7
"{'cat': 'II', 'resp': 'reach'}",16,147,Right,44.449535524233404,18.225426976231375,2.22247677621167,0.2862843374853286,Right,Correct,0.0,0.0,-45,45,2007,1355,-0.74
"{'cat': 'II', 'resp': 'reach'}",16,148,Right,75.69083520723781,51.51529949655798,3.7845417603618903,0.8092004322293226,Right,Correct,0.0,0.0,-45,45,2003,849,-0.73
"{'cat': 'II', 'resp': 'reach'}",16,149,Left,40.71830143640658,67.90053654787204,2.035915071820329,1.0665791339680004,Left,Correct,0.0,0.0,-45,45,2008,1349,-2.41
"{'cat': 'II', 'resp': 'reach'}",16,150,Right,44.89385722462062,17.682405607563307,2.2446928612310306,0.2777545777725792,Right,Correct,0.0,0.0,-45,45,2013,1583,-0.68
"{'cat': 'II', 'resp': 'reach'}",16,151,Left,67.52340965086252,89.18432209308405,3.3761704825431256,1.4009040555150938,Left,Correct,0.0,0.0,-45,45,2010,1061,-2.56
"{'cat': 'II', 'resp': 'reach'}",16,152,Left,51.91940174425364,73.372914210349,2.595970087212682,1.1525390412785326,Left,Correct,0.0,0.0,-45,45,2002,1631,-2.35
"{'cat': 'II', 'resp': 'reach'}",16,153,Left,17.208437114288554,44.75050861751967,0.8604218557144278,0.7029393455860327,Left,Correct,0.0,0.0,-45,45,2007,788,-2.47
"{'cat': 'II', 'resp': 'reach'}",16,154,Left,30.240788561723765,61.31517998514237,1.5120394280861882,0.9631365949742958,Left,Correct,0.0,0.0,-45,45,2008,806,-2.53
"{'cat': 'II', 'resp': 'reach'}",16,155,Right,50.30291558445818,36.295941822445755,2.515145779222909,0.5701353209225906,Right,Correct,0.0,0.0,-45,45,2010,1212,-0.74
"{'cat': 'II', 'resp': 'reach'}",16,156,Left,52.499989995730594,71.26778376814867,2.62499949978653,1.1194717296182088,Left,Correct,0.0,0.0,-45,45,2006,1369,-2.44
"{'cat': 'II', 'resp': 'reach'}",16,157,Right,53.32856221585378,27.84160478521533,2.6664281107926886,0.43733490528691454,Right,Correct,0.0,0.0,-45,45,2004,944,-0.74
"{'cat': 'II', 'resp': 'reach'}",16,158,Right,53.01377833748878,29.55378003071703,2.650688916874439,0.4642296911515467,Right,Correct,0.0,0.0,-45,45,2005,780,-0.74
"{'cat': 'II', 'resp': 'reach'}",16,159,Left,45.148760991249915,67.8005753719008,2.2574380495624955,1.0650089474876232,Left,Correct,0.0,0.0,-45,45,2013,755,-2.45
"{'cat': 'II', 'resp': 'reach'}",16,160,Left,40.83635964589034,57.5277151909041,2.0418179822945173,0.9036432371077513,Left,Correct,0.0,0.0,-45,45,2001,2426,-2.49
"{'cat': 'II', 'resp': 'reach'}",16,161,Right,35.480830986092485,13.073490941975134,1.7740415493046242,0.20535791550040894,Left,Incorrect,0.0,0.0,-45,45,2009,1543,-2.26
"{'cat': 'II', 'resp': 'reach'}",16,162,Right,44.30582741764988,22.98450269963146,2.215291370882494,0.36103972413788477,Right,Correct,0.0,0.0,-45,45,2002,1014,-0.71
"{'cat': 'II', 'resp': 'reach'}",16,163,Left,39.91073550130939,72.97413530592355,1.9955367750654693,1.146275036895785,Left,Correct,0.0,0.0,-45,45,2006,893,-2.41
"{'cat': 'II', 'resp': 'reach'}",16,164,Right,39.937137144163046,14.995625195262573,1.9968568572081522,0.23555072974711452,Right,Correct,0.0,0.0,-45,45,2007,1031,-0.62
"{'cat': 'II', 'resp': 'reach'}",16,165,Left,40.87985738619397,49.116982993746355,2.0439928693096987,0.7715277646982418,Right,Incorrect,0.0,0.0,-45,45,2005,873,-0.74
"{'cat': 'II', 'resp': 'reach'}",16,166,Right,58.42923785214412,27.865828999201923,2.921461892607206,0.4377154183504109,Right,Correct,0.0,0.0,-45,45,2006,1783,-0.69
"{'cat': 'II', 'resp': 'reach'}",16,167,Right,32.26622228415148,17.42624148487879,1.613311114207574,0.27373076114288447,Left,Incorrect,0.0,0.0,-45,45,2006,952,-2.26
"{'cat': 'II', 'resp': 'reach'}",16,168,Right,53.66079083314547,22.107944408163544,2.6830395416572737,0.34727077869329065,Right,Correct,0.0,0.0,-45,45,2012,823,-0.64
"{'cat': 'II', 'resp': 'reach'}",16,169,Right,79.07784700516571,55.458896517132594,3.9538923502582857,0.8711463093721018,Right,Correct,0.0,0.0,-45,45,2013,967,-0.69
"{'cat': 'II', 'resp': 'reach'}",16,170,Right,59.71979416799822,32.00067181887248,2.9859897083999107,0.5026653774805386,Right,Correct,0.0,0.0,-45,45,2002,840,-0.66
"{'cat': 'II', 'resp': 'reach'}",16,171,Right,59.48543990351029,37.27092046106789,2.9742719951755148,0.5854502495651019,Right,Correct,0.0,0.0,-45,45,2006,760,-0.68
"{'cat': 'II', 'resp': 'reach'}",16,172,Left,65.43338165271649,84.89181978053051,3.2716690826358246,1.3334775868619166,Left,Correct,0.0,0.0,-45,45,2002,897,-2.27
"{'cat': 'II', 'resp': 'reach'}",16,173,Left,67.73841920604796,87.40879398617811,3.3869209603023984,1.3730141252306043,Left,Correct,0.0,0.0,-45,45,2006,910,-2.5
"{'cat': 'II', 'resp': 'reach'}",16,174,Right,31.935820891734952,12.081919202616373,1.5967910445867477,0.1897823430410252,Right,Correct,0.0,0.0,-45,45,2002,1040,-0.74
"{'cat': 'II', 'resp': 'reach'}",16,175,Right,47.41021699817348,18.540308749852297,2.3705108499086744,0.2912304888191127,Right,Correct,0.0,0.0,-45,45,2004,915,-0.69
"{'cat': 'II', 'resp': 'reach'}",16,176,Left,38.47579759552148,70.55801611180165,1.9237898797760737,1.1083227253435315,Left,Correct,0.0,0.0,-45,45,2012,773,-2.4
"{'cat': 'II', 'resp': 'reach'}",16,177,Left,24.133339388509228,47.84679995327796,1.2066669694254615,0.7515757761549924,Left,Correct,0.0,0.0,-45,45,2004,783,-2.42
"{'cat': 'II', 'resp': 'reach'}",16,178,Left,41.78862841865428,66.32983272197008,2.089431420932714,1.0419065759659054,Left,Correct,0.0,0.0,-45,45,2008,738,-2.47
"{'cat': 'II', 'resp': 'reach'}",16,179,Left,44.86918779497197,59.52468022560275,2.2434593897485984,0.9350114905201762,Left,Correct,0.0,0.0,-45,45,2009,890,-2.4
"{'cat': 'II', 'resp': 'reach'}",16,180,Left,60.63932104957381,87.95367821329515,3.0319660524786904,1.3815731466554433,Left,Correct,0.0,0.0,-45,45,2004,823,-2.59
"{'cat': 'II', 'resp': 'reach'}",16,181,Left,62.14687295053825,82.38002498558417,3.1073436475269123,1.2940224064862742,Left,Correct,0.0,0.0,-45,45,2009,776,-2.45
"{'cat': 'II', 'resp': 'reach'}",16,182,Left,44.00433615722255,64.74420438381657,2.2002168078611275,1.016999584273571,Left,Correct,0.0,0.0,-45,45,2006,767,-2.49
"{'cat': 'II', 'resp': 'reach'}",16,183,Right,33.710967419001236,20.948421783732627,1.6855483709500618,0.32905703990037405,Right,Correct,0.0,0.0,-45,45,2003,1140,-0.75
"{'cat': 'II', 'resp': 'reach'}",16,184,Right,52.644359784660594,35.54103338733513,2.6322179892330295,0.5582772469532081,Right,Correct,0.0,0.0,-45,45,2001,703,-0.7
"{'cat': 'II', 'resp': 'reach'}",16,185,Right,78.19019279106796,56.14273548238181,3.9095096395533977,0.8818880267194283,Right,Correct,0.0,0.0,-45,45,2001,835,-0.7
"{'cat': 'II', 'resp': 'reach'}",16,186,Right,73.9256677025615,60.444677773297784,3.696283385128075,0.9494627782059728,Right,Correct,0.0,0.0,-45,45,2013,1208,-0.7
"{'cat': 'II', 'resp': 'reach'}",16,187,Right,71.38342975370378,58.94945369999801,3.5691714876851894,0.9259758533852269,Right,Correct,0.0,0.0,-45,45,2001,840,-0.63
"{'cat': 'II', 'resp': 'reach'}",16,188,Left,41.956913848076745,59.60061436201212,2.0978456924038373,0.936204261145678,Left,Correct,0.0,0.0,-45,45,2012,1456,-2.41
"{'cat': 'II', 'resp': 'reach'}",16,189,Left,57.711503276110754,77.43872123950999,2.8855751638055374,1.2164045887471624,Left,Correct,0.0,0.0,-45,45,2009,671,-2.43
"{'cat': 'II', 'resp': 'reach'}",16,190,Right,52.11070725116999,33.60276038154344,2.6055353625585,0.5278309257749751,Right,Correct,0.0,0.0,-45,45,2009,1192,-0.64
"{'cat': 'II', 'resp': 'reach'}",16,191,Right,33.59626770776666,21.482852073608445,1.6798133853883328,0.33745185126302274,Left,Incorrect,0.0,0.0,-45,45,2003,1093,-2.1
"{'cat': 'II', 'resp': 'reach'}",16,192,Right,71.30206944349803,54.845751893442866,3.565103472174901,0.861515056145243,Right,Correct,0.0,0.0,-45,45,2008,891,-0.82
"{'cat': 'II', 'resp': 'reach'}",16,193,Right,63.045060028721366,50.80523053210498,3.152253001436068,0.7980466950179843,Right,Correct,0.0,0.0,-45,45,2002,670,-0.75
"{'cat': 'II', 'resp': 'reach'}",16,194,Left,55.11718670247821,71.71479788667557,2.75585933512391,1.126493410972284,Left,Correct,0.0,0.0,-45,45,2004,873,-2.47
"{'cat': 'II', 'resp': 'reach'}",16,195,Right,58.703128428917005,50.0798448010112,2.93515642144585,0.786652362598869,Right,Correct,0.0,0.0,-45,45,2008,735,-0.71
"{'cat': 'II', 'resp': 'reach'}",16,196,Right,77.94828527661286,47.6589166020758,3.897414263830643,0.7486245113756498,Right,Correct,0.0,0.0,-45,45,2001,896,-0.74
"{'cat': 'II', 'resp': 'reach'}",16,197,Left,23.949916432292024,39.92539227960329,1.1974958216146012,0.6271465953864617,Left,Correct,0.0,0.0,-45,45,2009,1015,-2.41
"{'cat': 'II', 'resp': 'reach'}",16,198,Left,30.269394898618238,57.586870788657826,1.5134697449309118,0.9045724510643606,Left,Correct,0.0,0.0,-45,45,2001,1619,-2.49
"{'cat': 'II', 'resp': 'reach'}",16,199,Left,35.62919696550682,58.504340111822025,1.781459848275341,0.9189840254920937,Left,Correct,0.0,0.0,-45,45,2010,761,-2.38
"{'cat': 'II', 'resp': 'reach'}",16,200,Right,36.91405693998125,11.285910857256436,1.8457028469990626,0.17727867319113053,Right,Correct,0.0,0.0,-45,45,2005,1073,-0.75
"{'cat': 'II', 'resp': 'reach'}",16,201,Left,45.823209436371314,67.22891007762041,2.2911604718185656,1.0560292500435056,Left,Correct,0.0,0.0,-45,45,2006,823,-2.42
"{'cat': 'II', 'resp': 'reach'}",16,202,Left,38.46045930171609,63.938317199693245,1.9230229650858046,1.004340737987251,Left,Correct,0.0,0.0,-45,45,2006,933,-2.42
"{'cat': 'II', 'resp': 'reach'}",16,203,Left,37.72468181038685,57.36100100660586,1.8862340905193422,0.9010244968245485,Left,Correct,0.0,0.0,-45,45,2004,1619,-2.5
"{'cat': 'II', 'resp': 'reach'}",16,204,Right,67.06681170148327,41.1500392685925,3.353340585074164,0.6463833053057084,Right,Correct,0.0,0.0,-45,45,2004,788,-0.77
"{'cat': 'II', 'resp': 'reach'}",16,205,Left,30.219113278525583,43.656293846249916,1.5109556639262791,0.6857514601516801,Left,Correct,0.0,0.0,-45,45,2007,723,-2.58
"{'cat': 'II', 'resp': 'reach'}",16,206,Left,28.95224422526919,48.47802448987335,1.4476122112634595,0.7614910279896608,Left,Correct,0.0,0.0,-45,45,2008,844,-2.54
"{'cat': 'II', 'resp': 'reach'}",16,207,Right,77.41251796277761,46.19782382768169,3.8706258981388806,0.7256737197444014,Right,Correct,0.0,0.0,-45,45,2012,731,-0.7
"{'cat': 'II', 'resp': 'reach'}",16,208,Left,58.774316951467355,82.16843568784984,2.938715847573368,1.2906987695695722,Right,Incorrect,0.0,0.0,-45,45,2006,1757,-0.65
"{'cat': 'II', 'resp': 'reach'}",16,209,Right,54.36233028678738,22.562274360016126,2.718116514339369,0.35440737688852003,Right,Correct,0.0,0.0,-45,45,2006,1096,-0.71
"{'cat': 'II', 'resp': 'reach'}",16,210,Left,52.79301645992812,77.36913743956555,2.6396508229964057,1.2153115689735907,Left,Correct,0.0,0.0,-45,45,2001,1032,-2.57
"{'cat': 'II', 'resp': 'reach'}",16,211,Left,34.4018794295382,47.988957610803226,1.7200939714769101,0.7538087834176571,Right,Incorrect,0.0,0.0,-45,45,2004,984,-0.7
"{'cat': 'II', 'resp': 'reach'}",16,212,Left,34.29750223751466,67.64249919568829,1.7148751118757328,1.0625258927181391,Left,Correct,0.0,0.0,-45,45,2009,969,-2.38
"{'cat': 'II', 'resp': 'reach'}",16,213,Right,66.44217134398751,52.92849094433367,3.3221085671993755,0.8313987915815627,Right,Correct,0.0,0.0,-45,45,2003,815,-0.66
"{'cat': 'II', 'resp': 'reach'}",16,214,Left,48.564697022397034,65.91819606629383,2.4282348511198517,1.0354406024988014,Left,Correct,0.0,0.0,-45,45,2005,1010,-2.48
"{'cat': 'II', 'resp': 'reach'}",16,215,Left,37.36500213915645,60.83789255542238,1.8682501069578226,0.9556393815600006,Right,Incorrect,0.0,0.0,-45,45,2003,691,-0.74
"{'cat': 'II', 'resp': 'reach'}",16,216,Right,70.77656300072871,58.894869965291875,3.538828150036436,0.9251184540854355,Right,Correct,0.0,0.0,-45,45,2007,765,-0.71
"{'cat': 'II', 'resp': 'reach'}",16,217,Left,46.88093916595056,62.20550392595707,2.344046958297528,0.9771217707331887,Right,Incorrect,0.0,0.0,-45,45,2009,780,-0.69
"{'cat': 'II', 'resp': 'reach'}",16,218,Left,47.228991158419056,59.35796551325775,2.361449557920953,0.9323927419424342,Left,Correct,0.0,0.0,-45,45,2001,869,-2.43
"{'cat': 'II', 'resp': 'reach'}",16,219,Left,47.472467109810765,57.2289482163773,2.373623355490538,0.8989502164462081,Left,Correct,0.0,0.0,-45,45,2006,953,-2.36
"{'cat': 'II', 'resp': 'reach'}",16,220,Right,39.78055657320853,31.456317477567627,1.9890278286604264,0.49411467948257337,Left,Incorrect,0.0,0.0,-45,45,2004,889,-2.48
"{'cat': 'II', 'resp': 'reach'}",16,221,Right,80.51661316501794,67.44985842093212,4.025830658250897,1.0594998985043598,Right,Correct,0.0,0.0,-45,45,2002,857,-0.78
"{'cat': 'II', 'resp': 'reach'}",16,222,Right,64.89710159754047,38.88217651739054,3.2448550798770235,0.6107598005130784,Right,Correct,0.0,0.0,-45,45,2001,818,-0.72
"{'cat': 'II', 'resp': 'reach'}",16,223,Left,54.82362374127831,64.05764882133907,2.7411811870639156,1.0062151947167683,Right,Incorrect,0.0,0.0,-45,45,2003,1622,-0.7
"{'cat': 'II', 'resp': 'reach'}",16,224,Right,87.49401232047595,61.18738180045787,4.374700616023797,0.9611291457835611,Right,Correct,0.0,0.0,-45,45,2009,1764,-0.68
"{'cat': 'II', 'resp': 'reach'}",16,225,Left,20.234210180890006,38.7517730206437,1.0117105090445002,0.608711427176167,Left,Correct,0.0,0.0,-45,45,2013,703,-2.38
"{'cat': 'II', 'resp': 'reach'}",16,226,Left,37.87326796018484,54.76860124243446,1.893663398009242,0.8603031765531046,Left,Correct,0.0,0.0,-45,45,2003,811,-2.47
"{'cat': 'II', 'resp': 'reach'}",16,227,Right,80.69660324163539,59.13169439284423,4.03483016208177,0.9288384834943809,Right,Correct,0.0,0.0,-45,45,2007,799,-0.71
"{'cat': 'II', 'resp': 'reach'}",16,228,Right,47.67276648685946,32.45268508625854,2.3836383243429733,0.5097655852812644,Left,Incorrect,0.0,0.0,-45,45,2002,1678,-2.34
"{'cat': 'II', 'resp': 'reach'}",16,229,Right,87.03841155896464,64.73456097638855,4.351920577948232,1.0168481059839138,Right,Correct,0.0,0.0,-45,45,2004,716,-0.7
"{'cat': 'II', 'resp': 'reach'}",16,230,Right,67.92844893126897,48.57669817036471,3.3964224465634487,0.7630409905383326,Right,Correct,0.0,0.0,-45,45,2011,928,-0.75
"{'cat': 'II', 'resp': 'reach'}",16,231,Right,75.59168648051913,51.81041810178362,3.779584324025956,0.8138361444398953,Right,Correct,0.0,0.0,-45,45,2003,660,-0.75
"{'cat': 'II', 'resp': 'reach'}",16,232,Left,50.04681035895186,73.71656172198037,2.502340517947593,1.1579370437683605,Left,Correct,0.0,0.0,-45,45,2006,1026,-2.41
"{'cat': 'II', 'resp': 'reach'}",16,233,Right,82.12621072288329,65.12499809977619,4.106310536144164,1.0229810779765307,Right,Correct,0.0,0.0,-45,45,2003,1592,-0.73
"{'cat': 'II', 'resp': 'reach'}",16,234,Right,43.226039843988886,23.50200185422391,2.1613019921994443,0.36916858184941764,Right,Correct,0.0,0.0,-45,45,2008,1170,-0.8
"{'cat': 'II', 'resp': 'reach'}",16,235,Left,23.028368757238287,47.516671844349695,1.1514184378619143,0.7463901359462298,Left,Correct,0.0,0.0,-45,45,2004,856,-2.38
"{'cat': 'II', 'resp': 'reach'}",16,236,Right,54.34700697666255,40.1983435176105,2.7173503488331274,0.6314341034070202,Right,Correct,0.0,0.0,-45,45,2007,713,-0.69
"{'cat': 'II', 'resp': 'reach'}",16,237,Left,63.99234666876568,78.32667602109413,3.1996173334382836,1.2303525498398857,Right,Incorrect,0.0,0.0,-45,45,2005,774,-0.67
"{'cat': 'II', 'resp': 'reach'}",16,238,Left,66.346124330608,80.15943731516381,3.3173062165304,1.2591414969260508,Right,Incorrect,0.0,0.0,-45,45,2002,1324,-0.66
"{'cat': 'II', 'resp': 'reach'}",16,239,Left,34.180033859563046,59.519176601772536,1.7090016929781524,0.9349250397992105,Left,Correct,0.0,0.0,-45,45,2007,980,-2.37
"{'cat': 'II', 'resp': 'reach'}",16,240,Right,43.75359608844,19.904836881839124,2.187679804422,0.31266444659444476,Right,Correct,0.0,0.0,-45,45,2013,796,-0.72
"{'cat': 'II', 'resp': 'reach'}",16,241,Left,60.18672088810707,76.5191845717695,3.0093360444053534,1.2019605405467624,Right,Incorrect,0.0,0.0,-45,45,2005,1044,-0.82
"{'cat': 'II', 'resp': 'reach'}",16,242,Right,79.24822922177543,59.69093837640336,3.9624114610887715,0.9376230674459493,Right,Correct,0.0,0.0,-45,45,2003,957,-0.71
"{'cat': 'II', 'resp': 'reach'}",16,243,Left,11.644336726503688,36.848755676175976,0.5822168363251844,0.5788189006309982,Left,Correct,0.0,0.0,-45,45,2001,821,-2.51
"{'cat': 'II', 'resp': 'reach'}",16,244,Left,20.159371507071967,50.98824255469313,1.0079685753535983,0.800921441146392,Left,Correct,0.0,0.0,-45,45,2010,1379,-2.53
"{'cat': 'II', 'resp': 'reach'}",16,245,Right,76.51091507399265,59.59283990500025,3.8255457536996325,0.9360821402605072,Right,Correct,0.0,0.0,-45,45,2005,1067,-0.8
"{'cat': 'II', 'resp': 'reach'}",16,246,Right,34.16106239210656,14.129772630025908,1.7080531196053277,0.2219499494569176,Left,Incorrect,0.0,0.0,-45,45,2004,1065,-2.44
"{'cat': 'II', 'resp': 'reach'}",16,247,Right,88.63762332645108,67.83618378177975,4.431881166322554,1.0655682830820317,Right,Correct,0.0,0.0,-45,45,2008,851,-0.88
"{'cat': 'II', 'resp': 'reach'}",16,248,Right,61.38358445884616,38.66019785483615,3.069179222942308,0.6072729678354055,Right,Correct,0.0,0.0,-45,45,2003,790,-0.74
"{'cat': 'II', 'resp': 'reach'}",16,249,Right,70.27955943854306,50.194131456584444,3.513977971927153,0.7884475731866303,Right,Correct,0.0,0.0,-45,45,2006,679,-0.8
"{'cat': 'II', 'resp': 'reach'}",16,250,Right,66.83844704768045,52.07620695030081,3.3419223523840227,0.8180111459094337,Right,Correct,0.0,0.0,-45,45,2002,760,-0.8
"{'cat': 'II', 'resp': 'reach'}",16,251,Right,56.95389292794758,40.3517443846984,2.8476946463973785,0.6338437185925084,Right,Correct,0.0,0.0,-45,45,2001,783,-0.82
"{'cat': 'II', 'resp': 'reach'}",16,252,Left,36.83555131724262,68.1987063264279,1.841777565862131,1.071262773897168,Left,Correct,0.0,0.0,-45,45,2011,778,-2.46
"{'cat': 'II', 'resp': 'reach'}",16,253,Left,34.2124210581022,54.873078419939304,1.71062105290511,0.8619443002196898,Left,Correct,0.0,0.0,-45,45,2008,847,-2.39
"{'cat': 'II', 'resp': 'reach'}",16,254,Right,84.19194353595759,65.19636997742671,4.20959717679788,1.0241021848090295,Right,Correct,0.0,0.0,-45,45,2013,865,-0.75
"{'cat': 'II', 'resp': 'reach'}",16,255,Right,73.2736080612103,47.561626140658696,3.663680403060515,0.7470962763813882,Right,Correct,0.0,0.0,-45,45,2010,831,-0.77
"{'cat': 'II', 'resp': 'reach'}",16,256,Right,42.83925285639005,29.105708141830153,2.141962642819502,0.45719139437951123,Left,Incorrect,0.0,0.0,-45,45,2003,893,-2.43
"{'cat': 'II', 'resp': 'reach'}",16,257,Right,35.49832510437753,13.067380864253359,1.7749162552188764,0.20526193862399095,Right,Correct,0.0,0.0,-45,45,2004,1086,-0.8
"{'cat': 'II', 'resp': 'reach'}",16,258,Right,53.169600837517024,44.75458310347923,2.658480041875851,0.703003347461821,Right,Correct,0.0,0.0,-45,45,2008,792,-0.74
"{'cat': 'II', 'resp': 'reach'}",16,259,Right,36.217149418106445,23.592660542111403,1.810857470905322,0.3705926451886749,Left,Incorrect,0.0,0.0,-45,45,2010,809,-2.23
"{'cat': 'II', 'resp': 'reach'}",16,260,Right,59.83439964808567,35.94978396641575,2.9917199824042835,0.5646978860351594,Right,Correct,0.0,0.0,-45,45,2006,751,-0.76
"{'cat': 'II', 'resp': 'reach'}",16,261,Right,44.73332908746931,28.472766719483623,2.2366664543734656,0.44724917376652845,Right,Correct,0.0,0.0,-45,45,2010,834,-0.72
"{'cat': 'II', 'resp': 'reach'}",16,262,Left,39.759676572133124,61.34371134500485,1.987983828606656,0.9635847645270003,Left,Correct,0.0,0.0,-45,45,2001,898,-2.39
"{'cat': 'II', 'resp': 'reach'}",16,263,Right,63.14152241064508,32.77976258788153,3.157076120532254,0.5149033066625307,Right,Correct,0.0,0.0,-45,45,2010,744,-0.69
"{'cat': 'II', 'resp': 'reach'}",16,264,Right,71.90746111726,45.34277035894879,3.5953730558630004,0.7122425712654127,Right,Correct,0.0,0.0,-45,45,2002,726,-0.72
"{'cat': 'II', 'resp': 'reach'}",16,265,Right,87.03961097533943,66.31022904180102,4.351980548766972,1.0415986420778933,Right,Correct,0.0,0.0,-45,45,2003,710,-0.75
"{'cat': 'II', 'resp': 'reach'}",16,266,Left,30.20310018582878,52.30483767485868,1.510155009291439,0.8216024689327134,Left,Correct,0.0,0.0,-45,45,2012,1131,-2.36
"{'cat': 'II', 'resp': 'reach'}",16,267,Right,72.82227678594063,60.99766007897029,3.6411138392970317,0.9581490039513023,Right,Correct,0.0,0.0,-45,45,2014,854,-0.68
"{'cat': 'II', 'resp': 'reach'}",16,268,Right,53.057007319228255,27.76880251595639,2.6528503659614127,0.4361913299155718,Right,Correct,0.0,0.0,-45,45,2005,737,-0.76
"{'cat': 'II', 'resp': 'reach'}",16,269,Left,46.73554688077488,78.06970469872296,2.3367773440387443,1.226316053747163,Left,Correct,0.0,0.0,-45,45,2008,1401,-2.42
"{'cat': 'II', 'resp': 'reach'}",16,270,Right,80.83503422657454,61.25232911229622,4.041751711328726,0.9621493357722701,Right,Correct,0.0,0.0,-45,45,2008,835,-0.78
"{'cat': 'II', 'resp': 'reach'}",16,271,Right,78.01016930397691,61.99619852821376,3.9005084651988455,0.9738340092336535,Right,Correct,0.0,0.0,-45,45,2013,904,-0.83
"{'cat': 'II', 'resp': 'reach'}",16,272,Right,74.26320134700956,46.15752808597748,3.713160067350478,0.7250407557138571,Right,Correct,0.0,0.0,-45,45,2012,759,-0.79
"{'cat': 'II', 'resp': 'reach'}",16,273,Right,56.64245891879609,37.595538890359904,2.8321229459398047,0.5905493439285202,Right,Correct,0.0,0.0,-45,45,2009,836,-0.8
"{'cat': 'II', 'resp': 'reach'}",16,274,Left,45.88710130295979,67.71484860460086,2.2943550651479896,1.0636623545757955,Left,Correct,0.0,0.0,-45,45,2002,851,-2.44
"{'cat': 'II', 'resp': 'reach'}",16,275,Right,48.44602420871302,36.33195437358096,2.422301210435651,0.5707010047530076,Right,Correct,0.0,0.0,-45,45,2001,753,-0.75
"{'cat': 'II', 'resp': 'reach'}",16,276,Left,47.603167395340705,72.67069095896004,2.3801583697670354,1.1415085442398154,Right,Incorrect,0.0,0.0,-45,45,2009,1441,-0.7
"{'cat': 'II', 'resp': 'reach'}",16,277,Left,42.34127339644564,62.16461313354513,2.117063669822282,0.9764794596679848,Left,Correct,0.0,0.0,-45,45,2008,822,-2.47
"{'cat': 'II', 'resp': 'reach'}",16,278,Right,85.03593633673094,61.63921371620741,4.251796816836547,0.9682265049194421,Right,Correct,0.0,0.0,-45,45,2012,891,-0.75
"{'cat': 'II', 'resp': 'reach'}",16,279,Left,20.551419936018913,33.90569457085941,1.0275709968009457,0.5325894048933563,Left,Correct,0.0,0.0,-45,45,2003,1671,-2.54
"{'cat': 'II', 'resp': 'reach'}",16,280,Left,55.85709662936132,76.5327239058037,2.792854831468066,1.2021732159084442,Right,Incorrect,0.0,0.0,-45,45,2005,756,-0.85
"{'cat': 'II', 'resp': 'reach'}",16,281,Right,72.26384317334387,58.441482001918544,3.6131921586671933,0.9179966526106371,Right,Correct,0.0,0.0,-45,45,2007,860,-0.81
"{'cat': 'II', 'resp': 'reach'}",16,282,Left,27.008778031953113,54.580911742933736,1.3504389015976557,0.8573549567891675,Left,Correct,0.0,0.0,-45,45,2009,793,-2.4
"{'cat': 'II', 'resp': 'reach'}",16,283,Left,41.020644273186676,55.8849482696465,2.051032213659334,0.8778387146508354,Left,Correct,0.0,0.0,-45,45,2006,735,-2.21
"{'cat': 'II', 'resp': 'reach'}",16,284,Left,24.93952141410842,57.46123908052362,1.246976070705421,0.9025990328076986,Left,Correct,0.0,0.0,-45,45,2012,837,-2.34
"{'cat': 'II', 'resp': 'reach'}",16,285,Right,65.95041976152345,56.14389722337744,3.2975209880761724,0.8819062753043146,Right,Correct,0.0,0.0,-45,45,2008,722,-0.79
"{'cat': 'II', 'resp': 'reach'}",16,286,Left,30.766368775067924,48.79058400244243,1.5383184387533961,0.7664007013321441,Left,Correct,0.0,0.0,-45,45,2007,1087,-2.36
"{'cat': 'II', 'resp': 'reach'}",16,287,Right,55.628895582591944,25.412586196848338,2.781444779129597,0.39917997052368054,Right,Correct,0.0,0.0,-45,45,2012,893,-0.77
"{'cat': 'II', 'resp': 'reach'}",16,288,Right,47.16179032913422,26.585778533607794,2.358089516456711,0.4176084326557373,Right,Correct,0.0,0.0,-45,45,2009,1463,-0.76
"{'cat': 'II', 'resp': 'reach'}",16,289,Left,42.39602791503202,49.3682681599669,2.119801395751601,0.7754749428590145,Right,Incorrect,0.0,0.0,-45,45,2001,1170,-0.78
"{'cat': 'II', 'resp': 'reach'}",16,290,Left,15.505581171233597,38.44825626019394,0.7752790585616799,0.6039437970518152,Left,Correct,0.0,0.0,-45,45,2009,765,-2.43
"{'cat': 'II', 'resp': 'reach'}",16,291,Right,40.14704176578575,26.418132700973203,2.0073520882892875,0.4149750580746885,Right,Correct,0.0,0.0,-45,45,2002,832,-0.76
"{'cat': 'II', 'resp': 'reach'}",16,292,Right,72.39023746017716,45.79517418908319,3.6195118730088582,0.7193489140114434,Right,Correct,0.0,0.0,-45,45,2008,800,-0.79
"{'cat': 'II', 'resp': 'reach'}",16,293,Right,57.86109977144048,28.42454543196208,2.893054988572024,0.44649171555340694,Right,Correct,0.0,0.0,-45,45,2005,962,-0.77
"{'cat': 'II', 'resp': 'reach'}",16,294,Left,42.21077830552707,66.63839282279572,2.1105389152763534,1.0467534266956293,Left,Correct,0.0,0.0,-45,45,2003,1208,-2.45
"{'cat': 'II', 'resp': 'reach'}",16,295,Left,53.88642400425717,68.7313547370523,2.6943212002128587,1.0796295955659876,Right,Incorrect,0.0,0.0,-45,45,2008,785,-0.81
"{'cat': 'II', 'resp': 'reach'}",16,296,Right,61.60772741010037,39.418966204906624,3.0803863705050185,0.6191916732071949,Right,Correct,0.0,0.0,-45,45,2006,789,-0.72
"{'cat': 'II', 'resp': 'reach'}",16,297,Right,47.114975885361794,22.43661499889465,2.3557487942680897,0.35243352425975,Right,Correct,0.0,0.0,-45,45,2011,881,-0.78
"{'cat': 'II', 'resp': 'reach'}",16,298,Right,33.350567269966874,12.70076297029626,1.6675283634983435,0.19950311821234004,Right,Correct,0.0,0.0,-45,45,2006,2585,-0.71
"{'cat': 'II', 'resp': 'reach'}",16,299,Right,76.320213321927,53.515603383714094,3.81601066609635,0.8406211322135064,Right,Correct,0.0,0.0,-45,45,2009,941,-0.79
"{'cat': 'II', 'resp': 'reach'}",16,300,Right,74.04895906279125,60.2017433895265,3.7024479531395627,0.9456467738291718,Right,Correct,0.0,0.0,-45,45,2006,1153,-0.8
"{'cat': 'II', 'resp': 'reach'}",16,301,Right,52.95359527560734,38.14561260931818,2.6476797637803666,0.5991898817005809,Right,Correct,0.0,0.0,-45,45,2008,984,-0.75
"{'cat': 'II', 'resp': 'reach'}",16,302,Left,51.671503776212994,75.30560789042785,2.5835751888106495,1.1828977226134083,Left,Correct,0.0,0.0,-45,45,2001,1160,-2.33
"{'cat': 'II', 'resp': 'reach'}",16,303,Right,62.26221329505967,53.74362406346026,3.113110664752983,0.8442028726752918,Right,Correct,0.0,0.0,-45,45,2008,1030,-0.76
"{'cat': 'II', 'resp': 'reach'}",16,304,Left,35.67911647842647,58.038073864190345,1.7839558239213236,0.9116599324012108,Left,Correct,0.0,0.0,-45,45,2012,965,-2.56
"{'cat': 'II', 'resp': 'reach'}",16,305,Right,66.53794816544385,43.05551317983975,3.3268974082721923,0.6763144195116153,Right,Correct,0.0,0.0,-45,45,2012,782,-0.71
"{'cat': 'II', 'resp': 'reach'}",16,306,Left,60.526049027348115,82.46670693713223,3.026302451367406,1.295384003397185,Left,Correct,0.0,0.0,-45,45,2006,929,-2.49
"{'cat': 'II', 'resp': 'reach'}",16,307,Right,67.79769213936511,48.46044896887793,3.3898846069682556,0.7612149523514499,Right,Correct,0.0,0.0,-45,45,2007,854,-0.78
"{'cat': 'II', 'resp': 'reach'}",16,308,Left,24.054364537080296,43.0598739814248,1.2027182268540146,0.676382918822732,Left,Correct,0.0,0.0,-45,45,2005,966,-2.41
"{'cat': 'II', 'resp': 'reach'}",16,309,Left,57.480446172124225,73.40443154767534,2.874022308606211,1.1530341144555587,Right,Incorrect,0.0,0.0,-45,45,2007,571,-0.78
"{'cat': 'II', 'resp': 'reach'}",16,310,Right,51.463538031909614,22.89901250660269,2.5731769015954806,0.359696847326019,Right,Correct,0.0,0.0,-45,45,2005,788,-0.79
"{'cat': 'II', 'resp': 'reach'}",16,311,Right,65.52852518625727,55.23931313681855,3.276426259312864,0.8676971016998765,Right,Correct,0.0,0.0,-45,45,2007,893,-0.8
"{'cat': 'II', 'resp': 'reach'}",16,312,Left,51.02312133761602,80.17094497697931,2.551156066880801,1.259322258855149,Left,Correct,0.0,0.0,-45,45,2003,794,-2.52
"{'cat': 'II', 'resp': 'reach'}",16,313,Left,44.02323900299588,69.6203462342074,2.201161950149794,1.0935938413488189,Right,Incorrect,0.0,0.0,-45,45,2007,1295,-0.86
"{'cat': 'II', 'resp': 'reach'}",16,314,Right,80.74464814136027,66.43718975816331,4.0372324070680135,1.0435929363469847,Right,Correct,0.0,0.0,-45,45,2009,759,-0.73
"{'cat': 'II', 'resp': 'reach'}",16,315,Left,48.683241099294115,68.79208171852706,2.434162054964706,1.0805834927603666,Right,Incorrect,0.0,0.0,-45,45,2012,890,-0.81
"{'cat': 'II', 'resp': 'reach'}",16,316,Right,73.19417301144635,53.85759489382698,3.659708650572318,0.84599312229231,Right,Correct,0.0,0.0,-45,45,2003,735,-0.76
"{'cat': 'II', 'resp': 'reach'}",16,317,Left,36.10162283835623,55.563214191025565,1.8050811419178114,0.8727849275618103,Left,Correct,0.0,0.0,-45,45,2002,812,-2.25
"{'cat': 'II', 'resp': 'reach'}",16,318,Left,21.641031954661564,52.00890368192548,1.0820515977330782,0.8169539486419812,Left,Correct,0.0,0.0,-45,45,2007,864,-2.42
"{'cat': 'II', 'resp': 'reach'}",16,319,Right,51.49023387717908,24.728860923597516,2.574511693858954,0.3884400390460883,Right,Correct,0.0,0.0,-45,45,2007,749,-0.72
"{'cat': 'II', 'resp': 'reach'}",16,320,Right,69.22965888427053,55.07678530141991,3.4614829442135266,0.8651441204314155,Right,Correct,0.0,0.0,-45,45,2004,697,-0.72
"{'cat': 'II', 'resp': 'reach'}",16,321,Left,45.63249547632427,60.665332893197494,2.2816247738162136,0.9529288207242425,Left,Correct,0.0,0.0,-45,45,2002,1133,-2.37
"{'cat': 'II', 'resp': 'reach'}",16,322,Right,32.639371481908604,19.04116019082047,1.6319685740954302,0.29909784485654006,Right,Correct,0.0,0.0,-45,45,2010,1014,-0.79
"{'cat': 'II', 'resp': 'reach'}",16,323,Right,62.257897568430366,46.812363042457605,3.1128948784215185,0.7353268791568156,Right,Correct,0.0,0.0,-45,45,2003,782,-0.74
"{'cat': 'II', 'resp': 'reach'}",16,324,Right,43.517485031364885,25.62808025847587,2.1758742515682443,0.402564943328187,Right,Correct,0.0,0.0,-45,45,2004,1492,-0.76
"{'cat': 'II', 'resp': 'reach'}",16,325,Left,63.937668109093394,85.61346714392427,3.19688340545467,1.344813197138518,Left,Correct,0.0,0.0,-45,45,2006,887,-2.42
"{'cat': 'II', 'resp': 'reach'}",16,326,Left,59.30831863577171,69.5370489682727,2.9654159317885855,1.092285410955196,Right,Incorrect,0.0,0.0,-45,45,2002,881,-0.82
"{'cat': 'II', 'resp': 'reach'}",16,327,Right,85.04496391820534,58.53378841620625,4.2522481959102665,0.9194465983756644,Right,Correct,0.0,0.0,-45,45,2009,785,-0.77
"{'cat': 'II', 'resp': 'reach'}",16,328,Right,63.611975178274704,48.71241728027013,3.1805987589137352,0.7651728613314858,Right,Correct,0.0,0.0,-45,45,2005,4604,-0.74
"{'cat': 'II', 'resp': 'reach'}",16,329,Right,38.394898645425556,17.849827403559996,1.9197449322712776,0.28038443319434925,Left,Incorrect,0.0,0.0,-45,45,2005,1263,-2.35
"{'cat': 'II', 'resp': 'reach'}",16,330,Right,42.790395624450625,20.956559812603906,2.1395197812225315,0.32918487175895766,Right,Correct,0.0,0.0,-45,45,2007,884,-0.8
"{'cat': 'II', 'resp': 'reach'}",16,331,Right,63.51865727350005,30.406823276218596,3.1759328636750026,0.47762926311785736,Right,Correct,0.0,0.0,-45,45,2007,690,-0.72
"{'cat': 'II', 'resp': 'reach'}",16,332,Left,43.82615895982175,71.38208349953527,2.1913079479910875,1.1212671456003658,Right,Incorrect,0.0,0.0,-45,45,2009,1408,-0.82
"{'cat': 'II', 'resp': 'reach'}",16,333,Left,55.10892599468229,72.34139391620408,2.755446299734114,1.1363359583879606,Right,Incorrect,0.0,0.0,-45,45,2004,937,-0.69
"{'cat': 'II', 'resp': 'reach'}",16,334,Left,53.13397815356255,79.32264321242516,2.6566989076781278,1.2459971658973958,Left,Correct,0.0,0.0,-45,45,2001,949,-2.53
"{'cat': 'II', 'resp': 'reach'}",16,335,Right,71.17361230650157,54.200724277777596,3.5586806153250787,0.8513829860515603,Left,Incorrect,0.0,0.0,-45,45,2005,786,-2.53
"{'cat': 'II', 'resp': 'reach'}",16,336,Right,31.920083887161837,15.106466102742438,1.5960041943580918,0.23729181465039442,Right,Correct,0.0,0.0,-45,45,2007,972,-0.68
"{'cat': 'II', 'resp': 'reach'}",16,337,Right,46.366149626385464,34.64920479534709,2.3183074813192732,0.5442684361889532,Right,Correct,0.0,0.0,-45,45,2009,791,-0.74
"{'cat': 'II', 'resp': 'reach'}",16,338,Left,17.67345273252506,46.08569492867852,0.8836726366262531,0.7239124031175842,Right,Incorrect,0.0,0.0,-45,45,2013,925,-0.74
"{'cat': 'II', 'resp': 'reach'}",16,339,Left,20.729893228222124,48.586689787461495,1.0364946614111061,0.7631979384926763,Left,Correct,0.0,0.0,-45,45,2007,612,-2.35
"{'cat': 'II', 'resp': 'reach'}",16,340,Left,39.95379477129469,50.639903133413824,1.9976897385647345,0.7954497383121581,Left,Correct,0.0,0.0,-45,45,2008,805,-2.47
"{'cat': 'II', 'resp': 'reach'}",16,341,Left,42.931658275153985,68.29020087444572,2.1465829137576993,1.0726999668966497,Left,Correct,0.0,0.0,-45,45,2002,868,-2.37
"{'cat': 'II', 'resp': 'reach'}",16,342,Left,35.463084305307895,47.75123823688811,1.7731542152653947,0.7500746962241187,Right,Incorrect,0.0,0.0,-45,45,2002,863,-0.71
"{'cat': 'II', 'resp': 'reach'}",16,343,Left,41.17991313454764,51.264554415808824,2.0589956567273817,0.805261737711296,Left,Correct,0.0,0.0,-45,45,2012,984,-2.47
"{'cat': 'II', 'resp': 'reach'}",16,344,Right,65.2912751240027,50.066296108237246,3.264563756200135,0.7864395402304468,Left,Incorrect,0.0,0.0,-45,45,2007,792,-2.33
"{'cat': 'II', 'resp': 'reach'}",16,345,Right,42.93070211945427,24.07537182779486,2.1465351059727134,0.378175056333215,Right,Correct,0.0,0.0,-45,45,2005,1315,-0.8
"{'cat': 'II', 'resp': 'reach'}",16,346,Right,53.68411095704596,33.69531254517693,2.684205547852298,0.5292847317616992,Right,Correct,0.0,0.0,-45,45,2006,700,-0.8
"{'cat': 'II', 'resp': 'reach'}",16,347,Right,65.68243439286658,44.98044540273408,3.284121719643329,0.7065511841621307,Right,Correct,0.0,0.0,-45,45,2002,713,-0.79
"{'cat': 'II', 'resp': 'reach'}",16,348,Left,48.333533146662745,57.73021353213852,2.416676657333137,0.9068240736136823,Left,Correct,0.0,0.0,-45,45,2012,1073,-2.33
"{'cat': 'II', 'resp': 'reach'}",16,349,Right,57.059703069570375,28.29444977875253,2.852985153478519,0.4444481778114715,Right,Correct,0.0,0.0,-45,45,2005,705,-0.66
"{'cat': 'II', 'resp': 'reach'}",16,350,Right,41.019351176306714,29.774153096645364,2.0509675588153358,0.46769130317639435,Right,Correct,0.0,0.0,-45,45,2007,783,-0.74
"{'cat': 'II', 'resp': 'reach'}",16,351,Left,19.205589872370656,34.485407764941655,0.9602794936185327,0.5416955184519456,Left,Correct,0.0,0.0,-45,45,2009,1110,-2.53
"{'cat': 'II', 'resp': 'reach'}",16,352,Right,33.44225211159699,19.770107756291907,1.6721126055798496,0.31054812643922625,Right,Correct,0.0,0.0,-45,45,2006,706,-0.76
"{'cat': 'II', 'resp': 'reach'}",16,353,Left,44.39678074851952,63.81246289950729,2.219839037425976,1.0023638232628167,Right,Incorrect,0.0,0.0,-45,45,2006,1066,-0.76
"{'cat': 'II', 'resp': 'reach'}",16,354,Left,52.175086101608656,79.13372979474023,2.6087543050804327,1.2430297208715781,Left,Correct,0.0,0.0,-45,45,2002,1145,-2.37
"{'cat': 'II', 'resp': 'reach'}",16,355,Right,53.37131403144562,35.552671968254636,2.6685657015722812,0.5584600653547827,Right,Correct,0.0,0.0,-45,45,2012,642,-0.77
"{'cat': 'II', 'resp': 'reach'}",16,356,Right,38.46728491776865,25.64489717516598,1.9233642458884328,0.40282910283783535,Right,Correct,0.0,0.0,-45,45,2013,833,-0.77
"{'cat': 'II', 'resp': 'reach'}",16,357,Right,86.35700909106302,59.58465793572125,4.317850454553151,0.9359536181876132,Right,Correct,0.0,0.0,-45,45,2001,709,-0.74
"{'cat': 'II', 'resp': 'reach'}",16,358,Right,69.10901630153043,56.533464900074364,3.4554508150765217,0.8880255900602503,Right,Correct,0.0,0.0,-45,45,2003,703,-0.75
"{'cat': 'II', 'resp': 'reach'}",16,359,Left,62.179108091523645,85.41619212995946,3.1089554045761822,1.3417144084654744,Left,Correct,0.0,0.0,-45,45,2006,852,-2.49
"{'cat': 'II', 'resp': 'reach'}",16,360,Left,47.627536330643274,74.07394909703159,2.3813768165321636,1.1635508715280936,Right,Incorrect,0.0,0.0,-45,45,2012,647,-0.75
"{'cat': 'II', 'resp': 'reach'}",16,361,Left,34.22442729583395,61.54959847892771,1.7112213647916974,0.9668188320640041,Left,Correct,0.0,0.0,-45,45,2003,806,-2.29
"{'cat': 'II', 'resp': 'reach'}",16,362,Left,65.47360466007144,83.81687534869502,3.273680233003572,1.3165923992115587,Left,Correct,0.0,0.0,-45,45,2007,1520,-2.34
"{'cat': 'II', 'resp': 'reach'}",16,363,Left,46.28252039846897,73.16909464367995,2.314126019923448,1.149337451012006,Left,Correct,0.0,0.0,-45,45,2010,1395,-2.3
"{'cat': 'II', 'resp': 'reach'}",16,364,Right,70.17725012674848,46.06553927380708,3.508862506337424,0.723595798831222,Right,Correct,0.0,0.0,-45,45,2007,892,-0.77
"{'cat': 'II', 'resp': 'reach'}",16,365,Right,82.35961045940132,55.277696779714695,4.117980522970067,0.8683000305525793,Right,Correct,0.0,0.0,-45,45,2005,737,-0.86
"{'cat': 'II', 'resp': 'reach'}",16,366,Left,27.372648197518558,49.85420985009777,1.368632409875928,0.7831080970779553,Left,Correct,0.0,0.0,-45,45,2004,715,-2.44
"{'cat': 'II', 'resp': 'reach'}",16,367,Left,19.129526090808614,37.48236276671814,0.9564763045404306,0.5887715775355464,Left,Correct,0.0,0.0,-45,45,2004,750,-2.4
"{'cat': 'II', 'resp': 'reach'}",16,368,Right,56.214014938549006,39.975225646428825,2.8107007469274503,0.6279293760820756,Right,Correct,0.0,0.0,-45,45,2008,1563,-0.85
"{'cat': 'II', 'resp': 'reach'}",16,369,Left,43.54460732092864,56.932688416408546,2.177230366046432,0.8942965783905289,Left,Correct,0.0,0.0,-45,45,2006,2351,-2.13
"{'cat': 'II', 'resp': 'reach'}",16,370,Right,38.242974347081365,16.06417071428838,1.9121487173540683,0.25233540351010336,Right,Correct,0.0,0.0,-45,45,2003,913,-0.83
"{'cat': 'II', 'resp': 'reach'}",16,371,Left,23.97354999264646,46.18004987953689,1.198677499632323,0.7253945272198165,Left,Correct,0.0,0.0,-45,45,2009,1778,-2.3
"{'cat': 'II', 'resp': 'reach'}",16,372,Left,45.773860439872735,52.74089240927052,2.288693021993637,0.8284520006836698,Right,Incorrect,0.0,0.0,-45,45,2011,660,-0.8
"{'cat': 'II', 'resp': 'reach'}",16,373,Left,39.16324388898647,53.185118676346264,1.9581621944493235,0.8354298905695535,Left,Correct,0.0,0.0,-45,45,2012,1659,-2.43
"{'cat': 'II', 'resp': 'reach'}",16,374,Right,62.25566879134713,48.409492007561006,3.112783439567356,0.7604145222748373,Right,Correct,0.0,0.0,-45,45,2002,1175,-0.82
"{'cat': 'II', 'resp': 'reach'}",16,375,Left,16.0706009092723,40.66190701891545,0.8035300454636151,0.63871574185788,Left,Correct,0.0,0.0,-45,45,2008,811,-2.48
"{'cat': 'II', 'resp': 'reach'}",16,376,Right,77.88242526457323,48.99549877479798,3.8941212632286613,0.7696194950493653,Right,Correct,0.0,0.0,-45,45,2004,594,-0.81
"{'cat': 'II', 'resp': 'reach'}",16,377,Left,34.85310296852221,62.612492315847106,1.7426551484261104,0.9835147294120631,Left,Correct,0.0,0.0,-45,45,2003,838,-2.31
"{'cat': 'II', 'resp': 'reach'}",16,378,Left,49.03858062947743,72.80705011767452,2.4519290314738713,1.1436504688961509,Right,Incorrect,0.0,0.0,-45,45,2002,565,-0.75
"{'cat': 'II', 'resp': 'reach'}",16,379,Left,30.857527148189835,47.39228353375444,1.542876357409492,0.7444362489324373,Left,Correct,0.0,0.0,-45,45,2003,855,-2.41
"{'cat': 'II', 'resp': 'reach'}",16,380,Right,79.09620494305005,58.60458942961669,3.9548102471525026,0.9205587380936493,Right,Correct,0.0,0.0,-45,45,2001,1297,-0.77
"{'cat': 'II', 'resp': 'reach'}",16,381,Left,59.54681874490764,77.21530564792008,2.9773409372453816,1.212895184840981,Left,Correct,0.0,0.0,-45,45,2012,1087,-2.4
"{'cat': 'II', 'resp': 'reach'}",16,382,Left,37.98632907737312,52.02362525701109,1.899316453868656,0.8171851946026721,Left,Correct,0.0,0.0,-45,45,2004,863,-2.36
"{'cat': 'II', 'resp': 'reach'}",16,383,Left,42.437393007024205,52.154553054667545,2.1218696503512104,0.8192418036390134,Left,Correct,0.0,0.0,-45,45,2005,2230,-2.31
"{'cat': 'II', 'resp': 'reach'}",16,384,Left,46.00582159257813,52.607127121728624,2.300291079628906,0.8263508204604351,Left,Correct,0.0,0.0,-45,45,2003,1128,-2.37
"{'cat': 'II', 'resp': 'reach'}",16,385,Left,48.69993148607391,77.59014934018307,2.4349965743036956,1.2187832157902703,Left,Correct,0.0,0.0,-45,45,2008,693,-2.4
"{'cat': 'II', 'resp': 'reach'}",16,386,Right,77.94039316820012,63.08068625874482,3.897019658410006,0.9908691026693768,Right,Correct,0.0,0.0,-45,45,2003,810,-0.79
"{'cat': 'II', 'resp': 'reach'}",16,387,Right,67.3963531472902,44.68859729356651,3.3698176573645098,0.7019668447835063,Right,Correct,0.0,0.0,-45,45,2002,682,-0.83
"{'cat': 'II', 'resp': 'reach'}",16,388,Left,42.12985468186133,63.625859396134224,2.1064927340930666,0.9994326622861619,Left,Correct,0.0,0.0,-45,45,2005,861,-2.42
"{'cat': 'II', 'resp': 'reach'}",16,389,Left,57.43694208539004,83.13779799512267,2.8718471042695017,1.305925477085548,Left,Correct,0.0,0.0,-45,45,2008,1297,-2.28
"{'cat': 'II', 'resp': 'reach'}",16,390,Left,46.92909772625417,61.937613794388184,2.346454886312708,0.9729137623866588,Left,Correct,0.0,0.0,-45,45,2004,1076,-2.28
"{'cat': 'II', 'resp': 'reach'}",16,391,Right,79.86216723273941,60.05685079703427,3.9931083616369705,0.9433708063085058,Right,Correct,0.0,0.0,-45,45,2008,579,-0.75
"{'cat': 'II', 'resp': 'reach'}",16,392,Left,30.84294130709053,41.99046015703947,1.5421470653545264,0.6595846057510506,Left,Correct,0.0,0.0,-45,45,2010,800,-2.36
"{'cat': 'II', 'resp': 'reach'}",16,393,Left,42.67249820486446,52.99872513767314,2.133624910243223,0.8325020277106931,Left,Correct,0.0,0.0,-45,45,2005,900,-2.29
"{'cat': 'II', 'resp': 'reach'}",16,394,Left,60.20800390032986,79.37951604485848,3.010400195016493,1.2468905222602027,Right,Incorrect,0.0,0.0,-45,45,2006,758,-0.75
"{'cat': 'II', 'resp': 'reach'}",16,395,Left,44.6538501704554,57.22879015446112,2.23269250852277,0.8989477336154347,Left,Correct,0.0,0.0,-45,45,2003,803,-2.43
"{'cat': 'II', 'resp': 'reach'}",16,396,Right,76.75335847096011,52.69918700606249,3.8376679235480053,0.8277968937420029,Right,Correct,0.0,0.0,-45,45,2001,810,-0.72
"{'cat': 'II', 'resp': 'reach'}",16,397,Left,43.94962672144265,60.23989815098624,2.1974813360721326,0.9462461074206787,Left,Correct,0.0,0.0,-45,45,2002,804,-2.38
"{'cat': 'II', 'resp': 'reach'}",16,398,Left,49.312940542690654,61.40765232631411,2.4656470271345325,0.9645891471127228,Left,Correct,0.0,0.0,-45,45,2013,1064,-2.28
"{'cat': 'II', 'resp': 'reach'}",16,399,Left,64.927578984434,75.64669380941186,3.246378949221701,1.188255487700024,Left,Correct,0.0,0.0,-45,45,2008,1210,-2.33
