condition,subject,trial,cat,x,y,xt,yt,resp,fb,rotation,su,target_angle_left,target_angle_right,rt,mt,ep
"{'cat': 'II', 'resp': 'button'}",3,0,Left,40.41322256507468,49.22157559346199,2.020661128253734,0.7731707014126744,Right,Incorrect,0.0,0.0,-45,45,4821,-1,-1
"{'cat': 'II', 'resp': 'button'}",3,1,Right,49.51692953296692,36.730300964230565,2.475846476648346,0.5769582183668441,Left,Incorrect,0.0,0.0,-45,45,3706,-1,-1
"{'cat': 'II', 'resp': 'button'}",3,2,Left,41.05675417928265,65.67463445226844,2.0528377089641325,1.0316147456122082,Left,Correct,0.0,0.0,-45,45,3426,-1,-1
"{'cat': 'II', 'resp': 'button'}",3,3,Left,51.37005127003345,68.4177295354422,2.5685025635016725,1.0747031824191933,Right,Incorrect,0.0,0.0,-45,45,1762,-1,-1
"{'cat': 'II', 'resp': 'button'}",3,4,Left,30.73809180793105,40.44377150603663,1.5369045903965526,0.6352892772341444,Right,Incorrect,0.0,0.0,-45,45,1238,-1,-1
"{'cat': 'II', 'resp': 'button'}",3,5,Right,71.17753493117254,42.41515754559897,3.558876746558627,0.6662557367305371,Left,Incorrect,0.0,0.0,-45,45,3384,-1,-1
"{'cat': 'II', 'resp': 'button'}",3,6,Right,69.9701799494849,49.60227694227236,3.4985089974742447,0.7791507442158462,Right,Correct,0.0,0.0,-45,45,1228,-1,-1
"{'cat': 'II', 'resp': 'button'}",3,7,Right,74.66536322565788,61.691405354194444,3.733268161282894,0.9690463292518365,Right,Correct,0.0,0.0,-45,45,874,-1,-1
"{'cat': 'II', 'resp': 'button'}",3,8,Left,54.86811620520079,62.998856320692326,2.7434058102600396,0.9895837210082296,Left,Correct,0.0,0.0,-45,45,793,-1,-1
"{'cat': 'II', 'resp': 'button'}",3,9,Right,47.84413299486327,24.314185980791855,2.392206649743164,0.38192634027635813,Left,Incorrect,0.0,0.0,-45,45,713,-1,-1
"{'cat': 'II', 'resp': 'button'}",3,10,Right,86.89245095171754,60.10997599813481,4.344622547585876,0.9442052950159954,Right,Correct,0.0,0.0,-45,45,705,-1,-1
"{'cat': 'II', 'resp': 'button'}",3,11,Right,70.61049008669308,47.27425040702997,3.530524504334654,0.7425821889134483,Right,Correct,0.0,0.0,-45,45,562,-1,-1
"{'cat': 'II', 'resp': 'button'}",3,12,Right,63.85508464932612,43.50004928146012,3.192754232466306,0.6832971762671454,Right,Correct,0.0,0.0,-45,45,648,-1,-1
"{'cat': 'II', 'resp': 'button'}",3,13,Right,35.814023134617045,17.335330501529178,1.7907011567308524,0.27230273475577566,Left,Incorrect,0.0,0.0,-45,45,655,-1,-1
"{'cat': 'II', 'resp': 'button'}",3,14,Right,86.94722005390513,64.17648890070626,4.347361002695257,1.0080819303182285,Right,Correct,0.0,0.0,-45,45,604,-1,-1
"{'cat': 'II', 'resp': 'button'}",3,15,Right,70.2916269678051,48.02384625746863,3.514581348390255,0.7543568129979457,Right,Correct,0.0,0.0,-45,45,590,-1,-1
"{'cat': 'II', 'resp': 'button'}",3,16,Left,36.29935108982873,50.934905070532984,1.8149675544914368,0.8000836179043996,Right,Incorrect,0.0,0.0,-45,45,482,-1,-1
"{'cat': 'II', 'resp': 'button'}",3,17,Right,57.81601518961463,32.98259033697284,2.8908007594807317,0.5180893174949779,Right,Correct,0.0,0.0,-45,45,523,-1,-1
"{'cat': 'II', 'resp': 'button'}",3,18,Left,52.44414658678108,60.9680706892513,2.622207329339054,0.9576842149044755,Right,Incorrect,0.0,0.0,-45,45,1076,-1,-1
"{'cat': 'II', 'resp': 'button'}",3,19,Right,48.76864245299374,39.2084981843548,2.438432122649687,0.615885649271289,Right,Correct,0.0,0.0,-45,45,912,-1,-1
"{'cat': 'II', 'resp': 'button'}",3,20,Right,53.79645188696149,40.72689782463375,2.6898225943480747,0.6397366150468575,Left,Incorrect,0.0,0.0,-45,45,1480,-1,-1
"{'cat': 'II', 'resp': 'button'}",3,21,Left,35.25391059620857,52.518312480253435,1.7626955298104285,0.8249557233344865,Left,Correct,0.0,0.0,-45,45,1061,-1,-1
"{'cat': 'II', 'resp': 'button'}",3,22,Left,65.10859647176282,84.05332902937081,3.255429823588141,1.3203066049421852,Right,Incorrect,0.0,0.0,-45,45,519,-1,-1
"{'cat': 'II', 'resp': 'button'}",3,23,Right,52.39014835979001,22.042711720962657,2.6195074179895004,0.34624610603886957,Right,Correct,0.0,0.0,-45,45,844,-1,-1
"{'cat': 'II', 'resp': 'button'}",3,24,Right,74.71503632884031,58.82497603941634,3.735751816442016,0.9240205628651299,Right,Correct,0.0,0.0,-45,45,3714,-1,-1
"{'cat': 'II', 'resp': 'button'}",3,25,Left,16.05692654292564,46.08009288505165,0.802846327146282,0.7238244064220677,Left,Correct,0.0,0.0,-45,45,3949,-1,-1
"{'cat': 'II', 'resp': 'button'}",3,26,Right,76.84940542173513,52.038549728319,3.842470271086756,0.8174196276497704,Right,Correct,0.0,0.0,-45,45,848,-1,-1
"{'cat': 'II', 'resp': 'button'}",3,27,Left,24.632847921750837,39.933702554134186,1.2316423960875418,0.6272771328735396,Left,Correct,0.0,0.0,-45,45,609,-1,-1
"{'cat': 'II', 'resp': 'button'}",3,28,Left,62.89803128347917,73.96240093693027,3.144901564173958,1.1617986771266149,Left,Correct,0.0,0.0,-45,45,1120,-1,-1
"{'cat': 'II', 'resp': 'button'}",3,29,Left,51.73888438880196,64.03814160705559,2.5869442194400976,1.0059087761113437,Left,Correct,0.0,0.0,-45,45,846,-1,-1
"{'cat': 'II', 'resp': 'button'}",3,30,Right,36.37367105571738,16.34310239436434,1.8186835527858691,0.25671685209500383,Right,Correct,0.0,0.0,-45,45,575,-1,-1
"{'cat': 'II', 'resp': 'button'}",3,31,Right,51.671470484399705,36.889920428077424,2.5835735242199855,0.5794655150418003,Right,Correct,0.0,0.0,-45,45,653,-1,-1
"{'cat': 'II', 'resp': 'button'}",3,32,Right,44.6946151021906,36.668704510971224,2.23473075510953,0.5759906635416105,Right,Correct,0.0,0.0,-45,45,1260,-1,-1
"{'cat': 'II', 'resp': 'button'}",3,33,Right,53.879915460955395,41.007842263743015,2.69399577304777,0.6441496799767205,Right,Correct,0.0,0.0,-45,45,769,-1,-1
"{'cat': 'II', 'resp': 'button'}",3,34,Left,48.693487731391805,71.2890660395912,2.4346743865695903,1.1198060307562867,Left,Correct,0.0,0.0,-45,45,595,-1,-1
"{'cat': 'II', 'resp': 'button'}",3,35,Left,32.45844720007598,59.35816360525927,1.622922360003799,0.9323958535643178,Left,Correct,0.0,0.0,-45,45,651,-1,-1
"{'cat': 'II', 'resp': 'button'}",3,36,Left,43.3075035600135,62.01601005591253,2.165375178000675,0.9741452079830277,Left,Correct,0.0,0.0,-45,45,1226,-1,-1
"{'cat': 'II', 'resp': 'button'}",3,37,Right,36.028083270116554,21.078253276815776,1.8014041635058278,0.3310964282247471,Right,Correct,0.0,0.0,-45,45,638,-1,-1
"{'cat': 'II', 'resp': 'button'}",3,38,Right,73.96714492194687,46.88669333188263,3.6983572460973435,0.7364944566128001,Right,Correct,0.0,0.0,-45,45,886,-1,-1
"{'cat': 'II', 'resp': 'button'}",3,39,Left,65.12946145150724,84.39751917495909,3.2564730725753623,1.3257131311062758,Left,Correct,0.0,0.0,-45,45,612,-1,-1
"{'cat': 'II', 'resp': 'button'}",3,40,Right,67.39740744238986,36.67957337583433,3.369870372119493,0.5761613912716445,Right,Correct,0.0,0.0,-45,45,702,-1,-1
"{'cat': 'II', 'resp': 'button'}",3,41,Left,34.42802035899276,67.15329004850415,1.7214010179496382,1.0548414134038258,Left,Correct,0.0,0.0,-45,45,569,-1,-1
"{'cat': 'II', 'resp': 'button'}",3,42,Right,66.55799182366125,44.89791115706115,3.327899591183063,0.7052547392627525,Right,Correct,0.0,0.0,-45,45,547,-1,-1
"{'cat': 'II', 'resp': 'button'}",3,43,Left,33.12602874462648,43.77921270297608,1.6563014372313238,0.687682265038073,Left,Correct,0.0,0.0,-45,45,1016,-1,-1
"{'cat': 'II', 'resp': 'button'}",3,44,Right,51.90400063357684,25.677205321645104,2.5952000316788424,0.403336598015985,Right,Correct,0.0,0.0,-45,45,531,-1,-1
"{'cat': 'II', 'resp': 'button'}",3,45,Left,51.85223011813059,82.1711248527033,2.59261150590653,1.2907410108723119,Left,Correct,0.0,0.0,-45,45,650,-1,-1
"{'cat': 'II', 'resp': 'button'}",3,46,Right,70.9231199664994,47.27896727324123,3.5461559983249695,0.7426562812746345,Right,Correct,0.0,0.0,-45,45,535,-1,-1
"{'cat': 'II', 'resp': 'button'}",3,47,Left,28.211907622226814,58.065928261981355,1.4105953811113405,0.9120974682585629,Left,Correct,0.0,0.0,-45,45,472,-1,-1
"{'cat': 'II', 'resp': 'button'}",3,48,Right,63.238801069695405,51.28520523768675,3.1619400534847704,0.8055861200628074,Right,Correct,0.0,0.0,-45,45,880,-1,-1
"{'cat': 'II', 'resp': 'button'}",3,49,Left,64.65876221952458,88.60461449424125,3.232938110976229,1.3917980298463202,Left,Correct,0.0,0.0,-45,45,547,-1,-1
"{'cat': 'II', 'resp': 'button'}",3,50,Left,47.39589801793586,67.9994934272813,2.369794900896793,1.0681335449948717,Left,Correct,0.0,0.0,-45,45,781,-1,-1
"{'cat': 'II', 'resp': 'button'}",3,51,Left,19.377918109997918,41.730226177545944,0.9688959054998959,0.6554968599600942,Right,Incorrect,0.0,0.0,-45,45,780,-1,-1
"{'cat': 'II', 'resp': 'button'}",3,52,Right,69.89363415153194,59.0633401956253,3.4946817075765972,0.9277647782752557,Right,Correct,0.0,0.0,-45,45,666,-1,-1
"{'cat': 'II', 'resp': 'button'}",3,53,Right,55.45620190361302,40.92192550454857,2.772810095180651,0.642800102679193,Right,Correct,0.0,0.0,-45,45,905,-1,-1
"{'cat': 'II', 'resp': 'button'}",3,54,Left,18.258451427331373,47.5387307715764,0.9129225713665687,0.7467366367648374,Left,Correct,0.0,0.0,-45,45,621,-1,-1
"{'cat': 'II', 'resp': 'button'}",3,55,Left,51.79709483891456,71.5107175575697,2.5898547419457283,1.123287724658978,Left,Correct,0.0,0.0,-45,45,1278,-1,-1
"{'cat': 'II', 'resp': 'button'}",3,56,Left,16.041856728535073,36.62541992253327,0.8020928364267536,0.5753107508163589,Left,Correct,0.0,0.0,-45,45,806,-1,-1
"{'cat': 'II', 'resp': 'button'}",3,57,Right,62.11789187624023,49.26452577587779,3.1058945938120117,0.7738453613004134,Right,Correct,0.0,0.0,-45,45,651,-1,-1
"{'cat': 'II', 'resp': 'button'}",3,58,Left,62.3081615852351,71.91680330146035,3.115408079261755,1.12966650460765,Right,Incorrect,0.0,0.0,-45,45,632,-1,-1
"{'cat': 'II', 'resp': 'button'}",3,59,Right,38.657855767820976,16.621801828000745,1.932892788391049,0.26109465256136266,Right,Correct,0.0,0.0,-45,45,584,-1,-1
"{'cat': 'II', 'resp': 'button'}",3,60,Right,66.99783536895632,39.58201609425237,3.349891768447816,0.621752854879881,Right,Correct,0.0,0.0,-45,45,740,-1,-1
"{'cat': 'II', 'resp': 'button'}",3,61,Right,66.42002946874763,57.61818249777238,3.3210014734373816,0.9050642942409886,Right,Correct,0.0,0.0,-45,45,808,-1,-1
"{'cat': 'II', 'resp': 'button'}",3,62,Left,49.03290411129709,79.44667211002738,2.4516452055648545,1.2479454072650955,Left,Correct,0.0,0.0,-45,45,610,-1,-1
"{'cat': 'II', 'resp': 'button'}",3,63,Left,37.29821590571292,61.01820261622748,1.8649107952856463,0.9584716853719687,Left,Correct,0.0,0.0,-45,45,648,-1,-1
"{'cat': 'II', 'resp': 'button'}",3,64,Right,45.70686639354916,20.68920945689,2.285343319677458,0.3249853421917305,Right,Correct,0.0,0.0,-45,45,854,-1,-1
"{'cat': 'II', 'resp': 'button'}",3,65,Left,42.444842616183855,74.09515336579483,2.1222421308091928,1.16388394740295,Left,Correct,0.0,0.0,-45,45,755,-1,-1
"{'cat': 'II', 'resp': 'button'}",3,66,Right,38.30143042730381,13.860816616007131,1.9150715213651908,0.21772519826801667,Right,Correct,0.0,0.0,-45,45,640,-1,-1
"{'cat': 'II', 'resp': 'button'}",3,67,Left,55.122067488654515,80.5771671200228,2.7561033744327257,1.2657031813567035,Left,Correct,0.0,0.0,-45,45,798,-1,-1
"{'cat': 'II', 'resp': 'button'}",3,68,Right,74.33251472210993,52.45212248125269,3.7166257361054966,0.8239160132614773,Right,Correct,0.0,0.0,-45,45,1663,-1,-1
"{'cat': 'II', 'resp': 'button'}",3,69,Right,62.99208189027617,39.901981321763266,3.1496040945138084,0.6267788569206432,Right,Correct,0.0,0.0,-45,45,566,-1,-1
"{'cat': 'II', 'resp': 'button'}",3,70,Left,25.592391573615924,35.819382211045834,1.2796195786807962,0.5626495400517326,Right,Incorrect,0.0,0.0,-45,45,1296,-1,-1
"{'cat': 'II', 'resp': 'button'}",3,71,Left,39.44413302321445,60.88560708829645,1.9722066511607224,0.9563888796897341,Right,Incorrect,0.0,0.0,-45,45,945,-1,-1
"{'cat': 'II', 'resp': 'button'}",3,72,Left,27.221660590011275,48.1271189495478,1.3610830295005638,0.7559790166517074,Left,Correct,0.0,0.0,-45,45,724,-1,-1
"{'cat': 'II', 'resp': 'button'}",3,73,Right,56.128895583125065,25.256124435576922,2.8064447791562532,0.39672227492479056,Right,Correct,0.0,0.0,-45,45,596,-1,-1
"{'cat': 'II', 'resp': 'button'}",3,74,Left,60.26700324099133,83.5435222934882,3.0133501620495666,1.312298579461188,Left,Correct,0.0,0.0,-45,45,754,-1,-1
"{'cat': 'II', 'resp': 'button'}",3,75,Right,69.66476725335073,54.44554024524162,3.483238362667537,0.8552285462758925,Right,Correct,0.0,0.0,-45,45,743,-1,-1
"{'cat': 'II', 'resp': 'button'}",3,76,Left,51.934782248122325,67.94371073790904,2.5967391124061163,1.067257312559225,Left,Correct,0.0,0.0,-45,45,571,-1,-1
"{'cat': 'II', 'resp': 'button'}",3,77,Right,32.1545320463524,13.628329860594295,1.6077266023176202,0.2140733048537072,Left,Incorrect,0.0,0.0,-45,45,1345,-1,-1
"{'cat': 'II', 'resp': 'button'}",3,78,Right,37.81533707463932,28.391788667627612,1.890766853731966,0.4459771735024643,Right,Correct,0.0,0.0,-45,45,753,-1,-1
"{'cat': 'II', 'resp': 'button'}",3,79,Right,37.393623852198026,14.903222417369399,1.8696811926099013,0.23409927030611213,Right,Correct,0.0,0.0,-45,45,565,-1,-1
"{'cat': 'II', 'resp': 'button'}",3,80,Left,59.78952336009499,81.38669060399118,2.98947616800475,1.2784191465074208,Left,Correct,0.0,0.0,-45,45,553,-1,-1
"{'cat': 'II', 'resp': 'button'}",3,81,Left,11.776423514462042,34.458410256899754,0.5888211757231021,0.5412714425872972,Left,Correct,0.0,0.0,-45,45,731,-1,-1
"{'cat': 'II', 'resp': 'button'}",3,82,Right,71.16256189424469,58.66278154556916,3.5581280947122345,0.9214728177135147,Right,Correct,0.0,0.0,-45,45,649,-1,-1
"{'cat': 'II', 'resp': 'button'}",3,83,Left,45.977396121157014,77.96885588214894,2.298869806057851,1.2247319242408023,Left,Correct,0.0,0.0,-45,45,1393,-1,-1
"{'cat': 'II', 'resp': 'button'}",3,84,Left,45.790105498824644,54.87782709226089,2.289505274941232,0.8620188921900885,Right,Incorrect,0.0,0.0,-45,45,712,-1,-1
"{'cat': 'II', 'resp': 'button'}",3,85,Right,39.31081380605149,21.996485797477263,1.9655406903025747,0.34551999093073393,Right,Correct,0.0,0.0,-45,45,637,-1,-1
"{'cat': 'II', 'resp': 'button'}",3,86,Left,41.02873114313214,55.86946701349859,2.0514365571566073,0.8775955356479224,Left,Correct,0.0,0.0,-45,45,498,-1,-1
"{'cat': 'II', 'resp': 'button'}",3,87,Left,53.15828093930623,80.0578497812619,2.6579140469653115,1.257545763675038,Left,Correct,0.0,0.0,-45,45,698,-1,-1
"{'cat': 'II', 'resp': 'button'}",3,88,Left,34.88835332975548,66.87304243396473,1.7444176664877742,1.0504392941687104,Left,Correct,0.0,0.0,-45,45,566,-1,-1
"{'cat': 'II', 'resp': 'button'}",3,89,Left,64.63937862544192,83.243707090461,3.231968931272096,1.3075890932648644,Left,Correct,0.0,0.0,-45,45,699,-1,-1
"{'cat': 'II', 'resp': 'button'}",3,90,Left,43.13756611747392,64.17783935855327,2.1568783058736956,1.0081031432604843,Left,Correct,0.0,0.0,-45,45,630,-1,-1
"{'cat': 'II', 'resp': 'button'}",3,91,Left,31.755909016399322,56.74503457120321,1.587795450819966,0.8913489186829543,Left,Correct,0.0,0.0,-45,45,716,-1,-1
"{'cat': 'II', 'resp': 'button'}",3,92,Left,64.57072925160101,74.71699265504216,3.2285364625800503,1.173651776117015,Left,Correct,0.0,0.0,-45,45,521,-1,-1
"{'cat': 'II', 'resp': 'button'}",3,93,Left,33.10607244662225,55.95148625988942,1.6553036223311124,0.8788838909574943,Left,Correct,0.0,0.0,-45,45,704,-1,-1
"{'cat': 'II', 'resp': 'button'}",3,94,Left,22.239636006044847,40.0474387668875,1.1119818003022424,0.6290636971257043,Right,Incorrect,0.0,0.0,-45,45,740,-1,-1
"{'cat': 'II', 'resp': 'button'}",3,95,Left,62.33082029101377,84.8384921282564,3.116541014550689,1.332639918058829,Right,Incorrect,0.0,0.0,-45,45,695,-1,-1
"{'cat': 'II', 'resp': 'button'}",3,96,Left,48.496525713445074,74.82053573875844,2.424826285672254,1.1752782270726803,Left,Correct,0.0,0.0,-45,45,427,-1,-1
"{'cat': 'II', 'resp': 'button'}",3,97,Left,23.508848792264935,44.714256613109384,1.1754424396132466,0.7023699004323664,Right,Incorrect,0.0,0.0,-45,45,579,-1,-1
"{'cat': 'II', 'resp': 'button'}",3,98,Left,51.67591391068338,62.061965575420494,2.583795695534169,0.9748670755954183,Left,Correct,0.0,0.0,-45,45,504,-1,-1
"{'cat': 'II', 'resp': 'button'}",3,99,Right,65.73866720982276,49.68632007860517,3.2869333604911386,0.7804708907142851,Left,Incorrect,0.0,0.0,-45,45,811,-1,-1
"{'cat': 'II', 'resp': 'button'}",3,100,Left,18.938047715202412,47.51777421918284,0.9469023857601206,0.7464074520096163,Left,Correct,0.0,0.0,-45,45,699,-1,-1
"{'cat': 'II', 'resp': 'button'}",3,101,Right,38.26066321827539,29.158193316539773,1.9130331609137696,0.45801582957596176,Right,Correct,0.0,0.0,-45,45,788,-1,-1
"{'cat': 'II', 'resp': 'button'}",3,102,Left,37.51968091425775,63.339918285735095,1.8759840457128873,0.9949411098272158,Left,Correct,0.0,0.0,-45,45,691,-1,-1
"{'cat': 'II', 'resp': 'button'}",3,103,Right,82.18706570334142,68.15308842705831,4.109353285167071,1.0705462096095095,Right,Correct,0.0,0.0,-45,45,1322,-1,-1
"{'cat': 'II', 'resp': 'button'}",3,104,Left,38.7575975761281,57.09224091335232,1.9378798788064049,0.8968028231518315,Right,Incorrect,0.0,0.0,-45,45,910,-1,-1
"{'cat': 'II', 'resp': 'button'}",3,105,Right,32.300017410031046,11.0373853934579,1.6150008705015524,0.17337484433463313,Left,Incorrect,0.0,0.0,-45,45,1023,-1,-1
"{'cat': 'II', 'resp': 'button'}",3,106,Right,51.82941880912225,42.76708159474054,2.5914709404561127,0.6717837467675606,Left,Incorrect,0.0,0.0,-45,45,1028,-1,-1
"{'cat': 'II', 'resp': 'button'}",3,107,Right,80.50020195245577,57.20677467862805,4.025010097622788,0.8986019153297224,Right,Correct,0.0,0.0,-45,45,690,-1,-1
"{'cat': 'II', 'resp': 'button'}",3,108,Right,51.246835730830654,33.54031732818809,2.5623417865415323,0.5268500725865307,Right,Correct,0.0,0.0,-45,45,610,-1,-1
"{'cat': 'II', 'resp': 'button'}",3,109,Left,45.224735690167186,61.86611267511062,2.2612367845083594,0.9717906254314295,Right,Incorrect,0.0,0.0,-45,45,737,-1,-1
"{'cat': 'II', 'resp': 'button'}",3,110,Right,56.82882015433151,29.4430272782567,2.841441007716576,0.46248999098407556,Right,Correct,0.0,0.0,-45,45,811,-1,-1
"{'cat': 'II', 'resp': 'button'}",3,111,Right,46.96632584907582,21.729281153182434,2.348316292453791,0.3413227501931254,Right,Correct,0.0,0.0,-45,45,632,-1,-1
"{'cat': 'II', 'resp': 'button'}",3,112,Left,62.914210441757405,83.4141572369725,3.14571052208787,1.3102665179052833,Left,Correct,0.0,0.0,-45,45,792,-1,-1
"{'cat': 'II', 'resp': 'button'}",3,113,Right,52.827225683485466,31.332496387452803,2.6413612841742737,0.49216970234725227,Right,Correct,0.0,0.0,-45,45,551,-1,-1
"{'cat': 'II', 'resp': 'button'}",3,114,Right,63.459554392417125,49.402560615353735,3.172977719620856,0.7760136074885986,Right,Correct,0.0,0.0,-45,45,536,-1,-1
"{'cat': 'II', 'resp': 'button'}",3,115,Left,55.76112397801076,73.93086172878984,2.788056198900538,1.1613032604036448,Left,Correct,0.0,0.0,-45,45,591,-1,-1
"{'cat': 'II', 'resp': 'button'}",3,116,Right,86.92495612788294,64.52375895736219,4.346247806394147,1.0135368356122383,Left,Incorrect,0.0,0.0,-45,45,837,-1,-1
"{'cat': 'II', 'resp': 'button'}",3,117,Right,53.23630798265176,25.38463482857401,2.661815399132588,0.3987409114575386,Left,Incorrect,0.0,0.0,-45,45,534,-1,-1
"{'cat': 'II', 'resp': 'button'}",3,118,Right,57.535355641193426,48.55378459526659,2.8767677820596713,0.7626810649423539,Right,Correct,0.0,0.0,-45,45,811,-1,-1
"{'cat': 'II', 'resp': 'button'}",3,119,Left,31.050495608117615,49.05286186276697,1.5525247804058808,0.7705205523281181,Left,Correct,0.0,0.0,-45,45,921,-1,-1
"{'cat': 'II', 'resp': 'button'}",3,120,Right,47.441685931326106,17.722174348942236,2.3720842965663054,0.278379263701372,Right,Correct,0.0,0.0,-45,45,669,-1,-1
"{'cat': 'II', 'resp': 'button'}",3,121,Left,49.99686952793084,58.407442602668375,2.499843476396542,0.9174619629775526,Right,Incorrect,0.0,0.0,-45,45,760,-1,-1
"{'cat': 'II', 'resp': 'button'}",3,122,Left,28.61426525499302,60.66999632021548,1.4307132627496508,0.9530020736645437,Left,Correct,0.0,0.0,-45,45,690,-1,-1
"{'cat': 'II', 'resp': 'button'}",3,123,Right,84.86522422299814,64.58730935715789,4.243261211149907,1.0145350829578927,Right,Correct,0.0,0.0,-45,45,737,-1,-1
"{'cat': 'II', 'resp': 'button'}",3,124,Left,19.113786521563195,35.75375979350902,0.9556893260781598,0.5616187455275103,Left,Correct,0.0,0.0,-45,45,772,-1,-1
"{'cat': 'II', 'resp': 'button'}",3,125,Left,33.6565302758386,48.46558533595122,1.68282651379193,0.7612956342167678,Left,Correct,0.0,0.0,-45,45,1075,-1,-1
"{'cat': 'II', 'resp': 'button'}",3,126,Right,45.406343547875565,32.376938828368516,2.2703171773937783,0.5085757658446433,Right,Correct,0.0,0.0,-45,45,845,-1,-1
"{'cat': 'II', 'resp': 'button'}",3,127,Left,55.80536615900367,69.34625660567997,2.7902683079501833,1.0892884515317842,Left,Correct,0.0,0.0,-45,45,2015,-1,-1
"{'cat': 'II', 'resp': 'button'}",3,128,Right,47.3785026531055,18.905478459918577,2.368925132655275,0.29696656121140136,Right,Correct,0.0,0.0,-45,45,647,-1,-1
"{'cat': 'II', 'resp': 'button'}",3,129,Left,63.02381503977452,85.3342975181983,3.1511907519887257,1.3404280109120876,Left,Correct,0.0,0.0,-45,45,784,-1,-1
"{'cat': 'II', 'resp': 'button'}",3,130,Left,16.909548914019563,43.7074563378612,0.8454774457009782,0.686555118690607,Left,Correct,0.0,0.0,-45,45,787,-1,-1
"{'cat': 'II', 'resp': 'button'}",3,131,Left,31.548124367138264,51.71335184260389,1.577406218356913,0.8123114312061429,Right,Incorrect,0.0,0.0,-45,45,689,-1,-1
"{'cat': 'II', 'resp': 'button'}",3,132,Right,46.873255977663376,21.83362792195501,2.3436627988831686,0.3429618254041342,Right,Correct,0.0,0.0,-45,45,908,-1,-1
"{'cat': 'II', 'resp': 'button'}",3,133,Right,54.653491522398404,29.61629386199544,2.7326745761199205,0.4652116561170068,Right,Correct,0.0,0.0,-45,45,816,-1,-1
"{'cat': 'II', 'resp': 'button'}",3,134,Left,27.090735456310426,50.25264077644366,1.3545367728155213,0.7893666354338115,Left,Correct,0.0,0.0,-45,45,1484,-1,-1
"{'cat': 'II', 'resp': 'button'}",3,135,Left,59.140194948388285,68.88863704063506,2.957009747419414,1.082100180213364,Left,Correct,0.0,0.0,-45,45,1090,-1,-1
"{'cat': 'II', 'resp': 'button'}",3,136,Left,43.27807508331745,50.33665257587433,2.1639037541658723,0.7906862896933426,Left,Correct,0.0,0.0,-45,45,909,-1,-1
"{'cat': 'II', 'resp': 'button'}",3,137,Left,31.88745882506845,53.22788987260657,1.5943729412534224,0.8361017389493366,Left,Correct,0.0,0.0,-45,45,718,-1,-1
"{'cat': 'II', 'resp': 'button'}",3,138,Right,75.24160651805249,56.145124291184764,3.7620803259026245,0.8819255500403594,Right,Correct,0.0,0.0,-45,45,1066,-1,-1
"{'cat': 'II', 'resp': 'button'}",3,139,Right,42.89694665233456,32.96611054732165,2.1448473326167283,0.5178304535644734,Left,Incorrect,0.0,0.0,-45,45,766,-1,-1
"{'cat': 'II', 'resp': 'button'}",3,140,Left,29.027297224880876,49.16590599176381,1.4513648612440437,0.7722962453540578,Left,Correct,0.0,0.0,-45,45,794,-1,-1
"{'cat': 'II', 'resp': 'button'}",3,141,Right,55.19020826577616,39.250331343608245,2.7595104132888078,0.6165427630002244,Right,Correct,0.0,0.0,-45,45,520,-1,-1
"{'cat': 'II', 'resp': 'button'}",3,142,Left,22.18018665079929,51.99229222260011,1.1090093325399644,0.8166930164490711,Left,Correct,0.0,0.0,-45,45,718,-1,-1
"{'cat': 'II', 'resp': 'button'}",3,143,Left,61.0241066594702,85.20528046843651,3.05120533297351,1.3384014158334903,Left,Correct,0.0,0.0,-45,45,1671,-1,-1
"{'cat': 'II', 'resp': 'button'}",3,144,Left,29.999652207255018,44.200292819980916,1.499982610362751,0.6942965760488486,Left,Correct,0.0,0.0,-45,45,968,-1,-1
"{'cat': 'II', 'resp': 'button'}",3,145,Right,47.73070259432919,21.241350917145592,2.386535129716459,0.33365835996813703,Right,Correct,0.0,0.0,-45,45,697,-1,-1
"{'cat': 'II', 'resp': 'button'}",3,146,Left,56.42531113463887,71.22954704027748,2.821265556731943,1.1188711085013217,Left,Correct,0.0,0.0,-45,45,716,-1,-1
"{'cat': 'II', 'resp': 'button'}",3,147,Right,70.27818476232149,42.09206746226258,3.5139092381160744,0.6611806495692504,Right,Correct,0.0,0.0,-45,45,723,-1,-1
"{'cat': 'II', 'resp': 'button'}",3,148,Left,59.158014964895486,70.18135754190462,2.957900748244774,1.1024061863630308,Right,Incorrect,0.0,0.0,-45,45,854,-1,-1
"{'cat': 'II', 'resp': 'button'}",3,149,Right,70.8921496350352,50.85924565865169,3.54460748175176,0.7988951626416936,Right,Correct,0.0,0.0,-45,45,796,-1,-1
"{'cat': 'II', 'resp': 'button'}",3,150,Right,54.40233752110596,47.26338213949705,2.720116876055298,0.7424114705662548,Left,Incorrect,0.0,0.0,-45,45,535,-1,-1
"{'cat': 'II', 'resp': 'button'}",3,151,Right,46.93203522186403,21.109413456784115,2.3466017610932015,0.33158589118711246,Right,Correct,0.0,0.0,-45,45,1181,-1,-1
"{'cat': 'II', 'resp': 'button'}",3,152,Left,52.639820277532976,76.63707622189713,2.631991013876649,1.203812378256565,Left,Correct,0.0,0.0,-45,45,772,-1,-1
"{'cat': 'II', 'resp': 'button'}",3,153,Right,69.50643221638462,60.20712159116876,3.475321610819231,0.9457312544230159,Right,Correct,0.0,0.0,-45,45,920,-1,-1
"{'cat': 'II', 'resp': 'button'}",3,154,Left,23.95818900562251,45.52568837384033,1.1979094502811256,0.7151158407243751,Left,Correct,0.0,0.0,-45,45,638,-1,-1
"{'cat': 'II', 'resp': 'button'}",3,155,Right,45.59657056276164,27.22042664802909,2.2798285281380823,0.4275774619251401,Right,Correct,0.0,0.0,-45,45,892,-1,-1
"{'cat': 'II', 'resp': 'button'}",3,156,Left,22.168167230300064,51.57236767043624,1.1084083615150033,0.8100968570083713,Left,Correct,0.0,0.0,-45,45,671,-1,-1
"{'cat': 'II', 'resp': 'button'}",3,157,Right,54.1262757321261,37.44726624958894,2.706313786606305,0.5882202827336481,Right,Correct,0.0,0.0,-45,45,1147,-1,-1
"{'cat': 'II', 'resp': 'button'}",3,158,Right,50.007808854453316,22.834363150043657,2.500390442722666,0.3586813376078932,Right,Correct,0.0,0.0,-45,45,755,-1,-1
"{'cat': 'II', 'resp': 'button'}",3,159,Right,31.778375141991578,16.27194902162714,1.588918757099579,0.2555991775296572,Left,Incorrect,0.0,0.0,-45,45,661,-1,-1
"{'cat': 'II', 'resp': 'button'}",3,160,Right,54.85232316640146,26.074746269642304,2.742616158320073,0.4095811566246307,Right,Correct,0.0,0.0,-45,45,635,-1,-1
"{'cat': 'II', 'resp': 'button'}",3,161,Left,29.181334739873808,38.89122357269141,1.4590667369936903,0.6109019113254276,Right,Incorrect,0.0,0.0,-45,45,781,-1,-1
"{'cat': 'II', 'resp': 'button'}",3,162,Right,80.77514383533827,49.83428296326031,4.038757191766914,0.7827950862714679,Right,Correct,0.0,0.0,-45,45,620,-1,-1
"{'cat': 'II', 'resp': 'button'}",3,163,Right,58.04966203721318,27.081790721332467,2.902483101860659,0.4253997738809715,Right,Correct,0.0,0.0,-45,45,711,-1,-1
"{'cat': 'II', 'resp': 'button'}",3,164,Left,25.519055315521847,45.533798109591615,1.2759527657760925,0.7152432281556693,Left,Correct,0.0,0.0,-45,45,633,-1,-1
"{'cat': 'II', 'resp': 'button'}",3,165,Right,52.98207273105349,25.634938723057356,2.649103636552675,0.40267267583790756,Right,Correct,0.0,0.0,-45,45,703,-1,-1
"{'cat': 'II', 'resp': 'button'}",3,166,Right,59.54617483263016,52.62012597807383,2.977308741631508,0.826555006018431,Left,Incorrect,0.0,0.0,-45,45,860,-1,-1
"{'cat': 'II', 'resp': 'button'}",3,167,Right,78.97218174514971,60.691024301121715,3.948609087257486,0.9533323804162179,Right,Correct,0.0,0.0,-45,45,540,-1,-1
"{'cat': 'II', 'resp': 'button'}",3,168,Left,64.98609841722775,77.13805823054497,3.2493049208613876,1.2116817852463089,Right,Incorrect,0.0,0.0,-45,45,545,-1,-1
"{'cat': 'II', 'resp': 'button'}",3,169,Right,33.40425553846117,15.17231840521412,1.6702127769230586,0.2383262201987294,Left,Incorrect,0.0,0.0,-45,45,748,-1,-1
"{'cat': 'II', 'resp': 'button'}",3,170,Left,67.41840418730565,85.13051898334052,3.370920209365283,1.3372270651717448,Left,Correct,0.0,0.0,-45,45,1372,-1,-1
"{'cat': 'II', 'resp': 'button'}",3,171,Right,57.42927575303709,29.575138310353935,2.8714637876518543,0.46456518622354986,Right,Correct,0.0,0.0,-45,45,565,-1,-1
"{'cat': 'II', 'resp': 'button'}",3,172,Left,41.15374580154799,57.50334539634834,2.0576872900773995,0.9032604372700218,Left,Correct,0.0,0.0,-45,45,875,-1,-1
"{'cat': 'II', 'resp': 'button'}",3,173,Left,38.90824305053186,58.07559564395466,1.945412152526593,0.9122493231394966,Left,Correct,0.0,0.0,-45,45,682,-1,-1
"{'cat': 'II', 'resp': 'button'}",3,174,Right,62.159019811344386,37.257068376593146,3.1079509905672196,0.5852326615309882,Right,Correct,0.0,0.0,-45,45,538,-1,-1
"{'cat': 'II', 'resp': 'button'}",3,175,Left,45.63890955074753,61.092730318299694,2.2819454775373766,0.9596423637785637,Left,Correct,0.0,0.0,-45,45,567,-1,-1
"{'cat': 'II', 'resp': 'button'}",3,176,Right,30.675720126133044,12.772925400514382,1.5337860063066524,0.20063664301553222,Left,Incorrect,0.0,0.0,-45,45,921,-1,-1
"{'cat': 'II', 'resp': 'button'}",3,177,Left,39.55000896367833,63.50144408583122,1.9775004481839165,0.9974783511619519,Left,Correct,0.0,0.0,-45,45,772,-1,-1
"{'cat': 'II', 'resp': 'button'}",3,178,Left,57.230979762953524,80.66332839540088,2.8615489881476766,1.267056599505462,Left,Correct,0.0,0.0,-45,45,479,-1,-1
"{'cat': 'II', 'resp': 'button'}",3,179,Right,63.81157281269499,37.52767924656425,3.190578640634749,0.5894834071364019,Right,Correct,0.0,0.0,-45,45,466,-1,-1
"{'cat': 'II', 'resp': 'button'}",3,180,Left,21.806916806918245,49.637466086617174,1.0903458403459123,0.7797034940026452,Left,Correct,0.0,0.0,-45,45,1134,-1,-1
"{'cat': 'II', 'resp': 'button'}",3,181,Right,58.98855719049776,39.20122505750023,2.949427859524888,0.6157714032618142,Right,Correct,0.0,0.0,-45,45,2138,-1,-1
"{'cat': 'II', 'resp': 'button'}",3,182,Right,48.1029095678918,23.536696302138296,2.40514547839459,0.36971356096285857,Right,Correct,0.0,0.0,-45,45,690,-1,-1
"{'cat': 'II', 'resp': 'button'}",3,183,Right,64.62957605966591,56.866477540803736,3.2314788029832955,0.8932565403885898,Left,Incorrect,0.0,0.0,-45,45,809,-1,-1
"{'cat': 'II', 'resp': 'button'}",3,184,Right,75.38170616985956,58.1510905299546,3.769085308492978,0.9134351940357018,Right,Correct,0.0,0.0,-45,45,883,-1,-1
"{'cat': 'II', 'resp': 'button'}",3,185,Left,25.04034118951105,48.36964415995709,1.2520170594755526,0.7597885937483682,Left,Correct,0.0,0.0,-45,45,759,-1,-1
"{'cat': 'II', 'resp': 'button'}",3,186,Left,60.224761665280866,81.01026570189467,3.0112380832640433,1.2725062779721472,Right,Incorrect,0.0,0.0,-45,45,671,-1,-1
"{'cat': 'II', 'resp': 'button'}",3,187,Right,62.46207644378885,38.92838358882103,3.1231038221894427,0.6114856194938281,Right,Correct,0.0,0.0,-45,45,711,-1,-1
"{'cat': 'II', 'resp': 'button'}",3,188,Left,35.74371954654048,45.68008853744332,1.7871859773270242,0.7175411528228163,Left,Correct,0.0,0.0,-45,45,679,-1,-1
"{'cat': 'II', 'resp': 'button'}",3,189,Right,60.78844434945666,52.58606155737148,3.039422217472833,0.8260199233492944,Left,Incorrect,0.0,0.0,-45,45,584,-1,-1
"{'cat': 'II', 'resp': 'button'}",3,190,Right,54.0073150991613,36.05783385989264,2.700365754958065,0.566395129793,Right,Correct,0.0,0.0,-45,45,503,-1,-1
"{'cat': 'II', 'resp': 'button'}",3,191,Right,60.94484834427038,33.85935386521402,3.047242417213519,0.5318614867912677,Right,Correct,0.0,0.0,-45,45,586,-1,-1
"{'cat': 'II', 'resp': 'button'}",3,192,Left,38.171175153743796,48.44224213581789,1.9085587576871899,0.7609289600865171,Left,Correct,0.0,0.0,-45,45,911,-1,-1
"{'cat': 'II', 'resp': 'button'}",3,193,Right,71.20594219447977,52.21720048505226,3.560297109723989,0.8202258671743279,Right,Correct,0.0,0.0,-45,45,718,-1,-1
"{'cat': 'II', 'resp': 'button'}",3,194,Right,71.34317566112996,47.35311710426035,3.5671587830564984,0.7438210240966074,Right,Correct,0.0,0.0,-45,45,703,-1,-1
"{'cat': 'II', 'resp': 'button'}",3,195,Right,87.55515606193124,69.42705956029596,4.3777578030965625,1.090557701374834,Right,Correct,0.0,0.0,-45,45,611,-1,-1
"{'cat': 'II', 'resp': 'button'}",3,196,Left,20.844908592815937,39.00010508299884,1.0422454296407968,0.6126122180898955,Left,Correct,0.0,0.0,-45,45,673,-1,-1
"{'cat': 'II', 'resp': 'button'}",3,197,Right,58.37835944662472,33.13795530801643,2.918917972331236,0.5205297847532565,Right,Correct,0.0,0.0,-45,45,565,-1,-1
"{'cat': 'II', 'resp': 'button'}",3,198,Left,21.068206919733342,36.829612046586995,1.053410345986667,0.5785181932005992,Left,Correct,0.0,0.0,-45,45,661,-1,-1
"{'cat': 'II', 'resp': 'button'}",3,199,Left,36.63595704047729,44.412452845457985,1.8317978520238642,0.6976291779359696,Left,Correct,0.0,0.0,-45,45,1284,-1,-1
"{'cat': 'II', 'resp': 'button'}",3,200,Right,60.443688690180984,38.963749840743745,3.0221844345090494,0.6120411512799552,Right,Correct,0.0,0.0,-45,45,631,-1,-1
"{'cat': 'II', 'resp': 'button'}",3,201,Left,60.10989881900785,69.26628013004365,3.005494940950393,1.088032183990189,Right,Incorrect,0.0,0.0,-45,45,637,-1,-1
"{'cat': 'II', 'resp': 'button'}",3,202,Left,54.16205141215665,69.76108637687385,2.7081025706078328,1.0958045823401492,Left,Correct,0.0,0.0,-45,45,1331,-1,-1
"{'cat': 'II', 'resp': 'button'}",3,203,Left,30.950108889747856,50.05008583306729,1.5475054444873928,0.7861849098235139,Left,Correct,0.0,0.0,-45,45,877,-1,-1
"{'cat': 'II', 'resp': 'button'}",3,204,Right,75.89683332912243,55.573180321384335,3.7948416664561218,0.8729414751714093,Right,Correct,0.0,0.0,-45,45,620,-1,-1
"{'cat': 'II', 'resp': 'button'}",3,205,Right,81.63228198132737,57.68986634737273,4.0816140990663685,0.9061903015174159,Right,Correct,0.0,0.0,-45,45,560,-1,-1
"{'cat': 'II', 'resp': 'button'}",3,206,Right,50.277470441103446,38.424590228734615,2.5138735220551722,0.6035720518989541,Right,Correct,0.0,0.0,-45,45,1331,-1,-1
"{'cat': 'II', 'resp': 'button'}",3,207,Left,67.40383713978323,86.01803288980942,3.370191856989162,1.3511681010143521,Right,Incorrect,0.0,0.0,-45,45,462,-1,-1
"{'cat': 'II', 'resp': 'button'}",3,208,Left,36.687421403966255,63.47715016290877,1.8343710701983127,0.9970967431130517,Left,Correct,0.0,0.0,-45,45,787,-1,-1
"{'cat': 'II', 'resp': 'button'}",3,209,Left,30.90070074462185,64.09214719448242,1.5450350372310924,1.0067570938949082,Left,Correct,0.0,0.0,-45,45,751,-1,-1
"{'cat': 'II', 'resp': 'button'}",3,210,Right,67.48765954597044,37.84898890930633,3.3743829772985223,0.5945305275163916,Right,Correct,0.0,0.0,-45,45,1480,-1,-1
"{'cat': 'II', 'resp': 'button'}",3,211,Right,56.9376666681918,27.808479856384693,2.8468833334095898,0.43681458012158947,Right,Correct,0.0,0.0,-45,45,1012,-1,-1
"{'cat': 'II', 'resp': 'button'}",3,212,Right,71.84797158207454,53.66685293922764,3.592398579103727,0.8429969546758067,Right,Correct,0.0,0.0,-45,45,1340,-1,-1
"{'cat': 'II', 'resp': 'button'}",3,213,Left,57.41379556947825,81.95314389323214,2.8706897784739125,1.2873169739678265,Right,Incorrect,0.0,0.0,-45,45,428,-1,-1
"{'cat': 'II', 'resp': 'button'}",3,214,Right,72.11928372196232,58.75944083513954,3.605964186098116,0.9229911382835924,Right,Correct,0.0,0.0,-45,45,602,-1,-1
"{'cat': 'II', 'resp': 'button'}",3,215,Right,35.93073481635986,17.823542561835925,1.7965367408179929,0.2799715518660437,Left,Incorrect,0.0,0.0,-45,45,1201,-1,-1
"{'cat': 'II', 'resp': 'button'}",3,216,Left,48.463672598669675,66.78320921903196,2.423183629933484,1.0490281973283049,Right,Incorrect,0.0,0.0,-45,45,665,-1,-1
"{'cat': 'II', 'resp': 'button'}",3,217,Right,82.17812876847931,57.850920495826074,4.108906438423966,0.9087201341654719,Right,Correct,0.0,0.0,-45,45,760,-1,-1
"{'cat': 'II', 'resp': 'button'}",3,218,Right,72.09183274519165,45.31211344419118,3.6045916372595825,0.7117610135744916,Right,Correct,0.0,0.0,-45,45,583,-1,-1
"{'cat': 'II', 'resp': 'button'}",3,219,Right,53.218148696052644,23.116604665723848,2.660907434802632,0.36311477696888794,Right,Correct,0.0,0.0,-45,45,759,-1,-1
"{'cat': 'II', 'resp': 'button'}",3,220,Left,35.15757724813139,47.50721968067236,1.7578788624065695,0.7462416617063836,Left,Correct,0.0,0.0,-45,45,802,-1,-1
"{'cat': 'II', 'resp': 'button'}",3,221,Left,18.51371239095629,35.83307496214704,0.9256856195478145,0.5628646252830674,Left,Correct,0.0,0.0,-45,45,703,-1,-1
"{'cat': 'II', 'resp': 'button'}",3,222,Left,28.76815748379522,40.69752591702641,1.438407874189761,0.6392752422010519,Left,Correct,0.0,0.0,-45,45,819,-1,-1
"{'cat': 'II', 'resp': 'button'}",3,223,Right,84.23120093893745,58.98286535629687,4.211560046946873,0.9265006824550908,Right,Correct,0.0,0.0,-45,45,834,-1,-1
"{'cat': 'II', 'resp': 'button'}",3,224,Left,52.30095652348549,68.11977965907651,2.6150478261742744,1.070022996705551,Right,Incorrect,0.0,0.0,-45,45,788,-1,-1
"{'cat': 'II', 'resp': 'button'}",3,225,Left,26.772881953148964,53.21560863582754,1.3386440976574483,0.8359088257331267,Left,Correct,0.0,0.0,-45,45,650,-1,-1
"{'cat': 'II', 'resp': 'button'}",3,226,Right,74.28943531526164,56.36319335537419,3.714471765763082,0.8853509708905231,Right,Correct,0.0,0.0,-45,45,548,-1,-1
"{'cat': 'II', 'resp': 'button'}",3,227,Right,76.59821318439424,45.844557870042536,3.829910659219712,0.7201246310579889,Right,Correct,0.0,0.0,-45,45,603,-1,-1
"{'cat': 'II', 'resp': 'button'}",3,228,Right,50.759808583657104,34.755108387025814,2.5379904291828552,0.5459319659169866,Right,Correct,0.0,0.0,-45,45,685,-1,-1
"{'cat': 'II', 'resp': 'button'}",3,229,Left,33.78426323935914,55.142318186025136,1.6892131619679571,0.866173508575637,Left,Correct,0.0,0.0,-45,45,970,-1,-1
"{'cat': 'II', 'resp': 'button'}",3,230,Left,19.45672150057803,40.0035810321137,0.9728360750289015,0.628374781438862,Left,Correct,0.0,0.0,-45,45,669,-1,-1
"{'cat': 'II', 'resp': 'button'}",3,231,Left,20.6333495557638,39.337674946166075,1.03166747778819,0.6179147531008929,Left,Correct,0.0,0.0,-45,45,572,-1,-1
"{'cat': 'II', 'resp': 'button'}",3,232,Left,36.154106095090086,55.93922583348704,1.8077053047545042,0.8786913046299164,Right,Incorrect,0.0,0.0,-45,45,913,-1,-1
"{'cat': 'II', 'resp': 'button'}",3,233,Right,48.95834313486686,39.51625022207148,2.4479171567433426,0.6207198069753789,Right,Correct,0.0,0.0,-45,45,619,-1,-1
"{'cat': 'II', 'resp': 'button'}",3,234,Right,59.89743163806618,29.426030085929742,2.994871581903309,0.4622229997113456,Right,Correct,0.0,0.0,-45,45,793,-1,-1
"{'cat': 'II', 'resp': 'button'}",3,235,Left,37.113824022729325,65.68107137640794,1.8556912011364661,1.03171585658015,Left,Correct,0.0,0.0,-45,45,1203,-1,-1
"{'cat': 'II', 'resp': 'button'}",3,236,Right,37.23858837196546,14.274581407100644,1.8619294185982733,0.22422460040808415,Right,Correct,0.0,0.0,-45,45,667,-1,-1
"{'cat': 'II', 'resp': 'button'}",3,237,Left,28.726675925772135,57.52533771880277,1.4363337962886067,0.903605891863313,Left,Correct,0.0,0.0,-45,45,741,-1,-1
"{'cat': 'II', 'resp': 'button'}",3,238,Left,12.961212339259639,38.48520004600985,0.648060616962982,0.6045241086823906,Left,Correct,0.0,0.0,-45,45,720,-1,-1
"{'cat': 'II', 'resp': 'button'}",3,239,Left,13.775512534139256,32.680065734368654,0.6887756267069628,0.5133372721496205,Left,Correct,0.0,0.0,-45,45,540,-1,-1
"{'cat': 'II', 'resp': 'button'}",3,240,Left,20.601862985817725,43.24903422053357,1.0300931492908862,0.679354240910409,Left,Correct,0.0,0.0,-45,45,484,-1,-1
"{'cat': 'II', 'resp': 'button'}",3,241,Left,30.704935521459504,52.7815803366627,1.535246776072975,0.8290911251525952,Left,Correct,0.0,0.0,-45,45,970,-1,-1
"{'cat': 'II', 'resp': 'button'}",3,242,Right,57.89471324894157,39.966001371909236,2.8947356624470784,0.6277844815167483,Right,Correct,0.0,0.0,-45,45,631,-1,-1
"{'cat': 'II', 'resp': 'button'}",3,243,Right,35.48827402804562,20.341529585361737,1.7744137014022812,0.3195239995407594,Right,Correct,0.0,0.0,-45,45,731,-1,-1
"{'cat': 'II', 'resp': 'button'}",3,244,Right,32.9868514846041,15.235583194106361,1.649342574230205,0.2393199811788033,Right,Correct,0.0,0.0,-45,45,666,-1,-1
"{'cat': 'II', 'resp': 'button'}",3,245,Right,63.57497216867821,35.65039545802308,3.1787486084339105,0.5599951023424812,Right,Correct,0.0,0.0,-45,45,747,-1,-1
"{'cat': 'II', 'resp': 'button'}",3,246,Right,41.070503269282355,24.365516233970368,2.053525163464118,0.38273263400782076,Right,Correct,0.0,0.0,-45,45,665,-1,-1
"{'cat': 'II', 'resp': 'button'}",3,247,Right,41.3175258202141,24.892489808820013,2.0658762910107047,0.39101031556473875,Right,Correct,0.0,0.0,-45,45,569,-1,-1
"{'cat': 'II', 'resp': 'button'}",3,248,Right,76.26955029904093,45.13410327972239,3.8134775149520466,0.7089648364496942,Right,Correct,0.0,0.0,-45,45,679,-1,-1
"{'cat': 'II', 'resp': 'button'}",3,249,Right,61.437613821811595,39.10424365791482,3.07188069109058,0.6142480229994522,Right,Correct,0.0,0.0,-45,45,585,-1,-1
"{'cat': 'II', 'resp': 'button'}",3,250,Left,44.33720777426769,55.36740306522568,2.216860388713384,0.86970913359029,Right,Incorrect,0.0,0.0,-45,45,688,-1,-1
"{'cat': 'II', 'resp': 'button'}",3,251,Left,67.33443080278238,89.29264840301275,3.366721540139119,1.4026056412124062,Right,Incorrect,0.0,0.0,-45,45,630,-1,-1
"{'cat': 'II', 'resp': 'button'}",3,252,Left,53.529106792983015,75.16316400066177,2.676455339649151,1.1806602192252191,Left,Correct,0.0,0.0,-45,45,549,-1,-1
"{'cat': 'II', 'resp': 'button'}",3,253,Right,32.92034947384063,11.78167083503163,1.6460174736920317,0.18506605271174245,Right,Correct,0.0,0.0,-45,45,732,-1,-1
"{'cat': 'II', 'resp': 'button'}",3,254,Left,51.23927621343854,67.19838611645385,2.561963810671927,1.0555497807827088,Left,Correct,0.0,0.0,-45,45,511,-1,-1
"{'cat': 'II', 'resp': 'button'}",3,255,Right,64.09239776656887,46.699272812230156,3.2046198883284434,0.7335504619744391,Left,Incorrect,0.0,0.0,-45,45,615,-1,-1
"{'cat': 'II', 'resp': 'button'}",3,256,Left,41.810763704047154,65.41136543481944,2.090538185202358,1.0274793255565307,Left,Correct,0.0,0.0,-45,45,723,-1,-1
"{'cat': 'II', 'resp': 'button'}",3,257,Right,63.685935381118625,39.84607066529466,3.184296769055931,0.6259006143825474,Right,Correct,0.0,0.0,-45,45,848,-1,-1
"{'cat': 'II', 'resp': 'button'}",3,258,Right,53.49347349624002,39.08860790316138,2.674673674812001,0.6140024171381187,Right,Correct,0.0,0.0,-45,45,510,-1,-1
"{'cat': 'II', 'resp': 'button'}",3,259,Left,59.3112412009811,68.1288528440444,2.965562060049055,1.07016551796175,Left,Correct,0.0,0.0,-45,45,1509,-1,-1
"{'cat': 'II', 'resp': 'button'}",3,260,Left,24.915499382669672,53.20070708012738,1.2457749691334836,0.8356747526435535,Left,Correct,0.0,0.0,-45,45,819,-1,-1
"{'cat': 'II', 'resp': 'button'}",3,261,Right,71.78853717522273,59.27844135479562,3.589426858761136,0.9311435793823966,Left,Incorrect,0.0,0.0,-45,45,1796,-1,-1
"{'cat': 'II', 'resp': 'button'}",3,262,Left,64.0502305529866,78.38539889679508,3.20251152764933,1.2312749666143845,Left,Correct,0.0,0.0,-45,45,944,-1,-1
"{'cat': 'II', 'resp': 'button'}",3,263,Left,32.45274238503105,43.81196251078883,1.6226371192515527,0.6881966978162282,Left,Correct,0.0,0.0,-45,45,675,-1,-1
"{'cat': 'II', 'resp': 'button'}",3,264,Right,36.122160095940416,13.608133628018155,1.8061080047970208,0.21375606317425028,Right,Correct,0.0,0.0,-45,45,605,-1,-1
"{'cat': 'II', 'resp': 'button'}",3,265,Right,38.392346078517896,20.069855840476244,1.9196173039258948,0.3152565583352318,Right,Correct,0.0,0.0,-45,45,551,-1,-1
"{'cat': 'II', 'resp': 'button'}",3,266,Left,24.137165707570894,36.211866424980755,1.2068582853785446,0.5688146676674722,Right,Incorrect,0.0,0.0,-45,45,807,-1,-1
"{'cat': 'II', 'resp': 'button'}",3,267,Left,29.677810228249786,42.11385045699197,1.4838905114124892,0.6615228160503256,Left,Correct,0.0,0.0,-45,45,564,-1,-1
"{'cat': 'II', 'resp': 'button'}",3,268,Right,42.64348322915254,19.20137314155928,2.132174161457627,0.30161446400179504,Right,Correct,0.0,0.0,-45,45,840,-1,-1
"{'cat': 'II', 'resp': 'button'}",3,269,Left,30.65215223870289,41.71004004593327,1.5326076119351444,0.6551797769462002,Left,Correct,0.0,0.0,-45,45,630,-1,-1
"{'cat': 'II', 'resp': 'button'}",3,270,Right,35.616519158491435,15.084175978936067,1.7808259579245718,0.23694168220440587,Right,Correct,0.0,0.0,-45,45,559,-1,-1
"{'cat': 'II', 'resp': 'button'}",3,271,Right,74.93683816444457,55.31233327686229,3.7468419082222284,0.8688440993775042,Right,Correct,0.0,0.0,-45,45,743,-1,-1
"{'cat': 'II', 'resp': 'button'}",3,272,Left,54.310421249759386,70.74072414265429,2.7155210624879693,1.1111926963809242,Left,Correct,0.0,0.0,-45,45,1018,-1,-1
"{'cat': 'II', 'resp': 'button'}",3,273,Right,55.014659794351225,29.86679384232664,2.750732989717561,0.4691465006066713,Right,Correct,0.0,0.0,-45,45,570,-1,-1
"{'cat': 'II', 'resp': 'button'}",3,274,Left,58.696726121976226,83.22578749515515,2.934836306098811,1.3073076129200234,Left,Correct,0.0,0.0,-45,45,653,-1,-1
"{'cat': 'II', 'resp': 'button'}",3,275,Right,55.18132779614641,36.84831474730563,2.7590663898073204,0.578811974536499,Right,Correct,0.0,0.0,-45,45,2507,-1,-1
"{'cat': 'II', 'resp': 'button'}",3,276,Right,55.93232443726261,30.992012790483052,2.7966162218631303,0.48682139851271233,Right,Correct,0.0,0.0,-45,45,623,-1,-1
"{'cat': 'II', 'resp': 'button'}",3,277,Left,37.839109298725,53.81731471103542,1.8919554649362498,0.845360402660594,Left,Correct,0.0,0.0,-45,45,749,-1,-1
"{'cat': 'II', 'resp': 'button'}",3,278,Right,69.17240291232207,49.51075645881689,3.4586201456161034,0.7777131438234629,Right,Correct,0.0,0.0,-45,45,773,-1,-1
"{'cat': 'II', 'resp': 'button'}",3,279,Left,33.06525223628181,65.38975058429713,1.6532626118140905,1.0271398002784837,Left,Correct,0.0,0.0,-45,45,681,-1,-1
"{'cat': 'II', 'resp': 'button'}",3,280,Right,58.792190535677534,28.86878940417581,2.939609526783877,0.453469883550948,Right,Correct,0.0,0.0,-45,45,777,-1,-1
"{'cat': 'II', 'resp': 'button'}",3,281,Left,44.4010964134839,76.46926040491492,2.220054820674195,1.2011763335676278,Left,Correct,0.0,0.0,-45,45,848,-1,-1
"{'cat': 'II', 'resp': 'button'}",3,282,Right,87.7971758135745,60.83022348633489,4.3898587906787245,0.9555189161044748,Right,Correct,0.0,0.0,-45,45,722,-1,-1
"{'cat': 'II', 'resp': 'button'}",3,283,Right,76.34461857678284,48.59428978827946,3.817230928839142,0.7633173190263614,Right,Correct,0.0,0.0,-45,45,667,-1,-1
"{'cat': 'II', 'resp': 'button'}",3,284,Left,55.633475479308686,71.13891709136789,2.7816737739654345,1.1174474965928736,Left,Correct,0.0,0.0,-45,45,837,-1,-1
"{'cat': 'II', 'resp': 'button'}",3,285,Left,43.58733858194956,57.66292123435614,2.179366929097478,0.9057670486719007,Left,Correct,0.0,0.0,-45,45,668,-1,-1
"{'cat': 'II', 'resp': 'button'}",3,286,Left,30.88072340799632,43.592303726942745,1.5440361703998162,0.6847463057080916,Right,Incorrect,0.0,0.0,-45,45,987,-1,-1
"{'cat': 'II', 'resp': 'button'}",3,287,Left,50.0554985344727,69.29999187495531,2.5027749267236348,1.0885617268409598,Right,Incorrect,0.0,0.0,-45,45,678,-1,-1
"{'cat': 'II', 'resp': 'button'}",3,288,Left,34.92123365297115,48.60807087545275,1.7460616826485573,0.7635337918374718,Left,Correct,0.0,0.0,-45,45,1147,-1,-1
"{'cat': 'II', 'resp': 'button'}",3,289,Left,29.73187991117412,47.3735501048494,1.486593995558706,0.7441419849193142,Left,Correct,0.0,0.0,-45,45,628,-1,-1
"{'cat': 'II', 'resp': 'button'}",3,290,Left,27.778830238537587,51.45358378018503,1.3889415119268793,0.8082310040234811,Left,Correct,0.0,0.0,-45,45,530,-1,-1
"{'cat': 'II', 'resp': 'button'}",3,291,Right,52.61145021857074,22.949728621006127,2.6305725109285367,0.36049349418816123,Right,Correct,0.0,0.0,-45,45,636,-1,-1
"{'cat': 'II', 'resp': 'button'}",3,292,Left,35.52018381194937,48.42114740269962,1.7760091905974686,0.760597604793548,Left,Correct,0.0,0.0,-45,45,563,-1,-1
"{'cat': 'II', 'resp': 'button'}",3,293,Right,86.49522405691997,59.631707346398585,4.324761202845998,0.9366926686023114,Right,Correct,0.0,0.0,-45,45,668,-1,-1
"{'cat': 'II', 'resp': 'button'}",3,294,Right,83.02248610723983,54.883932137102796,4.151124305361992,0.8621147900102144,Right,Correct,0.0,0.0,-45,45,599,-1,-1
"{'cat': 'II', 'resp': 'button'}",3,295,Left,36.28406531951712,47.9403014821351,1.8142032659758558,0.7530444947357774,Left,Correct,0.0,0.0,-45,45,695,-1,-1
"{'cat': 'II', 'resp': 'button'}",3,296,Left,43.454766972529285,52.18736942836357,2.1727383486264644,0.8197572820316178,Left,Correct,0.0,0.0,-45,45,512,-1,-1
"{'cat': 'II', 'resp': 'button'}",3,297,Left,24.54944435723214,40.84675917149414,1.227472217861607,0.6416193926805875,Left,Correct,0.0,0.0,-45,45,783,-1,-1
"{'cat': 'II', 'resp': 'button'}",3,298,Left,35.37197523463213,62.22088305786045,1.7685987617316068,0.97736334557222,Left,Correct,0.0,0.0,-45,45,955,-1,-1
"{'cat': 'II', 'resp': 'button'}",3,299,Right,64.98956514750462,41.65950705818424,3.2494782573752308,0.6543860066308187,Right,Correct,0.0,0.0,-45,45,577,-1,-1
"{'cat': 'II', 'resp': 'button'}",3,300,Right,43.8298106378453,27.158622541447155,2.191490531892265,0.4266066452891427,Right,Correct,0.0,0.0,-45,45,1208,-1,-1
"{'cat': 'II', 'resp': 'button'}",3,301,Right,82.30111800271239,65.22027656539456,4.115055900135619,1.0244777086146906,Right,Correct,0.0,0.0,-45,45,697,-1,-1
"{'cat': 'II', 'resp': 'button'}",3,302,Right,68.96888198150454,55.697107954499394,3.4484440990752265,0.8748881258802645,Right,Correct,0.0,0.0,-45,45,582,-1,-1
"{'cat': 'II', 'resp': 'button'}",3,303,Left,61.65638366803737,70.73963886946699,3.0828191834018686,1.1111756489495623,Right,Incorrect,0.0,0.0,-45,45,825,-1,-1
"{'cat': 'II', 'resp': 'button'}",3,304,Left,36.61601028741041,67.92967216737259,1.8308005143705204,1.067036795208904,Left,Correct,0.0,0.0,-45,45,672,-1,-1
"{'cat': 'II', 'resp': 'button'}",3,305,Left,59.45400528964498,81.93973618740611,2.9727002644822496,1.2871063662172038,Left,Correct,0.0,0.0,-45,45,695,-1,-1
"{'cat': 'II', 'resp': 'button'}",3,306,Left,28.915306702773893,51.68612150312161,1.4457653351386945,0.8118836980337815,Left,Correct,0.0,0.0,-45,45,680,-1,-1
"{'cat': 'II', 'resp': 'button'}",3,307,Right,50.462213445382794,26.401932773059862,2.5231106722691394,0.4147205902020823,Right,Correct,0.0,0.0,-45,45,874,-1,-1
"{'cat': 'II', 'resp': 'button'}",3,308,Left,35.782250640187456,52.83607849509319,1.7891125320093726,0.8299471802233921,Left,Correct,0.0,0.0,-45,45,1521,-1,-1
"{'cat': 'II', 'resp': 'button'}",3,309,Left,27.310105178465065,58.695454868596585,1.365505258923253,0.9219860490714715,Left,Correct,0.0,0.0,-45,45,605,-1,-1
"{'cat': 'II', 'resp': 'button'}",3,310,Right,65.0317710636504,34.85744588884683,3.25158855318252,0.5475394796365247,Right,Correct,0.0,0.0,-45,45,633,-1,-1
"{'cat': 'II', 'resp': 'button'}",3,311,Right,80.09483165410502,65.96878990293743,4.004741582705251,1.036235328626384,Right,Correct,0.0,0.0,-45,45,736,-1,-1
"{'cat': 'II', 'resp': 'button'}",3,312,Right,88.88616987699804,68.38305997484991,4.444308493849902,1.0741585942348937,Right,Correct,0.0,0.0,-45,45,607,-1,-1
"{'cat': 'II', 'resp': 'button'}",3,313,Left,28.074373318292544,41.46479801387526,1.4037186659146272,0.6513275241148757,Left,Correct,0.0,0.0,-45,45,616,-1,-1
"{'cat': 'II', 'resp': 'button'}",3,314,Right,64.60370428620304,42.628691130952916,3.230185214310152,0.6696099144457502,Right,Correct,0.0,0.0,-45,45,738,-1,-1
"{'cat': 'II', 'resp': 'button'}",3,315,Right,87.85827376085858,63.6000729369222,4.392913688042929,0.9990276095320489,Right,Correct,0.0,0.0,-45,45,821,-1,-1
"{'cat': 'II', 'resp': 'button'}",3,316,Left,13.468956970416553,34.99922844983786,0.6734478485208277,0.5497665948966075,Left,Correct,0.0,0.0,-45,45,588,-1,-1
"{'cat': 'II', 'resp': 'button'}",3,317,Right,71.56921684875563,53.039965636326,3.5784608424377815,0.8331498319486843,Right,Correct,0.0,0.0,-45,45,748,-1,-1
"{'cat': 'II', 'resp': 'button'}",3,318,Left,31.46213086408611,43.612309681909394,1.5731065432043057,0.6850605585138478,Left,Correct,0.0,0.0,-45,45,771,-1,-1
"{'cat': 'II', 'resp': 'button'}",3,319,Right,56.262585258538515,47.46106319739883,2.8131292629269256,0.7455166373625451,Right,Correct,0.0,0.0,-45,45,675,-1,-1
"{'cat': 'II', 'resp': 'button'}",3,320,Left,48.3136132434811,57.56790992205398,2.4156806621740547,0.9042746144682187,Right,Incorrect,0.0,0.0,-45,45,504,-1,-1
"{'cat': 'II', 'resp': 'button'}",3,321,Left,34.35809486760795,54.797414582818725,1.7179047433803976,0.8607557754454875,Left,Correct,0.0,0.0,-45,45,486,-1,-1
"{'cat': 'II', 'resp': 'button'}",3,322,Left,51.21876446956923,71.72015683081027,2.5609382234784612,1.1265775890699068,Left,Correct,0.0,0.0,-45,45,664,-1,-1
"{'cat': 'II', 'resp': 'button'}",3,323,Left,50.48240221060365,80.70783519854379,2.5241201105301827,1.2677557107344046,Left,Correct,0.0,0.0,-45,45,485,-1,-1
"{'cat': 'II', 'resp': 'button'}",3,324,Right,34.66487480083249,13.484013082401429,1.7332437400416245,0.21180638220290496,Right,Correct,0.0,0.0,-45,45,550,-1,-1
"{'cat': 'II', 'resp': 'button'}",3,325,Right,43.289056781337095,27.749012625296984,2.1644528390668545,0.4358804710400171,Right,Correct,0.0,0.0,-45,45,558,-1,-1
"{'cat': 'II', 'resp': 'button'}",3,326,Left,69.03391816014522,89.41899185134275,3.451695908007261,1.4045902394579197,Left,Correct,0.0,0.0,-45,45,547,-1,-1
"{'cat': 'II', 'resp': 'button'}",3,327,Right,40.07561103226753,21.036017132159582,2.0037805516133766,0.33043298441590785,Right,Correct,0.0,0.0,-45,45,584,-1,-1
"{'cat': 'II', 'resp': 'button'}",3,328,Right,46.41918557314382,19.09851583652527,2.320959278657191,0.2999987852324806,Right,Correct,0.0,0.0,-45,45,561,-1,-1
"{'cat': 'II', 'resp': 'button'}",3,329,Left,33.59646490739478,56.319691475284095,1.6798232453697393,0.884667644955981,Right,Incorrect,0.0,0.0,-45,45,1076,-1,-1
"{'cat': 'II', 'resp': 'button'}",3,330,Right,63.59097518274682,35.87724261840171,3.179548759137341,0.5635584092051472,Right,Correct,0.0,0.0,-45,45,607,-1,-1
"{'cat': 'II', 'resp': 'button'}",3,331,Right,83.51702692411183,68.44815190873967,4.175851346205592,1.0751810559414736,Left,Incorrect,0.0,0.0,-45,45,833,-1,-1
"{'cat': 'II', 'resp': 'button'}",3,332,Left,64.83232149554428,80.28646244918518,3.2416160747772143,1.2611368030653647,Left,Correct,0.0,0.0,-45,45,613,-1,-1
"{'cat': 'II', 'resp': 'button'}",3,333,Right,40.94169298953482,29.84779154267723,2.047084649476741,0.46884801318177166,Right,Correct,0.0,0.0,-45,45,1126,-1,-1
"{'cat': 'II', 'resp': 'button'}",3,334,Left,49.64596461874063,72.74627372349116,2.4822982309370314,1.14269579552876,Left,Correct,0.0,0.0,-45,45,663,-1,-1
"{'cat': 'II', 'resp': 'button'}",3,335,Left,17.956132975736335,37.12896919984925,0.8978066487868168,0.5832204843680405,Left,Correct,0.0,0.0,-45,45,690,-1,-1
"{'cat': 'II', 'resp': 'button'}",3,336,Right,68.25048878164367,46.56660401473156,3.412524439082183,0.731466505376528,Right,Correct,0.0,0.0,-45,45,532,-1,-1
"{'cat': 'II', 'resp': 'button'}",3,337,Right,66.48725816972144,54.7831864676602,3.324362908486072,0.8605322807352053,Right,Correct,0.0,0.0,-45,45,662,-1,-1
"{'cat': 'II', 'resp': 'button'}",3,338,Left,56.13798655800323,85.0195647814612,2.8068993279001613,1.3354842006442003,Right,Incorrect,0.0,0.0,-45,45,453,-1,-1
"{'cat': 'II', 'resp': 'button'}",3,339,Right,40.076653060326194,13.1378277263459,2.0038326530163095,0.20636851534608291,Right,Correct,0.0,0.0,-45,45,703,-1,-1
"{'cat': 'II', 'resp': 'button'}",3,340,Left,27.12916706980233,50.18612958854903,1.3564583534901167,0.7883218801374549,Left,Correct,0.0,0.0,-45,45,571,-1,-1
"{'cat': 'II', 'resp': 'button'}",3,341,Left,23.18858966881543,35.22117943203541,1.1594294834407715,0.5532529927722519,Left,Correct,0.0,0.0,-45,45,798,-1,-1
"{'cat': 'II', 'resp': 'button'}",3,342,Left,60.48568703579695,81.3129828429926,3.0242843517898472,1.2772613477050923,Left,Correct,0.0,0.0,-45,45,830,-1,-1
"{'cat': 'II', 'resp': 'button'}",3,343,Left,33.14879972611224,55.83512251852371,1.6574399863056117,0.8770560535824007,Left,Correct,0.0,0.0,-45,45,842,-1,-1
"{'cat': 'II', 'resp': 'button'}",3,344,Right,47.62801335779222,17.32941119405995,2.381400667889611,0.27220975449147733,Right,Correct,0.0,0.0,-45,45,800,-1,-1
"{'cat': 'II', 'resp': 'button'}",3,345,Left,31.172668785301205,60.53140462864873,1.5586334392650603,0.9508250804641701,Left,Correct,0.0,0.0,-45,45,562,-1,-1
"{'cat': 'II', 'resp': 'button'}",3,346,Left,29.963481745544147,58.88815912077194,1.4981740872772074,0.9250130403862195,Left,Correct,0.0,0.0,-45,45,533,-1,-1
"{'cat': 'II', 'resp': 'button'}",3,347,Right,50.67005969164298,33.919112519497354,2.533502984582149,0.5328001735376924,Left,Incorrect,0.0,0.0,-45,45,885,-1,-1
"{'cat': 'II', 'resp': 'button'}",3,348,Left,52.65809521721517,75.48304221165021,2.6329047608607583,1.1856848544136427,Left,Correct,0.0,0.0,-45,45,1208,-1,-1
"{'cat': 'II', 'resp': 'button'}",3,349,Right,50.89210124800262,42.67083627476916,2.544605062400131,0.6702719288167381,Right,Correct,0.0,0.0,-45,45,550,-1,-1
"{'cat': 'II', 'resp': 'button'}",3,350,Right,34.205512782996706,17.484034226454614,1.7102756391498355,0.2746385674047116,Left,Incorrect,0.0,0.0,-45,45,843,-1,-1
"{'cat': 'II', 'resp': 'button'}",3,351,Left,33.407456271534215,66.0901286026097,1.6703728135767109,1.0381413124638164,Left,Correct,0.0,0.0,-45,45,677,-1,-1
"{'cat': 'II', 'resp': 'button'}",3,352,Left,31.091438878343187,43.671545269228716,1.5545719439171595,0.6859910289436152,Right,Incorrect,0.0,0.0,-45,45,694,-1,-1
"{'cat': 'II', 'resp': 'button'}",3,353,Right,53.480858853858514,31.90593086166429,2.6740429426929255,0.501177190004742,Right,Correct,0.0,0.0,-45,45,629,-1,-1
"{'cat': 'II', 'resp': 'button'}",3,354,Right,44.48543377968767,16.994401833159582,2.224271688984383,0.2669474397560353,Right,Correct,0.0,0.0,-45,45,724,-1,-1
"{'cat': 'II', 'resp': 'button'}",3,355,Right,75.52971497961185,61.09053321564767,3.7764857489805927,0.9596078517708099,Right,Correct,0.0,0.0,-45,45,1028,-1,-1
"{'cat': 'II', 'resp': 'button'}",3,356,Right,39.89393700530866,22.509579299419055,1.994696850265433,0.35357964481225895,Left,Incorrect,0.0,0.0,-45,45,693,-1,-1
"{'cat': 'II', 'resp': 'button'}",3,357,Left,53.60956368445362,66.25633252268584,2.680478184222681,1.0407520375353616,Left,Correct,0.0,0.0,-45,45,909,-1,-1
"{'cat': 'II', 'resp': 'button'}",3,358,Left,12.560646062684299,40.08183304076957,0.628032303134215,0.6296039611164714,Left,Correct,0.0,0.0,-45,45,660,-1,-1
"{'cat': 'II', 'resp': 'button'}",3,359,Left,46.74309210917683,67.38184079647817,2.3371546054588412,1.0584314801578643,Right,Incorrect,0.0,0.0,-45,45,1313,-1,-1
"{'cat': 'II', 'resp': 'button'}",3,360,Right,56.22515832769054,33.5541819481196,2.8112579163845273,0.5270678575271389,Right,Correct,0.0,0.0,-45,45,666,-1,-1
"{'cat': 'II', 'resp': 'button'}",3,361,Right,74.84840210635346,45.19626228872082,3.742420105317673,0.7099412278798135,Right,Correct,0.0,0.0,-45,45,757,-1,-1
"{'cat': 'II', 'resp': 'button'}",3,362,Right,73.3680954005056,60.03316425117116,3.6684047700252798,0.9429987389161435,Right,Correct,0.0,0.0,-45,45,516,-1,-1
"{'cat': 'II', 'resp': 'button'}",3,363,Right,45.44122189179838,35.594679485850854,2.272061094589919,0.5591199178981617,Right,Correct,0.0,0.0,-45,45,499,-1,-1
"{'cat': 'II', 'resp': 'button'}",3,364,Left,26.897604666850224,39.498886287570215,1.3448802333425112,0.620447054930046,Left,Correct,0.0,0.0,-45,45,910,-1,-1
"{'cat': 'II', 'resp': 'button'}",3,365,Left,60.190652225249735,79.65924856166524,3.0095326112624865,1.251284550359054,Right,Incorrect,0.0,0.0,-45,45,737,-1,-1
"{'cat': 'II', 'resp': 'button'}",3,366,Right,60.144464605432354,41.53825721281147,3.007223230271618,0.6524814185134589,Right,Correct,0.0,0.0,-45,45,470,-1,-1
"{'cat': 'II', 'resp': 'button'}",3,367,Right,81.4378607483719,64.00484494258507,4.0718930374185955,1.0053857533288952,Right,Correct,0.0,0.0,-45,45,684,-1,-1
"{'cat': 'II', 'resp': 'button'}",3,368,Right,50.203720094473766,23.085876360467275,2.510186004723688,0.36263209787863127,Right,Correct,0.0,0.0,-45,45,895,-1,-1
"{'cat': 'II', 'resp': 'button'}",3,369,Left,28.683229242558646,51.32138985694576,1.4341614621279322,0.8061545067329925,Left,Correct,0.0,0.0,-45,45,831,-1,-1
"{'cat': 'II', 'resp': 'button'}",3,370,Left,61.12117950150667,83.87626841827603,3.056058975075333,1.3175253433669079,Left,Correct,0.0,0.0,-45,45,1272,-1,-1
"{'cat': 'II', 'resp': 'button'}",3,371,Left,36.26427213963037,53.37933239690243,1.8132136069815186,0.8384805925581815,Left,Correct,0.0,0.0,-45,45,920,-1,-1
"{'cat': 'II', 'resp': 'button'}",3,372,Left,57.26772708348065,64.93079116937834,2.863386354174032,1.01993048264746,Right,Incorrect,0.0,0.0,-45,45,879,-1,-1
"{'cat': 'II', 'resp': 'button'}",3,373,Left,58.57577623858609,70.21160463845457,2.928788811929304,1.1028813066445997,Left,Correct,0.0,0.0,-45,45,668,-1,-1
"{'cat': 'II', 'resp': 'button'}",3,374,Left,52.81852373558878,63.921454361928035,2.640926186779439,1.0040758571510418,Left,Correct,0.0,0.0,-45,45,616,-1,-1
"{'cat': 'II', 'resp': 'button'}",3,375,Left,61.86300301054136,77.04773734721802,3.093150150527068,1.2102630281286804,Left,Correct,0.0,0.0,-45,45,516,-1,-1
"{'cat': 'II', 'resp': 'button'}",3,376,Right,79.35888131058881,58.99337069161627,3.9679440655294407,0.9266656998764055,Left,Incorrect,0.0,0.0,-45,45,539,-1,-1
"{'cat': 'II', 'resp': 'button'}",3,377,Right,35.90967779603869,14.966697396148465,1.7954838898019347,0.2350963329412075,Left,Incorrect,0.0,0.0,-45,45,742,-1,-1
"{'cat': 'II', 'resp': 'button'}",3,378,Right,49.39810390964543,19.334969936317908,2.4699051954822715,0.3037129975465792,Right,Correct,0.0,0.0,-45,45,473,-1,-1
"{'cat': 'II', 'resp': 'button'}",3,379,Right,58.98779293983847,47.0818997430259,2.9493896469919236,0.7395607517487066,Right,Correct,0.0,0.0,-45,45,426,-1,-1
"{'cat': 'II', 'resp': 'button'}",3,380,Left,56.06535871809015,76.21373443555456,2.803267935904507,1.1971625410269082,Left,Correct,0.0,0.0,-45,45,645,-1,-1
"{'cat': 'II', 'resp': 'button'}",3,381,Left,48.423564453976056,63.27365778327745,2.421178222698803,0.9939002922884953,Left,Correct,0.0,0.0,-45,45,565,-1,-1
"{'cat': 'II', 'resp': 'button'}",3,382,Right,55.31841046948644,25.34347040038434,2.7659205234743216,0.3980943021315891,Right,Correct,0.0,0.0,-45,45,588,-1,-1
"{'cat': 'II', 'resp': 'button'}",3,383,Right,67.94532393947532,49.3456206565302,3.397266196973766,0.7751191967069202,Right,Correct,0.0,0.0,-45,45,741,-1,-1
"{'cat': 'II', 'resp': 'button'}",3,384,Right,42.16725731691107,19.11309319180387,2.1083628658455535,0.30022776579374066,Left,Incorrect,0.0,0.0,-45,45,693,-1,-1
"{'cat': 'II', 'resp': 'button'}",3,385,Left,65.76815999666577,85.80028331913785,3.2884079998332885,1.3477476987566317,Left,Correct,0.0,0.0,-45,45,1811,-1,-1
"{'cat': 'II', 'resp': 'button'}",3,386,Right,74.65851903616696,62.926409000719346,3.7329259518083484,0.9884457211672327,Left,Incorrect,0.0,0.0,-45,45,680,-1,-1
"{'cat': 'II', 'resp': 'button'}",3,387,Right,77.19492392240768,49.00371096172158,3.859746196120384,0.7697484917799107,Right,Correct,0.0,0.0,-45,45,496,-1,-1
"{'cat': 'II', 'resp': 'button'}",3,388,Left,21.109497348390377,49.96165772938063,1.055474867419519,0.7847958844189493,107,Correct,0.0,0.0,-45,45,1526,-1,-1
"{'cat': 'II', 'resp': 'button'}",3,389,Right,79.28124236972012,54.986220346897184,3.964062118486006,0.8637215294524091,Right,Correct,0.0,0.0,-45,45,660,-1,-1
"{'cat': 'II', 'resp': 'button'}",3,390,Left,64.6579659004303,88.63562756942721,3.2328982950215153,1.3922851820921676,Left,Correct,0.0,0.0,-45,45,618,-1,-1
"{'cat': 'II', 'resp': 'button'}",3,391,Left,53.795688244784344,73.25579006874159,2.6897844122392174,1.1506992595643735,Left,Correct,0.0,0.0,-45,45,1120,-1,-1
"{'cat': 'II', 'resp': 'button'}",3,392,Right,57.54206649572187,40.69253718331825,2.8771033247860935,0.6391968793552105,Right,Correct,0.0,0.0,-45,45,504,-1,-1
"{'cat': 'II', 'resp': 'button'}",3,393,Left,61.49659845701453,86.41553048645817,3.0748299228507268,1.3574119786616088,Left,Correct,0.0,0.0,-45,45,605,-1,-1
"{'cat': 'II', 'resp': 'button'}",3,394,Right,69.12948625300409,45.96329618016739,3.4564743126502044,0.7219897680719282,Right,Correct,0.0,0.0,-45,45,551,-1,-1
"{'cat': 'II', 'resp': 'button'}",3,395,Right,57.308950142263704,28.806985839839115,2.865447507113185,0.45249907543251877,Left,Incorrect,0.0,0.0,-45,45,626,-1,-1
"{'cat': 'II', 'resp': 'button'}",3,396,Left,33.27794766150941,58.83120851514136,1.6638973830754704,0.9241184623648869,Right,Incorrect,0.0,0.0,-45,45,380,-1,-1
"{'cat': 'II', 'resp': 'button'}",3,397,Right,78.80075930901972,58.183228436428834,3.940037965450986,0.9139400150901079,Right,Correct,0.0,0.0,-45,45,683,-1,-1
"{'cat': 'II', 'resp': 'button'}",3,398,Left,48.74312427563646,76.59837062980637,2.4371562137818232,1.2032043922377393,Left,Correct,0.0,0.0,-45,45,743,-1,-1
"{'cat': 'II', 'resp': 'button'}",3,399,Right,41.88440529035488,14.37966375023149,2.094220264517744,0.22587522999409354,Right,Correct,0.0,0.0,-45,45,828,-1,-1
