condition,subject,trial,cat,x,y,xt,yt,resp,fb,rotation,su,target_angle_left,target_angle_right,rt,mt,ep
"{'cat': 'RB', 'resp': 'reach'}",2,0,Right,51.03993615927382,41.36625280944651,2.551996807963691,0.6497795796634764,Left,Incorrect,0.0,0.0,-45,45,2006,2524,-2.75
"{'cat': 'RB', 'resp': 'reach'}",2,1,Right,64.81644617843611,15.589160330995547,3.240822308921805,0.2448739578574452,Left,Incorrect,0.0,0.0,-45,45,2004,2429,-2.61
"{'cat': 'RB', 'resp': 'reach'}",2,2,Right,60.4109636117031,68.11159241456158,3.0205481805851555,1.0698943917694448,Right,Correct,0.0,0.0,-45,45,2001,1065,-0.69
"{'cat': 'RB', 'resp': 'reach'}",2,3,Left,38.779875085348,16.211167722590574,1.9389937542674003,0.2546444271170126,Left,Correct,0.0,0.0,-45,45,2008,1835,-2.53
"{'cat': 'RB', 'resp': 'reach'}",2,4,Right,63.24132139391609,16.53468455206218,3.1620660696958045,0.2597262175909159,Right,Correct,0.0,0.0,-45,45,2007,1056,-0.67
"{'cat': 'RB', 'resp': 'reach'}",2,5,Left,36.12025964001656,85.93879705679132,1.8060129820008282,1.3499234674597989,Left,Correct,0.0,0.0,-45,45,2004,1061,-2.55
"{'cat': 'RB', 'resp': 'reach'}",2,6,Left,38.31317428363486,67.07313695448028,1.9156587141817427,1.0535823715470867,Right,Incorrect,0.0,0.0,-45,45,2007,1275,-0.7
"{'cat': 'RB', 'resp': 'reach'}",2,7,Left,43.787572801645496,25.637188682611296,2.189378640082275,0.4027080181199351,Right,Incorrect,0.0,0.0,-45,45,2004,1455,1.79
"{'cat': 'RB', 'resp': 'reach'}",2,8,Left,32.37853057245415,53.51679782625101,1.6189265286227077,0.8406398944730019,Right,Incorrect,0.0,0.0,-45,45,2004,1211,1.11
"{'cat': 'RB', 'resp': 'reach'}",2,9,Right,53.62565191816325,38.470706234391535,2.6812825959081623,0.6042964404218776,Right,Correct,0.0,0.0,-45,45,2002,1781,-0.77
"{'cat': 'RB', 'resp': 'reach'}",2,10,Left,35.64740528936861,74.74628755029926,1.7823702644684305,1.1741119392556518,Left,Correct,0.0,0.0,-45,45,2004,1163,-2.47
"{'cat': 'RB', 'resp': 'reach'}",2,11,Right,57.460843586878575,84.52477019681868,2.8730421793439285,1.3277119854834551,Right,Correct,0.0,0.0,-45,45,2002,1081,-0.75
"{'cat': 'RB', 'resp': 'reach'}",2,12,Right,59.711572957196786,69.21512757828198,2.9855786478598394,1.0872286815860548,Left,Incorrect,0.0,0.0,-45,45,2002,1846,-2.62
"{'cat': 'RB', 'resp': 'reach'}",2,13,Left,34.507992207956484,22.42160572517661,1.7253996103978242,0.3521977591395084,Right,Incorrect,0.0,0.0,-45,45,2003,1083,-0.81
"{'cat': 'RB', 'resp': 'reach'}",2,14,Left,33.68018182929295,64.41835971464621,1.6840090914646475,1.011881228179186,Right,Incorrect,0.0,0.0,-45,45,2002,3149,-0.78
"{'cat': 'RB', 'resp': 'reach'}",2,15,Left,43.28721102588991,65.29054770081233,2.1643605512944957,1.0255815250286298,Left,Correct,0.0,0.0,-45,45,2012,1256,-2.63
"{'cat': 'RB', 'resp': 'reach'}",2,16,Left,41.44567366597333,34.43021359497822,2.0722836832986666,0.540828530457555,Left,Correct,0.0,0.0,-45,45,2001,1829,-2.51
"{'cat': 'RB', 'resp': 'reach'}",2,17,Left,37.128949700411106,26.37532391742635,1.8564474850205555,0.4143026192751889,Left,Correct,0.0,0.0,-45,45,2009,1242,-2.58
"{'cat': 'RB', 'resp': 'reach'}",2,18,Right,58.23304940213796,30.683772799057643,2.9116524701068975,0.4819795760496891,Right,Correct,0.0,0.0,-45,45,2003,961,-0.78
"{'cat': 'RB', 'resp': 'reach'}",2,19,Left,44.2464046317627,51.91090414682837,2.212320231588135,0.8154145755443997,Left,Correct,0.0,0.0,-45,45,2009,1309,-2.74
"{'cat': 'RB', 'resp': 'reach'}",2,20,Right,60.74690491576671,43.77217925038712,3.0373452457883356,0.6875717838231589,Right,Correct,0.0,0.0,-45,45,2007,1077,-0.73
"{'cat': 'RB', 'resp': 'reach'}",2,21,Right,64.08918994043243,20.597784331900627,3.204459497021622,0.3235492396866298,Right,Correct,0.0,0.0,-45,45,2004,1012,-0.77
"{'cat': 'RB', 'resp': 'reach'}",2,22,Right,54.03359616712352,58.531872918617026,2.7016798083561757,0.9194165098098931,Right,Correct,0.0,0.0,-45,45,2008,1414,-0.8
"{'cat': 'RB', 'resp': 'reach'}",2,23,Right,65.57399970588584,78.48557735455131,3.278699985294292,1.2328485661490591,Right,Correct,0.0,0.0,-45,45,2001,699,-0.82
"{'cat': 'RB', 'resp': 'reach'}",2,24,Right,66.37038967173471,52.83259597385443,3.3185194835867353,0.829892476907694,Right,Correct,0.0,0.0,-45,45,2009,673,-0.8
"{'cat': 'RB', 'resp': 'reach'}",2,25,Left,39.06024910121019,29.370199408097676,1.9530124550605095,0.46134601347473475,Left,Correct,0.0,0.0,-45,45,2006,1008,-2.54
"{'cat': 'RB', 'resp': 'reach'}",2,26,Left,43.37090135179277,54.85634063679599,2.1685450675896387,0.8616813837368876,Left,Correct,0.0,0.0,-45,45,2007,1146,-2.71
"{'cat': 'RB', 'resp': 'reach'}",2,27,Left,40.50679256071366,46.82766296954992,2.0253396280356832,0.7355672098495841,Left,Correct,0.0,0.0,-45,45,2007,1517,-2.94
"{'cat': 'RB', 'resp': 'reach'}",2,28,Left,37.340987235876774,46.742988627970654,1.8670493617938388,0.7342371484023192,Left,Correct,0.0,0.0,-45,45,2005,1426,-2.76
"{'cat': 'RB', 'resp': 'reach'}",2,29,Left,34.71971832141773,44.599546547532356,1.7359859160708866,0.7005680389358184,Left,Correct,0.0,0.0,-45,45,2002,1135,-2.82
"{'cat': 'RB', 'resp': 'reach'}",2,30,Right,65.99850679109652,63.616555513578916,3.299925339554826,0.9992865172407338,Right,Correct,0.0,0.0,-45,45,2008,1043,-0.75
"{'cat': 'RB', 'resp': 'reach'}",2,31,Right,64.05162286334291,18.493419526436824,3.2025811431671456,0.2904939546200398,Right,Correct,0.0,0.0,-45,45,2014,588,-0.77
"{'cat': 'RB', 'resp': 'reach'}",2,32,Left,34.71686432721019,23.81437461387747,1.7358432163605095,0.37407532168396357,Left,Correct,0.0,0.0,-45,45,2004,1100,-2.64
"{'cat': 'RB', 'resp': 'reach'}",2,33,Left,38.73556254646788,33.595136025977425,1.9367781273233942,0.5277111626778024,Left,Correct,0.0,0.0,-45,45,2002,1111,-2.79
"{'cat': 'RB', 'resp': 'reach'}",2,34,Right,56.47897219984898,42.92748075840429,2.8239486099924487,0.6743032909386006,Right,Correct,0.0,0.0,-45,45,2005,1002,-0.73
"{'cat': 'RB', 'resp': 'reach'}",2,35,Left,47.0287640310157,37.43545871079869,2.351438201550785,0.5880348103480459,Left,Correct,0.0,0.0,-45,45,2005,1072,-2.7
"{'cat': 'RB', 'resp': 'reach'}",2,36,Left,36.069289584575785,87.51178513085593,1.8034644792287893,1.3746319063481274,Right,Incorrect,0.0,0.0,-45,45,2006,882,-0.71
"{'cat': 'RB', 'resp': 'reach'}",2,37,Left,41.80986341275931,50.62253038999877,2.0904931706379655,0.7951768478967309,Left,Correct,0.0,0.0,-45,45,2002,1482,-2.48
"{'cat': 'RB', 'resp': 'reach'}",2,38,Left,40.724225208870564,10.58508807882746,2.0362112604435283,0.16627017473022626,Right,Incorrect,0.0,0.0,-45,45,2012,1054,-0.73
"{'cat': 'RB', 'resp': 'reach'}",2,39,Right,65.8401549835427,78.8662077712276,3.292007749177135,1.2388274947528743,Right,Correct,0.0,0.0,-45,45,2012,1038,-0.75
"{'cat': 'RB', 'resp': 'reach'}",2,40,Right,52.381733814389406,66.68889635321855,2.6190866907194703,1.0475467342964127,Left,Incorrect,0.0,0.0,-45,45,2001,926,-2.79
"{'cat': 'RB', 'resp': 'reach'}",2,41,Left,38.57176904247351,12.282270693443003,1.9285884521236756,0.19292945689960878,Right,Incorrect,0.0,0.0,-45,45,2002,828,-0.78
"{'cat': 'RB', 'resp': 'reach'}",2,42,Left,42.79278956670144,42.08234260448016,2.139639478335072,0.6610278918604182,Left,Correct,0.0,0.0,-45,45,2007,1133,-2.69
"{'cat': 'RB', 'resp': 'reach'}",2,43,Right,60.505194644799026,26.7568487722858,3.0252597322399515,0.42029559768113073,Left,Incorrect,0.0,0.0,-45,45,2001,1205,-2.6
"{'cat': 'RB', 'resp': 'reach'}",2,44,Left,42.445133799266664,53.62722913978656,2.1222566899633333,0.8423745454896496,Right,Incorrect,0.0,0.0,-45,45,2002,2551,-0.74
"{'cat': 'RB', 'resp': 'reach'}",2,45,Right,52.45596866986108,51.91551454767727,2.622798433493054,0.8154869955515848,Right,Correct,0.0,0.0,-45,45,2012,1960,-0.8
"{'cat': 'RB', 'resp': 'reach'}",2,46,Left,40.1354545012443,25.276171251345602,2.0067727250622145,0.39703716957052443,Left,Correct,0.0,0.0,-45,45,2001,2817,-2.56
"{'cat': 'RB', 'resp': 'reach'}",2,47,Right,65.39914635741343,79.7869530699956,3.2699573178706713,1.253290528085059,Right,Correct,0.0,0.0,-45,45,2001,884,-0.79
"{'cat': 'RB', 'resp': 'reach'}",2,48,Left,42.69171174831482,13.147743403051265,2.134585587415741,0.20652427043154759,Left,Correct,0.0,0.0,-45,45,2003,4214,-2.61
"{'cat': 'RB', 'resp': 'reach'}",2,49,Left,40.42778202937565,84.02766957826654,2.0213891014687824,1.3199035472267635,Left,Correct,0.0,0.0,-45,45,2008,1564,-2.48
"{'cat': 'RB', 'resp': 'reach'}",2,50,Left,47.32246175709135,62.54647192740334,2.366123087854567,0.9824776835754527,Right,Incorrect,0.0,0.0,-45,45,2004,2325,-0.73
"{'cat': 'RB', 'resp': 'reach'}",2,51,Right,62.76228770607247,79.49757504476416,3.1381143853036235,1.2487449886941717,Right,Correct,0.0,0.0,-45,45,2012,639,-0.78
"{'cat': 'RB', 'resp': 'reach'}",2,52,Left,39.06650612511422,18.98475289291386,1.953325306255711,0.2982118010929788,Left,Correct,0.0,0.0,-45,45,2012,3731,-2.54
"{'cat': 'RB', 'resp': 'reach'}",2,53,Left,40.931631613418496,39.13734906540751,2.046581580670925,0.614768041524318,Left,Correct,0.0,0.0,-45,45,2006,1413,-2.55
"{'cat': 'RB', 'resp': 'reach'}",2,54,Right,62.60019616431407,56.09763613164313,3.1300098082157035,0.8811796077746169,Left,Incorrect,0.0,0.0,-45,45,2013,909,-2.59
"{'cat': 'RB', 'resp': 'reach'}",2,55,Left,36.85030672110407,39.83356945693961,1.8425153360552033,0.6257042458609011,Right,Incorrect,0.0,0.0,-45,45,2005,1633,-0.78
"{'cat': 'RB', 'resp': 'reach'}",2,56,Right,61.011952182382885,64.59495916248,3.050597609119144,1.0146552458188993,Right,Correct,0.0,0.0,-45,45,2002,2283,-0.88
"{'cat': 'RB', 'resp': 'reach'}",2,57,Right,60.707463817707385,76.61852934464713,3.0353731908853696,1.2035210445899869,Right,Correct,0.0,0.0,-45,45,2002,1089,-0.85
"{'cat': 'RB', 'resp': 'reach'}",2,58,Right,56.96845409733215,72.25853069849953,2.8484227048666075,1.1350343460079932,Right,Correct,0.0,0.0,-45,45,2003,935,-0.89
"{'cat': 'RB', 'resp': 'reach'}",2,59,Right,69.01141023879838,61.10420453601854,3.450570511939919,0.9598226003690199,Right,Correct,0.0,0.0,-45,45,2001,930,-0.77
"{'cat': 'RB', 'resp': 'reach'}",2,60,Right,68.29822093050367,32.88066605097165,3.414911046525184,0.5164882945543593,Right,Correct,0.0,0.0,-45,45,2008,718,-0.79
"{'cat': 'RB', 'resp': 'reach'}",2,61,Right,55.14193432185061,77.28566805153673,2.757096716092531,1.214000434892436,Right,Correct,0.0,0.0,-45,45,2008,1876,-0.76
"{'cat': 'RB', 'resp': 'reach'}",2,62,Left,34.01886824669154,58.288779294983115,1.700943412334577,0.9155980040991789,Left,Correct,0.0,0.0,-45,45,2006,3615,-2.55
"{'cat': 'RB', 'resp': 'reach'}",2,63,Left,31.718854814543555,49.67737515845001,1.5859427407271778,0.7803303842370531,Left,Correct,0.0,0.0,-45,45,2013,1303,-2.39
"{'cat': 'RB', 'resp': 'reach'}",2,64,Right,59.364642476664876,16.406193584096187,2.968232123833244,0.2577078861858429,Right,Correct,0.0,0.0,-45,45,2005,581,-0.79
"{'cat': 'RB', 'resp': 'reach'}",2,65,Left,40.50410063821514,43.50482119627994,2.025205031910757,0.6833721333298528,Left,Correct,0.0,0.0,-45,45,2002,3034,-2.52
"{'cat': 'RB', 'resp': 'reach'}",2,66,Right,65.53602182445833,62.3545197973735,3.276801091222916,0.9794625065677396,Right,Correct,0.0,0.0,-45,45,2001,872,-0.76
"{'cat': 'RB', 'resp': 'reach'}",2,67,Left,48.383999979441484,32.93276140920952,2.4191999989720743,0.5173066065279903,Right,Incorrect,0.0,0.0,-45,45,2007,4181,-0.83
"{'cat': 'RB', 'resp': 'reach'}",2,68,Left,41.75616940257099,18.01911090574901,2.0878084701285498,0.28304353222860407,Right,Incorrect,0.0,0.0,-45,45,2003,856,-0.78
"{'cat': 'RB', 'resp': 'reach'}",2,69,Right,53.99100874909746,21.128830102410184,2.6995504374548727,0.3318908871433935,Right,Correct,0.0,0.0,-45,45,2006,1398,-0.82
"{'cat': 'RB', 'resp': 'reach'}",2,70,Right,54.92033489648509,43.57180314231994,2.7460167448242543,0.684424283277865,Right,Correct,0.0,0.0,-45,45,2001,742,-0.78
"{'cat': 'RB', 'resp': 'reach'}",2,71,Left,38.000710741654615,89.92390001330443,1.9000355370827307,1.4125213183197014,Left,Correct,0.0,0.0,-45,45,2012,1189,-2.61
"{'cat': 'RB', 'resp': 'reach'}",2,72,Left,34.85965996612908,76.96592820938793,1.742982998306454,1.2089779731966626,Left,Correct,0.0,0.0,-45,45,2004,2194,-2.54
"{'cat': 'RB', 'resp': 'reach'}",2,73,Right,54.7470930750582,17.626769144975384,2.7373546537529103,0.2768806422618895,Right,Correct,0.0,0.0,-45,45,2005,1933,-0.79
"{'cat': 'RB', 'resp': 'reach'}",2,74,Right,63.536999907864256,39.69732560095588,3.1768499953932126,0.623564132375625,Right,Correct,0.0,0.0,-45,45,2007,817,-0.81
"{'cat': 'RB', 'resp': 'reach'}",2,75,Right,68.04276838659092,51.33636367033109,3.402138419329546,0.8063897148436305,Right,Correct,0.0,0.0,-45,45,2007,619,-0.84
"{'cat': 'RB', 'resp': 'reach'}",2,76,Left,35.2298786399518,75.05512851744558,1.76149393199759,1.1789632018232241,Left,Correct,0.0,0.0,-45,45,2008,817,-2.5
"{'cat': 'RB', 'resp': 'reach'}",2,77,Right,54.21855791079166,39.7192523246793,2.7109278955395832,0.623908556546459,Right,Correct,0.0,0.0,-45,45,2003,2069,-0.76
"{'cat': 'RB', 'resp': 'reach'}",2,78,Left,43.43359424594072,17.370670488707688,2.171679712297036,0.2728578539762655,Right,Incorrect,0.0,0.0,-45,45,2005,657,-0.78
"{'cat': 'RB', 'resp': 'reach'}",2,79,Right,58.01780299408359,51.408580405518734,2.9008901497041797,0.8075240926672892,Right,Correct,0.0,0.0,-45,45,2003,1318,-0.82
"{'cat': 'RB', 'resp': 'reach'}",2,80,Right,58.05568601653496,49.762689642522275,2.9027843008267484,0.7816705010190843,Right,Correct,0.0,0.0,-45,45,2002,662,-0.79
"{'cat': 'RB', 'resp': 'reach'}",2,81,Right,61.529689366691066,11.424305145728333,3.0764844683345536,0.179452565590941,Right,Correct,0.0,0.0,-45,45,2003,605,-0.8
"{'cat': 'RB', 'resp': 'reach'}",2,82,Right,58.90086425696911,49.94766636344856,2.9450432128484554,0.78457610855682,Right,Correct,0.0,0.0,-45,45,2004,586,-0.79
"{'cat': 'RB', 'resp': 'reach'}",2,83,Right,58.00005476255489,64.07629767061475,2.9000027381277445,1.0065081301561805,Right,Correct,0.0,0.0,-45,45,2003,580,-0.79
"{'cat': 'RB', 'resp': 'reach'}",2,84,Right,65.95308188207089,79.9729798274788,3.297654094103544,1.2562126295584606,Right,Correct,0.0,0.0,-45,45,2005,729,-0.8
"{'cat': 'RB', 'resp': 'reach'}",2,85,Right,56.47536376120094,69.00832768379613,2.823768188060047,1.083980276439655,Right,Correct,0.0,0.0,-45,45,2002,885,-0.78
"{'cat': 'RB', 'resp': 'reach'}",2,86,Right,52.89136739507266,64.97527569851646,2.6445683697536335,1.0206292439971534,Right,Correct,0.0,0.0,-45,45,2008,912,-0.81
"{'cat': 'RB', 'resp': 'reach'}",2,87,Left,41.016747692062125,88.11907776814323,2.0508373846031063,1.3841712367875323,Left,Correct,0.0,0.0,-45,45,2009,955,-2.48
"{'cat': 'RB', 'resp': 'reach'}",2,88,Right,65.70256453873475,20.776974040170924,3.2851282269367372,0.3263639450421341,Right,Correct,0.0,0.0,-45,45,2006,754,-0.76
"{'cat': 'RB', 'resp': 'reach'}",2,89,Left,39.87299765343728,30.6347563235341,1.9936498826718638,0.4812096270526409,Left,Correct,0.0,0.0,-45,45,2004,940,-2.46
"{'cat': 'RB', 'resp': 'reach'}",2,90,Right,54.52403939427943,42.15785137255027,2.7262019697139714,0.6622139808156715,Right,Correct,0.0,0.0,-45,45,2007,966,-0.82
"{'cat': 'RB', 'resp': 'reach'}",2,91,Right,56.41231727264962,69.89421028679786,2.8206158636324807,1.0978956878273216,Right,Correct,0.0,0.0,-45,45,2003,856,-0.82
"{'cat': 'RB', 'resp': 'reach'}",2,92,Left,47.375818039965395,50.38036891020549,2.3687909019982696,0.791372984267226,Right,Incorrect,0.0,0.0,-45,45,2004,751,-0.77
"{'cat': 'RB', 'resp': 'reach'}",2,93,Left,41.528303925252764,25.63611250010864,2.0764151962626385,0.4026911134847138,Left,Correct,0.0,0.0,-45,45,2012,1003,-2.52
"{'cat': 'RB', 'resp': 'reach'}",2,94,Left,34.41261079680859,81.86513868179516,1.7206305398404296,1.2859345913391862,Left,Correct,0.0,0.0,-45,45,2007,1168,-2.45
"{'cat': 'RB', 'resp': 'reach'}",2,95,Left,46.802197530236725,37.51142211708436,2.3401098765118364,0.5892280407436896,Right,Incorrect,0.0,0.0,-45,45,2010,828,-0.78
"{'cat': 'RB', 'resp': 'reach'}",2,96,Left,31.402454007870197,66.38364237901575,1.5701227003935099,1.0427518160822398,Left,Correct,0.0,0.0,-45,45,2006,1091,-2.47
"{'cat': 'RB', 'resp': 'reach'}",2,97,Right,57.94067021833171,90.22129178317797,2.8970335109165855,1.4171927373170654,Right,Correct,0.0,0.0,-45,45,2008,999,-0.75
"{'cat': 'RB', 'resp': 'reach'}",2,98,Left,45.019405784460794,28.9495732822155,2.2509702892230394,0.45473883373983787,Left,Correct,0.0,0.0,-45,45,2001,1004,-2.44
"{'cat': 'RB', 'resp': 'reach'}",2,99,Right,67.98970834297694,41.40168950002096,3.399485417148847,0.6503362178973576,Right,Correct,0.0,0.0,-45,45,2012,718,-0.8
"{'cat': 'RB', 'resp': 'reach'}",2,100,Right,61.22652309984084,39.151815486032184,3.0613261549920416,0.614995279528109,Right,Correct,0.0,0.0,-45,45,2006,1014,-0.87
"{'cat': 'RB', 'resp': 'reach'}",2,101,Right,66.39648666833254,54.54633105672241,3.3198243334166273,0.8568117646403794,Right,Correct,0.0,0.0,-45,45,2001,1026,-0.81
"{'cat': 'RB', 'resp': 'reach'}",2,102,Right,56.77291504810303,14.008024680922738,2.838645752405151,0.22003753714445687,Right,Correct,0.0,0.0,-45,45,2005,719,-0.79
"{'cat': 'RB', 'resp': 'reach'}",2,103,Left,41.62263475345506,82.38372914264386,2.081131737672753,1.2940805912493063,Left,Correct,0.0,0.0,-45,45,2003,942,-2.53
"{'cat': 'RB', 'resp': 'reach'}",2,104,Left,36.67421536885508,17.905068060794335,1.8337107684427538,0.2812521514090836,Left,Correct,0.0,0.0,-45,45,2002,998,-2.42
"{'cat': 'RB', 'resp': 'reach'}",2,105,Right,56.06093404392423,67.79914728699661,2.803046702196211,1.0649865151824047,Right,Correct,0.0,0.0,-45,45,2007,1166,-0.81
"{'cat': 'RB', 'resp': 'reach'}",2,106,Left,42.68680480015918,23.470162756212353,2.1343402400079587,0.36866845446736746,Left,Correct,0.0,0.0,-45,45,2002,3123,-2.56
"{'cat': 'RB', 'resp': 'reach'}",2,107,Left,40.094030045196774,61.511563869595236,2.004701502259839,0.9662213858176987,Left,Correct,0.0,0.0,-45,45,2004,1667,-2.57
"{'cat': 'RB', 'resp': 'reach'}",2,108,Left,34.33403362974484,80.30575869943891,1.716701681487242,1.2614399078555596,Left,Correct,0.0,0.0,-45,45,2004,1340,-2.5
"{'cat': 'RB', 'resp': 'reach'}",2,109,Right,62.77391021618192,89.1304235515727,3.1386955108090957,1.4000574192048374,Right,Correct,0.0,0.0,-45,45,2010,1022,-0.83
"{'cat': 'RB', 'resp': 'reach'}",2,110,Left,36.37594624395822,53.99338892622512,1.818797312197911,0.8481261699652266,Left,Correct,0.0,0.0,-45,45,2008,1816,-2.51
"{'cat': 'RB', 'resp': 'reach'}",2,111,Left,38.8093806445443,11.179350485769739,1.940469032227215,0.17560482678999847,Left,Correct,0.0,0.0,-45,45,2004,981,-2.47
"{'cat': 'RB', 'resp': 'reach'}",2,112,Right,63.358190826092965,45.57132961679837,3.167909541304648,0.7158327716922638,Right,Correct,0.0,0.0,-45,45,2005,993,-0.82
"{'cat': 'RB', 'resp': 'reach'}",2,113,Left,35.761838450913416,22.783940570955767,1.7880919225456708,0.3578893015877054,Left,Correct,0.0,0.0,-45,45,2004,1670,-2.47
"{'cat': 'RB', 'resp': 'reach'}",2,114,Right,53.34566150552343,65.60105906285516,2.667283075276172,1.0304590260978794,Right,Correct,0.0,0.0,-45,45,2003,1773,-0.8
"{'cat': 'RB', 'resp': 'reach'}",2,115,Left,38.3933238351618,90.31853786531312,1.91966619175809,1.4187202752031962,Left,Correct,0.0,0.0,-45,45,2009,988,-2.47
"{'cat': 'RB', 'resp': 'reach'}",2,116,Left,45.281354425183935,24.91576261207197,2.2640677212591966,0.39137588390336264,Right,Incorrect,0.0,0.0,-45,45,2002,876,-0.79
"{'cat': 'RB', 'resp': 'reach'}",2,117,Left,41.20704468860276,82.02403448565192,2.060352234430138,1.2884305207895996,Left,Correct,0.0,0.0,-45,45,2006,1992,-2.44
"{'cat': 'RB', 'resp': 'reach'}",2,118,Right,52.35466802330637,70.43383574016815,2.617733401165318,1.1063721046273125,Right,Correct,0.0,0.0,-45,45,2005,1069,-0.86
"{'cat': 'RB', 'resp': 'reach'}",2,119,Left,44.52151738344087,41.27980480056751,2.226075869172044,0.6484216575154178,Right,Incorrect,0.0,0.0,-45,45,2006,2213,-0.82
"{'cat': 'RB', 'resp': 'reach'}",2,120,Right,55.43284483542506,50.7177050135561,2.7716422417712527,0.7966718473876102,Right,Correct,0.0,0.0,-45,45,2001,822,-0.82
"{'cat': 'RB', 'resp': 'reach'}",2,121,Left,35.24502357009009,21.83460304092847,1.7622511785045045,0.3429771425371512,Left,Correct,0.0,0.0,-45,45,2007,993,-2.35
"{'cat': 'RB', 'resp': 'reach'}",2,122,Left,37.42603271808949,45.29564504613446,1.8713016359044743,0.7115023285827347,Left,Correct,0.0,0.0,-45,45,2011,1821,-2.41
"{'cat': 'RB', 'resp': 'reach'}",2,123,Right,54.051065096176515,80.25715711642354,2.7025532548088256,1.2606764759747902,Right,Correct,0.0,0.0,-45,45,2001,952,-0.87
"{'cat': 'RB', 'resp': 'reach'}",2,124,Left,48.235226070163534,44.62845475977294,2.411761303508177,0.7010221280718356,Right,Incorrect,0.0,0.0,-45,45,2001,994,-0.88
"{'cat': 'RB', 'resp': 'reach'}",2,125,Left,33.7823013054249,24.46535083663531,1.6891150652712452,0.38430083227935186,Left,Correct,0.0,0.0,-45,45,2012,1212,-2.5
"{'cat': 'RB', 'resp': 'reach'}",2,126,Right,58.00590527779261,85.95840168650491,2.9002952638896304,1.3502314162632216,Right,Correct,0.0,0.0,-45,45,2009,942,-0.84
"{'cat': 'RB', 'resp': 'reach'}",2,127,Right,69.25762304031319,47.02973108560198,3.46288115201566,0.7387412883941534,Right,Correct,0.0,0.0,-45,45,2006,824,-0.79
"{'cat': 'RB', 'resp': 'reach'}",2,128,Left,31.10702814553738,41.63618590086245,1.555351407276869,0.654019678748242,Left,Correct,0.0,0.0,-45,45,2008,1809,-2.44
"{'cat': 'RB', 'resp': 'reach'}",2,129,Right,56.39474513923548,41.75515473978123,2.8197372569617745,0.6558884369000088,Right,Correct,0.0,0.0,-45,45,2005,783,-0.83
"{'cat': 'RB', 'resp': 'reach'}",2,130,Left,32.14519365442479,27.115136005622418,1.6072596827212393,0.4259235603817574,Right,Incorrect,0.0,0.0,-45,45,2003,700,-0.91
"{'cat': 'RB', 'resp': 'reach'}",2,131,Left,43.26582826016598,87.32548103626826,2.163291413008299,1.3717054484736757,Left,Correct,0.0,0.0,-45,45,2007,1282,-2.35
"{'cat': 'RB', 'resp': 'reach'}",2,132,Right,58.329355434394955,57.963138688987684,2.916467771719748,0.91048285342165,Left,Incorrect,0.0,0.0,-45,45,2003,1075,-2.41
"{'cat': 'RB', 'resp': 'reach'}",2,133,Right,67.53285298709523,40.44117424725108,3.3766426493547614,0.6352484795885436,Right,Correct,0.0,0.0,-45,45,2012,729,-0.83
"{'cat': 'RB', 'resp': 'reach'}",2,134,Right,63.16838615548264,35.07167520719755,3.1584193077741314,0.5509045859000955,Right,Correct,0.0,0.0,-45,45,2008,653,-0.85
"{'cat': 'RB', 'resp': 'reach'}",2,135,Right,60.97626916379303,57.442630687434395,3.0488134581896515,0.9023067328525775,Right,Correct,0.0,0.0,-45,45,2003,768,-0.86
"{'cat': 'RB', 'resp': 'reach'}",2,136,Right,66.9983086819757,45.66897473304317,3.3499154340987847,0.7173665775915316,Right,Correct,0.0,0.0,-45,45,2009,701,-0.84
"{'cat': 'RB', 'resp': 'reach'}",2,137,Right,57.650469820047284,63.65163536240789,2.882523491002364,0.9998375502175846,Right,Correct,0.0,0.0,-45,45,2012,991,-0.93
"{'cat': 'RB', 'resp': 'reach'}",2,138,Right,55.20880340455149,14.602647961257745,2.7604401702275743,0.22937785779022654,Right,Correct,0.0,0.0,-45,45,2008,767,-0.91
"{'cat': 'RB', 'resp': 'reach'}",2,139,Right,53.51798192827417,64.7749491460273,2.675899096413708,1.0174825218690589,Right,Correct,0.0,0.0,-45,45,2005,699,-0.92
"{'cat': 'RB', 'resp': 'reach'}",2,140,Right,56.00548892607075,25.418057398554357,2.800274446303537,0.3992659119591102,Right,Correct,0.0,0.0,-45,45,2006,715,-0.9
"{'cat': 'RB', 'resp': 'reach'}",2,141,Left,37.33792161441659,69.65227375711251,1.8668960807208292,1.094095357705849,Left,Correct,0.0,0.0,-45,45,2012,777,-2.41
"{'cat': 'RB', 'resp': 'reach'}",2,142,Right,67.05520090422846,70.58388373772817,3.352760045211423,1.1087290530614144,Right,Correct,0.0,0.0,-45,45,2002,691,-0.79
"{'cat': 'RB', 'resp': 'reach'}",2,143,Right,63.16054671038251,23.807763288220468,3.158027335519126,0.37397147122339097,Right,Correct,0.0,0.0,-45,45,2003,792,-0.87
"{'cat': 'RB', 'resp': 'reach'}",2,144,Left,47.975905976717414,65.7347683835215,2.3987952988358705,1.0325593271954887,Left,Correct,0.0,0.0,-45,45,2005,1003,-2.4
"{'cat': 'RB', 'resp': 'reach'}",2,145,Right,53.3579487272108,31.12657912935243,2.6678974363605397,0.4889351616207748,Right,Correct,0.0,0.0,-45,45,2005,812,-0.82
"{'cat': 'RB', 'resp': 'reach'}",2,146,Left,43.71545451112962,73.35980938330538,2.185772725556481,1.1523331911366987,Left,Correct,0.0,0.0,-45,45,2007,892,-2.43
"{'cat': 'RB', 'resp': 'reach'}",2,147,Right,68.06998470566457,58.80053218792719,3.4034992352832285,0.9236365997438112,Right,Correct,0.0,0.0,-45,45,2011,845,-0.83
"{'cat': 'RB', 'resp': 'reach'}",2,148,Left,39.375094314034726,34.03077534275259,1.9687547157017362,0.5345541690637811,Right,Incorrect,0.0,0.0,-45,45,2002,955,-0.86
"{'cat': 'RB', 'resp': 'reach'}",2,149,Left,37.30260094269123,83.49418776211394,1.8651300471345615,1.3115236344545198,Left,Correct,0.0,0.0,-45,45,2001,1073,-2.42
"{'cat': 'RB', 'resp': 'reach'}",2,150,Left,33.686432014602055,78.26923017353752,1.6843216007301027,1.2294501925765702,Left,Correct,0.0,0.0,-45,45,2008,941,-2.42
"{'cat': 'RB', 'resp': 'reach'}",2,151,Left,45.51121914539089,74.86544287727669,2.2755609572695445,1.175983626754994,Right,Incorrect,0.0,0.0,-45,45,2002,972,-0.83
"{'cat': 'RB', 'resp': 'reach'}",2,152,Right,52.73117584368862,42.40120918340796,2.636558792184431,0.6660366363695924,Left,Incorrect,0.0,0.0,-45,45,2002,7608,-2.48
"{'cat': 'RB', 'resp': 'reach'}",2,153,Right,50.638561523921794,47.05418673300263,2.5319280761960896,0.7391254368052169,Left,Incorrect,0.0,0.0,-45,45,2008,1180,-2.31
"{'cat': 'RB', 'resp': 'reach'}",2,154,Right,56.08242780542476,86.49430309378324,2.804121390271238,1.358649335883992,Right,Correct,0.0,0.0,-45,45,2003,774,-0.77
"{'cat': 'RB', 'resp': 'reach'}",2,155,Right,64.65427098144073,63.26269449667393,3.2327135490720367,0.9937280813852314,Right,Correct,0.0,0.0,-45,45,2008,727,-0.84
"{'cat': 'RB', 'resp': 'reach'}",2,156,Right,59.578153727414666,12.24415333468417,2.9789076863707336,0.19233071082835376,Right,Correct,0.0,0.0,-45,45,2001,782,-0.83
"{'cat': 'RB', 'resp': 'reach'}",2,157,Left,33.0729943584118,32.71416865736549,1.6536497179205898,0.5138729596113845,Left,Correct,0.0,0.0,-45,45,2001,880,-2.43
"{'cat': 'RB', 'resp': 'reach'}",2,158,Left,42.37978920737695,77.26594788838531,2.1189894603688475,1.2136906712940152,Left,Correct,0.0,0.0,-45,45,2007,890,-2.37
"{'cat': 'RB', 'resp': 'reach'}",2,159,Left,46.710871102040514,23.766316949679375,2.335543555102026,0.3733204336599965,Left,Correct,0.0,0.0,-45,45,2006,734,-2.46
"{'cat': 'RB', 'resp': 'reach'}",2,160,Right,62.14576250412699,76.68050637964318,3.10728812520635,1.2044945775791616,Right,Correct,0.0,0.0,-45,45,2010,863,-0.8
"{'cat': 'RB', 'resp': 'reach'}",2,161,Right,63.39027096109823,12.3024746177882,3.169513548054912,0.19324681940109154,Right,Correct,0.0,0.0,-45,45,2003,1005,-1.35
"{'cat': 'RB', 'resp': 'reach'}",2,162,Right,66.91638107345553,40.42686331111278,3.345819053672776,0.6350236839293533,Right,Correct,0.0,0.0,-45,45,2005,847,-0.85
"{'cat': 'RB', 'resp': 'reach'}",2,163,Left,39.024774415801744,32.260430591552016,1.9512387207900872,0.5067456587403162,Left,Correct,0.0,0.0,-45,45,2008,1756,-2.4
"{'cat': 'RB', 'resp': 'reach'}",2,164,Right,59.99246024030109,10.821868861647687,2.9996230120150544,0.1699895185693225,Right,Correct,0.0,0.0,-45,45,2013,1513,-0.86
"{'cat': 'RB', 'resp': 'reach'}",2,165,Right,57.74308872898108,15.638508850004719,2.887154436449054,0.24564912258136892,Right,Correct,0.0,0.0,-45,45,2007,684,-0.89
"{'cat': 'RB', 'resp': 'reach'}",2,166,Right,65.52552695255484,35.740006238594546,3.2762763476277423,0.56140270519211,Right,Correct,0.0,0.0,-45,45,2008,663,-0.9
"{'cat': 'RB', 'resp': 'reach'}",2,167,Left,32.08947305725706,72.8100095636418,1.6044736528628532,1.1436969557646983,Left,Correct,0.0,0.0,-45,45,2005,804,-2.42
"{'cat': 'RB', 'resp': 'reach'}",2,168,Left,39.41168148194772,41.851953291173984,1.9705840740973857,0.6574089449896767,Left,Correct,0.0,0.0,-45,45,2012,2047,-2.36
"{'cat': 'RB', 'resp': 'reach'}",2,169,Right,54.139756584415196,54.16698688153209,2.7069878292207594,0.8508530402705797,Left,Incorrect,0.0,0.0,-45,45,2004,813,-2.46
"{'cat': 'RB', 'resp': 'reach'}",2,170,Right,61.15759253678381,90.49252563078592,3.05787962683919,1.4214532686323156,Right,Correct,0.0,0.0,-45,45,2008,565,-0.82
"{'cat': 'RB', 'resp': 'reach'}",2,171,Left,39.845626147718676,62.004304972037644,1.992281307385934,0.9739613449554727,Left,Correct,0.0,0.0,-45,45,2009,757,-2.31
"{'cat': 'RB', 'resp': 'reach'}",2,172,Left,36.97789893075803,46.330417647765145,1.8488949465379017,0.7277564985998293,Left,Correct,0.0,0.0,-45,45,2003,2273,-2.4
"{'cat': 'RB', 'resp': 'reach'}",2,173,Left,35.24738541557339,20.343905313135334,1.7623692707786693,0.31956131738536164,Right,Incorrect,0.0,0.0,-45,45,2012,2447,-0.83
"{'cat': 'RB', 'resp': 'reach'}",2,174,Right,67.11673301175969,76.41156720010369,3.355836650587985,1.2002700908256427,Left,Incorrect,0.0,0.0,-45,45,2002,641,-2.39
"{'cat': 'RB', 'resp': 'reach'}",2,175,Left,33.04253864106457,22.52163266781497,1.6521269320532284,0.353768978680277,Left,Correct,0.0,0.0,-45,45,2003,725,-2.41
"{'cat': 'RB', 'resp': 'reach'}",2,176,Left,48.24431966369951,30.107018979227906,2.4122159831849754,0.4729199482331543,Right,Incorrect,0.0,0.0,-45,45,2009,1372,-0.85
"{'cat': 'RB', 'resp': 'reach'}",2,177,Left,36.949189321242365,29.128822561437183,1.8474594660621182,0.45755447483365835,Right,Incorrect,0.0,0.0,-45,45,2012,1650,-0.89
"{'cat': 'RB', 'resp': 'reach'}",2,178,Right,63.85331481033004,42.742816824586626,3.1926657405165018,0.6714025966492778,Right,Correct,0.0,0.0,-45,45,2004,899,-0.93
"{'cat': 'RB', 'resp': 'reach'}",2,179,Left,43.147788695858566,70.24316504961993,2.157389434792928,1.1033770564239065,Left,Correct,0.0,0.0,-45,45,2008,1069,-2.43
"{'cat': 'RB', 'resp': 'reach'}",2,180,Right,63.9812360395411,21.648912870366622,3.199061801977055,0.34006032815874654,Right,Correct,0.0,0.0,-45,45,2004,955,-0.85
"{'cat': 'RB', 'resp': 'reach'}",2,181,Left,40.55080273459202,16.767489492894605,2.027540136729601,0.2633831090501087,Left,Correct,0.0,0.0,-45,45,2006,1932,-2.46
"{'cat': 'RB', 'resp': 'reach'}",2,182,Left,33.76151113238936,74.04848083234543,1.6880755566194678,1.1631508169619051,Right,Incorrect,0.0,0.0,-45,45,2007,819,-0.8
"{'cat': 'RB', 'resp': 'reach'}",2,183,Left,34.397283943323714,83.31789230589496,1.7198641971661857,1.3087543919039257,Left,Correct,0.0,0.0,-45,45,2009,1424,-2.36
"{'cat': 'RB', 'resp': 'reach'}",2,184,Right,58.88561205824549,71.97602821606336,2.9442806029122743,1.1305968073907815,Right,Correct,0.0,0.0,-45,45,2003,781,-0.8
"{'cat': 'RB', 'resp': 'reach'}",2,185,Right,66.9201608720566,23.645396604412294,3.34600804360283,0.37142102131819354,Right,Correct,0.0,0.0,-45,45,2004,924,-0.85
"{'cat': 'RB', 'resp': 'reach'}",2,186,Left,33.18829923826703,43.759498971059394,1.6594149619133516,0.6873726024612515,Left,Correct,0.0,0.0,-45,45,2001,1066,-2.39
"{'cat': 'RB', 'resp': 'reach'}",2,187,Left,36.04899767845528,24.0909524451835,1.802449883922764,0.37841979609884774,Left,Correct,0.0,0.0,-45,45,2001,5829,-2.45
"{'cat': 'RB', 'resp': 'reach'}",2,188,Left,33.05721456575478,43.60579301048299,1.6528607282877388,0.6849581948784527,Left,Correct,0.0,0.0,-45,45,2006,1464,-2.37
"{'cat': 'RB', 'resp': 'reach'}",2,189,Right,54.45820869293091,20.09588693703229,2.722910434646545,0.31566545384375866,Right,Correct,0.0,0.0,-45,45,2002,964,-0.86
"{'cat': 'RB', 'resp': 'reach'}",2,190,Right,58.959364889057206,86.354252746095,2.94796824445286,1.3564494301668413,Right,Correct,0.0,0.0,-45,45,2006,2108,-0.85
"{'cat': 'RB', 'resp': 'reach'}",2,191,Left,38.205585850282446,23.125554428473787,1.910279292514122,0.3632553595134208,Left,Correct,0.0,0.0,-45,45,2004,1414,-2.38
"{'cat': 'RB', 'resp': 'reach'}",2,192,Right,60.73374991082068,58.079093490482656,3.0366874955410337,0.9123042671842754,Right,Correct,0.0,0.0,-45,45,2004,776,-0.81
"{'cat': 'RB', 'resp': 'reach'}",2,193,Right,54.73118891015223,50.33307620852302,2.7365594455076114,0.7906301122463556,Right,Correct,0.0,0.0,-45,45,2007,862,-0.91
"{'cat': 'RB', 'resp': 'reach'}",2,194,Right,58.24171373730041,69.99076415465159,2.9120856868650202,1.0994123524369463,Right,Correct,0.0,0.0,-45,45,2009,651,-0.91
"{'cat': 'RB', 'resp': 'reach'}",2,195,Right,60.50243340913642,11.895779771598022,3.025121670456821,0.18685847169587208,Right,Correct,0.0,0.0,-45,45,2008,755,-0.9
"{'cat': 'RB', 'resp': 'reach'}",2,196,Right,60.556235039124296,52.942569252393376,3.027811751956215,0.8316199331274395,Right,Correct,0.0,0.0,-45,45,2012,784,-0.92
"{'cat': 'RB', 'resp': 'reach'}",2,197,Left,40.309686837071425,40.944498469495194,2.015484341853571,0.6431546779834231,Left,Correct,0.0,0.0,-45,45,2007,940,-2.27
"{'cat': 'RB', 'resp': 'reach'}",2,198,Right,67.3187236142842,73.83458639150759,3.3659361807142094,1.1597909709420058,Right,Correct,0.0,0.0,-45,45,2008,749,-0.93
"{'cat': 'RB', 'resp': 'reach'}",2,199,Right,60.76057405490644,78.45937298752735,3.038028702745322,1.2324369489143867,Right,Correct,0.0,0.0,-45,45,2007,667,-0.78
"{'cat': 'RB', 'resp': 'reach'}",2,200,Left,42.633315052651106,71.23768592103661,2.1316657526325553,1.1189989537413285,Left,Correct,0.0,0.0,-45,45,2003,1070,-2.35
"{'cat': 'RB', 'resp': 'reach'}",2,201,Right,67.12721708717721,48.8307585136267,3.3563608543588606,0.7670317610781342,Right,Correct,0.0,0.0,-45,45,2003,796,-0.91
"{'cat': 'RB', 'resp': 'reach'}",2,202,Right,56.168748266840936,14.333283721309016,2.8084374133420464,0.2251466942034129,Left,Incorrect,0.0,0.0,-45,45,2009,1945,-2.43
"{'cat': 'RB', 'resp': 'reach'}",2,203,Left,47.0322920932582,38.938550580529295,2.35161460466291,0.6116453222261271,Left,Correct,0.0,0.0,-45,45,2004,1476,-2.33
"{'cat': 'RB', 'resp': 'reach'}",2,204,Left,35.538173190783986,52.8937799847338,1.7769086595391994,0.8308535531031728,Left,Correct,0.0,0.0,-45,45,2009,3040,-2.41
"{'cat': 'RB', 'resp': 'reach'}",2,205,Left,41.23887837675629,86.7005042661991,2.0619439188378146,1.361888336326108,Left,Correct,0.0,0.0,-45,45,2007,878,-2.36
"{'cat': 'RB', 'resp': 'reach'}",2,206,Left,40.7278300390386,22.66727765550311,2.03639150195193,0.35605676479704323,Left,Correct,0.0,0.0,-45,45,2008,926,-2.4
"{'cat': 'RB', 'resp': 'reach'}",2,207,Right,58.71144649960932,26.09356585956011,2.935572324980466,0.40987677405177736,Right,Correct,0.0,0.0,-45,45,2008,1192,-1.42
"{'cat': 'RB', 'resp': 'reach'}",2,208,Left,36.754645645747495,50.49608601418804,1.8377322822873747,0.7931906642860571,Left,Correct,0.0,0.0,-45,45,2006,1010,-2.3
"{'cat': 'RB', 'resp': 'reach'}",2,209,Right,55.50221135366335,17.102562350113658,2.7751105676831673,0.26864642118339227,Right,Correct,0.0,0.0,-45,45,2008,1000,-0.89
"{'cat': 'RB', 'resp': 'reach'}",2,210,Left,34.513985932580425,40.62757351424091,1.7256992966290212,0.6381764324275924,Left,Correct,0.0,0.0,-45,45,2012,608,-2.41
"{'cat': 'RB', 'resp': 'reach'}",2,211,Left,45.78127323755725,74.52794478560944,2.289063661877863,1.1706822191280817,Left,Correct,0.0,0.0,-45,45,2001,1048,-2.4
"{'cat': 'RB', 'resp': 'reach'}",2,212,Left,33.83651041530051,61.38178128966257,1.6918255207650252,0.9641827658192966,Left,Correct,0.0,0.0,-45,45,2001,785,-2.32
"{'cat': 'RB', 'resp': 'reach'}",2,213,Left,36.759165318962424,41.58481241681121,1.8379582659481213,0.6532127059478186,Left,Correct,0.0,0.0,-45,45,2007,931,-2.36
"{'cat': 'RB', 'resp': 'reach'}",2,214,Left,34.90010780150984,21.62459506663858,1.745005390075492,0.3396783449910293,Right,Incorrect,0.0,0.0,-45,45,2008,722,-0.89
"{'cat': 'RB', 'resp': 'reach'}",2,215,Left,48.866366187011494,36.52315782124891,2.4433183093505746,0.5737044214856809,Right,Incorrect,0.0,0.0,-45,45,2001,672,-0.92
"{'cat': 'RB', 'resp': 'reach'}",2,216,Right,59.87851386909684,57.64937382124902,2.9939256934548424,0.9055542464044384,Right,Correct,0.0,0.0,-45,45,2003,928,-0.84
"{'cat': 'RB', 'resp': 'reach'}",2,217,Right,56.2125852980343,13.756921808845355,2.810629264901715,0.21609322245338888,Right,Correct,0.0,0.0,-45,45,2007,660,-0.84
"{'cat': 'RB', 'resp': 'reach'}",2,218,Left,37.56134985740543,70.6062744281139,1.8780674928702716,1.1090807652035377,Left,Correct,0.0,0.0,-45,45,2006,940,-2.38
"{'cat': 'RB', 'resp': 'reach'}",2,219,Left,39.453482819861605,78.30655474153119,1.9726741409930804,1.2300364855196069,Left,Correct,0.0,0.0,-45,45,2001,882,-2.38
"{'cat': 'RB', 'resp': 'reach'}",2,220,Right,61.267604848503886,30.835543832427977,3.0633802424251946,0.484363589867009,Right,Correct,0.0,0.0,-45,45,2004,819,-0.85
"{'cat': 'RB', 'resp': 'reach'}",2,221,Left,48.76037920226246,55.600934090998905,2.4380189601131232,0.8733774303650623,Right,Incorrect,0.0,0.0,-45,45,2005,893,-0.82
"{'cat': 'RB', 'resp': 'reach'}",2,222,Left,46.61971608389718,32.65229344631634,2.330985804194859,0.5129010260690279,Right,Incorrect,0.0,0.0,-45,45,2008,985,-0.87
"{'cat': 'RB', 'resp': 'reach'}",2,223,Left,37.650322884593805,56.33039451576821,1.8825161442296903,0.8848357679227609,Left,Correct,0.0,0.0,-45,45,2004,2626,-2.39
"{'cat': 'RB', 'resp': 'reach'}",2,224,Right,53.97416716965391,56.87911236720107,2.698708358482696,0.8934550077775361,Left,Incorrect,0.0,0.0,-45,45,2006,899,-2.39
"{'cat': 'RB', 'resp': 'reach'}",2,225,Right,54.875544888530214,19.504902666170416,2.7437772444265107,0.30638229462512473,Right,Correct,0.0,0.0,-45,45,2007,692,-0.89
"{'cat': 'RB', 'resp': 'reach'}",2,226,Right,63.37941520994423,25.18509636493198,3.1689707604972113,0.39560656860010657,Right,Correct,0.0,0.0,-45,45,2001,733,-0.9
"{'cat': 'RB', 'resp': 'reach'}",2,227,Right,50.657887056351115,55.56699020727511,2.532894352817556,0.8728442410863574,Left,Incorrect,0.0,0.0,-45,45,2004,1321,-2.37
"{'cat': 'RB', 'resp': 'reach'}",2,228,Right,52.71353609699844,44.9577389825639,2.635676804849922,0.7061945125481511,Left,Incorrect,0.0,0.0,-45,45,2009,1328,-2.41
"{'cat': 'RB', 'resp': 'reach'}",2,229,Left,37.96932728231398,87.90917795799494,1.8984663641156987,1.3808741382797733,Left,Correct,0.0,0.0,-45,45,2006,1040,-2.39
"{'cat': 'RB', 'resp': 'reach'}",2,230,Right,59.123510016682836,17.752584264004916,2.9561755008341417,0.278856941530158,Right,Correct,0.0,0.0,-45,45,2005,928,-0.89
"{'cat': 'RB', 'resp': 'reach'}",2,231,Left,39.04757456617372,76.1017692192962,1.9523787283086862,1.1954037955226338,Left,Correct,0.0,0.0,-45,45,2008,1255,-2.39
"{'cat': 'RB', 'resp': 'reach'}",2,232,Left,32.66678471346062,64.0815584170625,1.6333392356730312,1.0065907657681437,Right,Incorrect,0.0,0.0,-45,45,2011,474,-0.85
"{'cat': 'RB', 'resp': 'reach'}",2,233,Left,41.52517257265781,53.83161448443998,2.076258628632891,0.8455850229759727,Left,Correct,0.0,0.0,-45,45,2015,1618,-2.34
"{'cat': 'RB', 'resp': 'reach'}",2,234,Left,46.69394867279895,45.39380519020431,2.3346974336399478,0.7130442245201604,Right,Incorrect,0.0,0.0,-45,45,2001,825,-0.91
"{'cat': 'RB', 'resp': 'reach'}",2,235,Right,58.266731408450724,88.65455161376934,2.913336570422536,1.3925824402855744,Right,Correct,0.0,0.0,-45,45,2008,868,-0.9
"{'cat': 'RB', 'resp': 'reach'}",2,236,Left,44.37594989108614,55.226035227104944,2.2187974945543067,0.8674885327818201,Right,Incorrect,0.0,0.0,-45,45,2008,810,-0.87
"{'cat': 'RB', 'resp': 'reach'}",2,237,Left,46.788906052271884,52.07127778672435,2.339445302613594,0.8179337187890331,Right,Incorrect,0.0,0.0,-45,45,2005,975,-0.87
"{'cat': 'RB', 'resp': 'reach'}",2,238,Right,61.740561968548704,60.406820072881,3.087028098427435,0.9488681108384169,Right,Correct,0.0,0.0,-45,45,2003,850,-0.9
"{'cat': 'RB', 'resp': 'reach'}",2,239,Right,59.045462583466495,38.29178968170442,2.952273129173325,0.6014860257842404,Right,Correct,0.0,0.0,-45,45,2008,791,-0.85
"{'cat': 'RB', 'resp': 'reach'}",2,240,Left,44.608459362217296,37.60687760475564,2.2304229681108647,0.5907274520377542,Left,Correct,0.0,0.0,-45,45,2004,921,-2.46
"{'cat': 'RB', 'resp': 'reach'}",2,241,Right,65.97786322902479,68.63949475377345,3.29889316145124,1.078186662322849,Right,Correct,0.0,0.0,-45,45,2006,747,-0.88
"{'cat': 'RB', 'resp': 'reach'}",2,242,Right,54.536025833014946,22.77803365911765,2.726801291650747,0.35779651603352525,Right,Correct,0.0,0.0,-45,45,2004,2264,-0.82
"{'cat': 'RB', 'resp': 'reach'}",2,243,Left,44.84391977322606,28.221467017266537,2.2421959886613028,0.44330176727485604,Right,Incorrect,0.0,0.0,-45,45,2011,795,-0.83
"{'cat': 'RB', 'resp': 'reach'}",2,244,Right,62.99677707159594,10.910789639989424,3.149838853579797,0.17138628288927202,Right,Correct,0.0,0.0,-45,45,2003,737,-0.85
"{'cat': 'RB', 'resp': 'reach'}",2,245,Right,64.9389985951302,74.23124338675882,3.2469499297565103,1.166021644453387,Right,Correct,0.0,0.0,-45,45,2003,797,-0.88
"{'cat': 'RB', 'resp': 'reach'}",2,246,Right,56.467052542195596,22.266899128078936,2.82335262710978,0.3497676335949888,Right,Correct,0.0,0.0,-45,45,2009,729,-0.85
"{'cat': 'RB', 'resp': 'reach'}",2,247,Left,31.722380605963053,30.432010903096778,1.5861190302981527,0.47802490943566656,Left,Correct,0.0,0.0,-45,45,2008,1138,-2.41
"{'cat': 'RB', 'resp': 'reach'}",2,248,Left,36.37888541073288,41.76631090107717,1.818944270536644,0.6560636774718566,Right,Incorrect,0.0,0.0,-45,45,2008,796,-0.92
"{'cat': 'RB', 'resp': 'reach'}",2,249,Right,58.17267742915028,19.073431118150413,2.908633871457514,0.29960475539766146,Right,Correct,0.0,0.0,-45,45,2014,1826,-0.91
"{'cat': 'RB', 'resp': 'reach'}",2,250,Left,41.048088498564596,31.160034870819327,2.0524044249282296,0.4894606831788388,Left,Correct,0.0,0.0,-45,45,2006,998,-2.42
"{'cat': 'RB', 'resp': 'reach'}",2,251,Left,44.59852492886995,27.516367881616397,2.2299262464434975,0.432226095951801,Left,Correct,0.0,0.0,-45,45,2011,1494,-2.47
"{'cat': 'RB', 'resp': 'reach'}",2,252,Right,65.5094375930165,50.64963978594384,3.275471879650825,0.7956026812924524,Right,Correct,0.0,0.0,-45,45,2002,874,-0.87
"{'cat': 'RB', 'resp': 'reach'}",2,253,Left,46.48552859858309,78.93941447039518,2.3242764299291543,1.2399774228943667,Left,Correct,0.0,0.0,-45,45,2010,1624,-2.49
"{'cat': 'RB', 'resp': 'reach'}",2,254,Left,40.496199603212034,53.5543392430484,2.024809980160602,0.8412295936690821,Left,Correct,0.0,0.0,-45,45,2003,1032,-2.27
"{'cat': 'RB', 'resp': 'reach'}",2,255,Right,60.40542498843251,26.693251743816713,3.0202712494216253,0.41929661789398764,Right,Correct,0.0,0.0,-45,45,2007,730,-0.92
"{'cat': 'RB', 'resp': 'reach'}",2,256,Left,45.375808775763296,28.651826725746517,2.2687904387881646,0.45006184176766484,Left,Correct,0.0,0.0,-45,45,2006,1080,-2.34
"{'cat': 'RB', 'resp': 'reach'}",2,257,Left,46.50654237164235,20.166162722543568,2.3253271185821176,0.31676934330119605,Left,Correct,0.0,0.0,-45,45,2004,819,-2.32
"{'cat': 'RB', 'resp': 'reach'}",2,258,Right,57.51258635660541,11.614120757772532,2.8756293178302705,0.18243418225261457,Right,Correct,0.0,0.0,-45,45,2005,845,-0.84
"{'cat': 'RB', 'resp': 'reach'}",2,259,Right,64.02396413757249,76.2535703857997,3.201198206878624,1.197788282670103,Right,Correct,0.0,0.0,-45,45,2009,853,-0.88
"{'cat': 'RB', 'resp': 'reach'}",2,260,Left,38.21280001428928,83.82258923742437,1.910640000714464,1.3166821527658366,Left,Correct,0.0,0.0,-45,45,2002,668,-2.44
"{'cat': 'RB', 'resp': 'reach'}",2,261,Right,51.866067496427476,63.974967232119454,2.593303374821374,1.004916435350371,Left,Incorrect,0.0,0.0,-45,45,2008,983,-2.36
"{'cat': 'RB', 'resp': 'reach'}",2,262,Left,36.8468596700724,17.884897307058793,1.84234298350362,0.2809353099503189,Left,Correct,0.0,0.0,-45,45,2005,1250,-2.4
"{'cat': 'RB', 'resp': 'reach'}",2,263,Left,31.119492164469545,43.99199205349568,1.5559746082234773,0.6910245952602129,Left,Correct,0.0,0.0,-45,45,2008,4779,-2.42
"{'cat': 'RB', 'resp': 'reach'}",2,264,Left,45.41465057198352,51.86880951813613,2.270732528599176,0.814753354663124,Right,Incorrect,0.0,0.0,-45,45,2009,1260,-0.86
"{'cat': 'RB', 'resp': 'reach'}",2,265,Right,60.39194671830464,85.47913982095574,3.019597335915232,1.3427031884834464,Right,Correct,0.0,0.0,-45,45,2005,932,-0.88
"{'cat': 'RB', 'resp': 'reach'}",2,266,Left,36.34967746133813,59.3319300367109,1.8174838730669065,0.9319837776331729,Left,Correct,0.0,0.0,-45,45,2008,951,-2.52
"{'cat': 'RB', 'resp': 'reach'}",2,267,Right,62.755109924952855,39.24760960944791,3.137755496247643,0.6165000101000088,Right,Correct,0.0,0.0,-45,45,2001,898,-0.89
"{'cat': 'RB', 'resp': 'reach'}",2,268,Left,33.02243821596795,27.412061904104704,1.6511219107983977,0.4305876614884198,Left,Correct,0.0,0.0,-45,45,2003,890,-2.48
"{'cat': 'RB', 'resp': 'reach'}",2,269,Right,59.481949404924386,70.57218928646682,2.9740974702462193,1.1085453570505623,Right,Correct,0.0,0.0,-45,45,2006,839,-0.94
"{'cat': 'RB', 'resp': 'reach'}",2,270,Right,53.69317325260144,52.701680203696725,2.6846586626300724,0.8278360567988614,Right,Correct,0.0,0.0,-45,45,2006,867,-0.95
"{'cat': 'RB', 'resp': 'reach'}",2,271,Left,37.45832877993416,35.85423055832855,1.8729164389967081,0.5631969366107983,Left,Correct,0.0,0.0,-45,45,2006,1094,-2.37
"{'cat': 'RB', 'resp': 'reach'}",2,272,Right,58.48067643316703,65.97004440609508,2.9240338216583512,1.0362550343159036,Right,Correct,0.0,0.0,-45,45,2011,1807,-0.88
"{'cat': 'RB', 'resp': 'reach'}",2,273,Right,69.03757802306446,59.75472496919329,3.4518789011532225,0.9386250249024812,Right,Correct,0.0,0.0,-45,45,2002,889,-0.86
"{'cat': 'RB', 'resp': 'reach'}",2,274,Left,47.54552859311902,29.028956290849017,2.3772764296559514,0.4559857791235524,Left,Correct,0.0,0.0,-45,45,2003,2006,-2.32
"{'cat': 'RB', 'resp': 'reach'}",2,275,Left,32.70636719174151,65.4269005574172,1.6353183595870757,1.027723350691659,Left,Correct,0.0,0.0,-45,45,2002,928,-2.42
"{'cat': 'RB', 'resp': 'reach'}",2,276,Right,67.78410885022922,53.9425610194476,3.3892054425114613,0.8473277670725788,Right,Correct,0.0,0.0,-45,45,2008,757,-0.86
"{'cat': 'RB', 'resp': 'reach'}",2,277,Left,37.82010902692162,89.95483869242177,1.891005451346081,1.4130073019548357,Left,Correct,0.0,0.0,-45,45,2004,1055,-2.34
"{'cat': 'RB', 'resp': 'reach'}",2,278,Left,42.12600896927608,43.67381023742243,2.106300448463804,0.686026606980805,Left,Correct,0.0,0.0,-45,45,2011,2154,-2.4
"{'cat': 'RB', 'resp': 'reach'}",2,279,Right,67.48962056557869,50.03149092886661,3.374481028278934,0.7858928217513586,Right,Correct,0.0,0.0,-45,45,2004,755,-0.9
"{'cat': 'RB', 'resp': 'reach'}",2,280,Left,45.04678371554754,39.129918004850595,2.252339185777377,0.614651314698048,Right,Incorrect,0.0,0.0,-45,45,2005,1016,-0.92
"{'cat': 'RB', 'resp': 'reach'}",2,281,Right,63.400825540150564,19.453582196127844,3.170041277007528,0.3055761545668021,Right,Correct,0.0,0.0,-45,45,2002,769,-0.92
"{'cat': 'RB', 'resp': 'reach'}",2,282,Right,59.47374904431537,49.000803465480175,2.9736874522157684,0.769702820935749,Right,Correct,0.0,0.0,-45,45,2011,974,-0.92
"{'cat': 'RB', 'resp': 'reach'}",2,283,Left,37.262387335386755,66.68634065288751,1.8631193667693378,1.0475065894494888,Left,Correct,0.0,0.0,-45,45,2004,1246,-2.34
"{'cat': 'RB', 'resp': 'reach'}",2,284,Left,32.99928074930108,36.88274000143443,1.649964037465054,0.579352725163844,Left,Correct,0.0,0.0,-45,45,2010,1450,-2.46
"{'cat': 'RB', 'resp': 'reach'}",2,285,Left,45.00230404479111,59.32722881429643,2.2501152022395554,0.9319099310041717,Left,Correct,0.0,0.0,-45,45,2003,2588,-2.28
"{'cat': 'RB', 'resp': 'reach'}",2,286,Right,64.93080092476933,68.07047685162759,3.2465400462384664,1.0692485500171367,Right,Correct,0.0,0.0,-45,45,2006,800,-0.85
"{'cat': 'RB', 'resp': 'reach'}",2,287,Right,58.35694909546465,15.608268887277973,2.9178474547732325,0.24517411435763306,Right,Correct,0.0,0.0,-45,45,2011,745,-0.86
"{'cat': 'RB', 'resp': 'reach'}",2,288,Right,57.44439308872612,35.450240412123264,2.872219654436306,0.5568510742335923,Right,Correct,0.0,0.0,-45,45,2008,680,-0.86
"{'cat': 'RB', 'resp': 'reach'}",2,289,Right,52.48399616274911,34.39279070063901,2.6241998081374556,0.5402406930078943,Right,Correct,0.0,0.0,-45,45,2002,827,-0.86
"{'cat': 'RB', 'resp': 'reach'}",2,290,Right,61.446446067143974,59.92534959157678,3.0723223033571987,0.9413051902034886,Right,Correct,0.0,0.0,-45,45,2007,819,-0.88
"{'cat': 'RB', 'resp': 'reach'}",2,291,Right,53.591819703851556,54.46432407514477,2.679590985192578,0.8555236019860426,Left,Incorrect,0.0,0.0,-45,45,2003,2668,-2.01
"{'cat': 'RB', 'resp': 'reach'}",2,292,Right,60.50027975929606,72.56001684108959,3.0250139879648033,1.1397700792615937,Right,Correct,0.0,0.0,-45,45,2006,996,-0.89
"{'cat': 'RB', 'resp': 'reach'}",2,293,Right,61.904042924470346,65.2922400563,3.0952021462235173,1.0256081084864666,Right,Correct,0.0,0.0,-45,45,2002,720,-0.87
"{'cat': 'RB', 'resp': 'reach'}",2,294,Right,62.32635132475576,82.23766529682689,3.116317566237788,1.2917862257244381,Right,Correct,0.0,0.0,-45,45,2008,854,-0.98
"{'cat': 'RB', 'resp': 'reach'}",2,295,Left,48.114711379602355,66.83647139830134,2.4057355689801176,1.0498648376838393,Right,Incorrect,0.0,0.0,-45,45,2006,697,-0.93
"{'cat': 'RB', 'resp': 'reach'}",2,296,Left,33.156365178772376,60.408665827810694,1.6578182589386188,0.9488971038890543,Left,Correct,0.0,0.0,-45,45,2001,1462,-2.0
"{'cat': 'RB', 'resp': 'reach'}",2,297,Left,33.50228675782624,38.45401718736461,1.6751143378913123,0.6040342894842016,Left,Correct,0.0,0.0,-45,45,2008,899,-1.88
"{'cat': 'RB', 'resp': 'reach'}",2,298,Left,39.14983331050611,21.152294709880138,1.9574916655253054,0.33225946833562836,Left,Correct,0.0,0.0,-45,45,2008,907,-1.66
"{'cat': 'RB', 'resp': 'reach'}",2,299,Right,51.860476558548875,64.14236119476968,2.5930238279274436,1.0075458535669573,Left,Incorrect,0.0,0.0,-45,45,2003,1179,-2.24
"{'cat': 'RB', 'resp': 'reach'}",2,300,Left,45.89568901191773,43.29194524400468,2.2947844505958868,0.6800282856908834,Left,Correct,0.0,0.0,-45,45,2007,2192,-2.22
"{'cat': 'RB', 'resp': 'reach'}",2,301,Right,59.950633444810805,69.83453977647184,2.9975316722405405,1.0969583856429408,Right,Correct,0.0,0.0,-45,45,2007,5681,-0.9
"{'cat': 'RB', 'resp': 'reach'}",2,302,Left,47.16833642616819,53.249148713789126,2.3584168213084094,0.8364356720457514,Right,Incorrect,0.0,0.0,-45,45,2012,1330,-0.86
"{'cat': 'RB', 'resp': 'reach'}",2,303,Right,62.11147816317693,42.486486017026316,3.105573908158847,0.6673761617396767,Right,Correct,0.0,0.0,-45,45,2005,816,-0.87
"{'cat': 'RB', 'resp': 'reach'}",2,304,Right,55.39109624671162,82.45607057673828,2.769554812335581,1.2952169278388124,Right,Correct,0.0,0.0,-45,45,2001,1332,-0.96
"{'cat': 'RB', 'resp': 'reach'}",2,305,Right,55.84391131407468,74.9529968916186,2.792195565703734,1.177358921996238,Right,Correct,0.0,0.0,-45,45,2009,729,-0.94
"{'cat': 'RB', 'resp': 'reach'}",2,306,Right,65.03475565735442,35.17559425918812,3.251737782867721,0.5525369425516033,Right,Correct,0.0,0.0,-45,45,2013,787,-0.93
"{'cat': 'RB', 'resp': 'reach'}",2,307,Left,41.319272792650146,62.81482548115434,2.0659636396325074,0.9866929713405971,Left,Correct,0.0,0.0,-45,45,2008,914,-2.37
"{'cat': 'RB', 'resp': 'reach'}",2,308,Left,41.683268214478574,57.32770228131009,2.084163410723929,0.900501441670733,Left,Correct,0.0,0.0,-45,45,2003,2050,-2.3
"{'cat': 'RB', 'resp': 'reach'}",2,309,Right,51.959965361832545,37.49532485745584,2.597998268091627,0.5889751855807301,Right,Correct,0.0,0.0,-45,45,2013,771,-0.83
"{'cat': 'RB', 'resp': 'reach'}",2,310,Right,52.21642443653728,61.80686189329371,2.610821221826864,0.9708599163270522,Right,Correct,0.0,0.0,-45,45,2011,975,-0.86
"{'cat': 'RB', 'resp': 'reach'}",2,311,Right,52.216435926038784,70.79599755745386,2.6108217963019396,1.1120609291502899,Right,Correct,0.0,0.0,-45,45,2002,903,-0.88
"{'cat': 'RB', 'resp': 'reach'}",2,312,Left,40.481843363795726,38.30524231733453,2.024092168189786,0.6016973392905752,Left,Correct,0.0,0.0,-45,45,2007,1720,-1.99
"{'cat': 'RB', 'resp': 'reach'}",2,313,Left,35.3866458500978,82.99681985681113,1.76933229250489,1.3037109976673664,Left,Correct,0.0,0.0,-45,45,2001,883,-2.41
"{'cat': 'RB', 'resp': 'reach'}",2,314,Right,59.293958483178834,41.209779444853396,2.964697924158942,0.6473217018000355,Right,Correct,0.0,0.0,-45,45,2003,856,-0.95
"{'cat': 'RB', 'resp': 'reach'}",2,315,Left,48.60681456441555,49.540017471305866,2.4303407282207776,0.7781727747328225,Left,Correct,0.0,0.0,-45,45,2006,2455,-1.98
"{'cat': 'RB', 'resp': 'reach'}",2,316,Right,65.49875472096548,17.967264612734375,3.2749377360482743,0.2822291325623509,Right,Correct,0.0,0.0,-45,45,2009,934,-0.88
"{'cat': 'RB', 'resp': 'reach'}",2,317,Left,44.00674851514985,28.428553774021506,2.2003374257574926,0.4465546784432417,Left,Correct,0.0,0.0,-45,45,2003,1119,-1.72
"{'cat': 'RB', 'resp': 'reach'}",2,318,Right,57.84156001092948,58.19737166710584,2.892078000546474,0.9141621764380725,Right,Correct,0.0,0.0,-45,45,2002,1561,-0.95
"{'cat': 'RB', 'resp': 'reach'}",2,319,Right,59.128477456201566,12.755994723892208,2.956423872810078,0.2003706965690496,Right,Correct,0.0,0.0,-45,45,2003,983,-0.83
"{'cat': 'RB', 'resp': 'reach'}",2,320,Right,55.34039628179455,70.63011325415509,2.7670198140897275,1.1094552246073435,Right,Correct,0.0,0.0,-45,45,2003,2592,-0.76
"{'cat': 'RB', 'resp': 'reach'}",2,321,Left,44.37678349916356,77.44641380914229,2.218839174958178,1.2165254233483824,Left,Correct,0.0,0.0,-45,45,2012,894,-2.51
"{'cat': 'RB', 'resp': 'reach'}",2,322,Left,45.85841275410041,59.40571299866904,2.2929206377050204,0.9331427576894116,Right,Incorrect,0.0,0.0,-45,45,2006,830,-0.83
"{'cat': 'RB', 'resp': 'reach'}",2,323,Right,61.36395130067674,71.10388996479824,3.068197565033837,1.116897291775336,Right,Correct,0.0,0.0,-45,45,2002,879,-0.85
"{'cat': 'RB', 'resp': 'reach'}",2,324,Left,35.26470875216149,16.43699469271722,1.7632354376080743,0.25819170886867415,Left,Correct,0.0,0.0,-45,45,2010,2977,-2.46
"{'cat': 'RB', 'resp': 'reach'}",2,325,Right,56.56319561623224,15.73210147913688,2.828159780811612,0.2471192721619277,Right,Correct,0.0,0.0,-45,45,2001,732,-0.81
"{'cat': 'RB', 'resp': 'reach'}",2,326,Left,38.95514939040584,73.11774917732217,1.9477574695202922,1.148530918312482,Left,Correct,0.0,0.0,-45,45,2004,1058,-2.38
"{'cat': 'RB', 'resp': 'reach'}",2,327,Right,58.35859660934996,43.09907549192576,2.917929830467498,0.6769986947097293,Right,Correct,0.0,0.0,-45,45,2005,927,-0.81
"{'cat': 'RB', 'resp': 'reach'}",2,328,Right,64.59292752981099,22.165595519369667,3.2296463764905496,0.3481763602304729,Right,Correct,0.0,0.0,-45,45,2002,899,-0.79
"{'cat': 'RB', 'resp': 'reach'}",2,329,Right,63.642217961234685,43.39694864924745,3.1821108980617345,0.6816776753234464,Left,Incorrect,0.0,0.0,-45,45,2006,865,-2.36
"{'cat': 'RB', 'resp': 'reach'}",2,330,Right,67.63462855829866,49.54591484855519,3.381731427914933,0.7782654105180321,Right,Correct,0.0,0.0,-45,45,2007,786,-0.8
"{'cat': 'RB', 'resp': 'reach'}",2,331,Left,33.09359628415399,42.648932443670105,1.6546798142076995,0.669927864242407,Left,Correct,0.0,0.0,-45,45,2006,919,-2.4
"{'cat': 'RB', 'resp': 'reach'}",2,332,Right,64.45033238355633,67.2880281362402,3.2225166191778163,1.0569578743367778,Right,Correct,0.0,0.0,-45,45,2007,780,-0.82
"{'cat': 'RB', 'resp': 'reach'}",2,333,Right,59.7789585820196,90.48786869736196,2.9889479291009797,1.4213801176931509,Right,Correct,0.0,0.0,-45,45,2002,1883,-0.8
"{'cat': 'RB', 'resp': 'reach'}",2,334,Right,56.9978595986977,83.4527432887734,2.849892979934885,1.310872626189627,Right,Correct,0.0,0.0,-45,45,2003,1101,-0.83
"{'cat': 'RB', 'resp': 'reach'}",2,335,Left,44.94299264103045,44.908314896462144,2.2471496320515225,0.7054181608191128,Left,Correct,0.0,0.0,-45,45,2007,1848,-2.38
"{'cat': 'RB', 'resp': 'reach'}",2,336,Right,62.18364667043249,72.5447667293582,3.109182333521624,1.1395305310666848,Right,Correct,0.0,0.0,-45,45,2005,1195,-0.77
"{'cat': 'RB', 'resp': 'reach'}",2,337,Left,44.05621279153516,41.80832459419882,2.202810639576758,0.6567236270201624,Left,Correct,0.0,0.0,-45,45,2006,2722,-2.28
"{'cat': 'RB', 'resp': 'reach'}",2,338,Right,62.804520396502184,24.071914087121332,3.1402260198251093,0.37812074226972514,Right,Correct,0.0,0.0,-45,45,2006,786,-0.75
"{'cat': 'RB', 'resp': 'reach'}",2,339,Right,64.08471307601097,31.24041306344043,3.2042356538005485,0.4907232608760752,Right,Correct,0.0,0.0,-45,45,2006,653,-0.77
"{'cat': 'RB', 'resp': 'reach'}",2,340,Right,66.99043776548152,72.19907852731887,3.3495218882740754,1.1341004734868876,Right,Correct,0.0,0.0,-45,45,2009,701,-0.8
"{'cat': 'RB', 'resp': 'reach'}",2,341,Left,33.481712216117145,30.077718126846438,1.6740856108058575,0.47245969152022654,Left,Correct,0.0,0.0,-45,45,2008,1223,-2.59
"{'cat': 'RB', 'resp': 'reach'}",2,342,Right,58.80051781585427,31.717202059251093,2.9400258907927133,0.4982126449088314,Right,Correct,0.0,0.0,-45,45,2007,785,-0.79
"{'cat': 'RB', 'resp': 'reach'}",2,343,Right,65.52655260272992,81.63137413420563,3.276327630136496,1.2822626264123012,Right,Correct,0.0,0.0,-45,45,2008,768,-0.77
"{'cat': 'RB', 'resp': 'reach'}",2,344,Left,41.938561973952204,28.73024164216552,2.09692809869761,0.4512935803944337,Left,Correct,0.0,0.0,-45,45,2009,3057,-2.45
"{'cat': 'RB', 'resp': 'reach'}",2,345,Right,59.203619637742676,21.082369266940344,2.960180981887134,0.331161082046435,Right,Correct,0.0,0.0,-45,45,2009,719,-0.79
"{'cat': 'RB', 'resp': 'reach'}",2,346,Left,35.48567896254979,16.77554944897446,1.7742839481274897,0.26350971454415234,Left,Correct,0.0,0.0,-45,45,2009,872,-2.43
"{'cat': 'RB', 'resp': 'reach'}",2,347,Left,35.61993883848509,45.72134989483991,1.7809969419242546,0.7181892847091876,Right,Incorrect,0.0,0.0,-45,45,2004,978,-0.85
"{'cat': 'RB', 'resp': 'reach'}",2,348,Right,63.00553156019624,18.22330522971756,3.1502765780098123,0.2862510091690257,Right,Correct,0.0,0.0,-45,45,2006,743,-0.85
"{'cat': 'RB', 'resp': 'reach'}",2,349,Left,37.0140287958414,29.44543171548065,1.8507014397920698,0.4625277597956696,Left,Correct,0.0,0.0,-45,45,2009,1976,-2.36
"{'cat': 'RB', 'resp': 'reach'}",2,350,Left,39.578636856310816,27.830754187210516,1.978931842815541,0.4371644644920196,Left,Correct,0.0,0.0,-45,45,2010,1164,-2.44
"{'cat': 'RB', 'resp': 'reach'}",2,351,Left,39.4911012589971,17.241484682618818,1.974555062949855,0.2708286080794811,Left,Correct,0.0,0.0,-45,45,2005,851,-2.53
"{'cat': 'RB', 'resp': 'reach'}",2,352,Left,31.544106431150098,44.3403191452655,1.577205321557505,0.6964961044229647,Left,Correct,0.0,0.0,-45,45,2006,2218,-2.27
"{'cat': 'RB', 'resp': 'reach'}",2,353,Left,32.86029320465486,31.967423351101367,1.643014660232743,0.5021431117700743,Left,Correct,0.0,0.0,-45,45,2009,742,-2.28
"{'cat': 'RB', 'resp': 'reach'}",2,354,Left,38.05401050122208,43.18214821951845,1.902700525061104,0.6783035980633236,Left,Correct,0.0,0.0,-45,45,2002,1034,-2.26
"{'cat': 'RB', 'resp': 'reach'}",2,355,Left,36.10782628950437,30.992105161992825,1.8053913144752185,0.48682284948099486,Left,Correct,0.0,0.0,-45,45,2003,1258,-2.25
"{'cat': 'RB', 'resp': 'reach'}",2,356,Right,61.9264837067783,66.1798795086397,3.096324185338915,1.039551116399001,Right,Correct,0.0,0.0,-45,45,2005,562,-0.84
"{'cat': 'RB', 'resp': 'reach'}",2,357,Right,65.41126571235098,83.09761765802723,3.2705632856175493,1.3052943258263592,Right,Correct,0.0,0.0,-45,45,2009,674,-0.79
"{'cat': 'RB', 'resp': 'reach'}",2,358,Left,39.59530958575538,28.498576785655906,1.979765479287769,0.4476545973379061,Right,Incorrect,0.0,0.0,-45,45,2004,514,-0.83
"{'cat': 'RB', 'resp': 'reach'}",2,359,Left,35.501788164368264,63.087373083406334,1.7750894082184132,0.990974139065539,Left,Correct,0.0,0.0,-45,45,2006,662,-2.37
"{'cat': 'RB', 'resp': 'reach'}",2,360,Right,55.51403504974223,38.518375932862625,2.7757017524871115,0.6050452342944556,Right,Correct,0.0,0.0,-45,45,2007,560,-0.86
"{'cat': 'RB', 'resp': 'reach'}",2,361,Right,53.88139077962135,48.940064369803395,2.694069538981067,0.7687487334519297,Right,Correct,0.0,0.0,-45,45,2007,759,-0.89
"{'cat': 'RB', 'resp': 'reach'}",2,362,Left,47.36356106187849,62.525470101560316,2.3681780530939247,0.9821477876665506,Right,Incorrect,0.0,0.0,-45,45,2004,757,-0.87
"{'cat': 'RB', 'resp': 'reach'}",2,363,Left,44.06167582935691,25.302962741707812,2.2030837914678454,0.3974580093170276,Right,Incorrect,0.0,0.0,-45,45,2003,744,-0.91
"{'cat': 'RB', 'resp': 'reach'}",2,364,Left,33.34844195182339,67.4966599760843,1.6674220975911695,1.0602350556135733,Left,Correct,0.0,0.0,-45,45,2006,1354,-2.3
"{'cat': 'RB', 'resp': 'reach'}",2,365,Right,59.89630142193377,26.825121925881366,2.994815071096689,0.421368029869997,Right,Correct,0.0,0.0,-45,45,2004,646,-0.81
"{'cat': 'RB', 'resp': 'reach'}",2,366,Left,33.58653495280516,38.785944465212665,1.6793267476402578,0.6092481909722691,Left,Correct,0.0,0.0,-45,45,2008,890,-2.34
"{'cat': 'RB', 'resp': 'reach'}",2,367,Left,42.18535013633394,56.52347342957322,2.109267506816697,0.8878686444086256,Left,Correct,0.0,0.0,-45,45,2004,1016,-2.33
"{'cat': 'RB', 'resp': 'reach'}",2,368,Left,42.649889290921514,10.383779286003026,2.1324944645460757,0.16310802360702487,Left,Correct,0.0,0.0,-45,45,2012,790,-2.26
"{'cat': 'RB', 'resp': 'reach'}",2,369,Right,62.36697476700307,72.18688559284595,3.1183487383501536,1.1339089473200585,Right,Correct,0.0,0.0,-45,45,2013,857,-0.85
"{'cat': 'RB', 'resp': 'reach'}",2,370,Right,58.52857883272477,81.02795930655404,2.9264289416362383,1.2727842084642143,Right,Correct,0.0,0.0,-45,45,2011,790,-0.88
"{'cat': 'RB', 'resp': 'reach'}",2,371,Left,46.98792596389902,37.15985558834667,2.349396298194951,0.5837056466240377,Right,Incorrect,0.0,0.0,-45,45,2011,818,-0.87
"{'cat': 'RB', 'resp': 'reach'}",2,372,Left,40.77543855711175,69.49678215986162,2.0387719278555876,1.0916529014077574,Left,Correct,0.0,0.0,-45,45,2013,1436,-2.13
"{'cat': 'RB', 'resp': 'reach'}",2,373,Left,35.09059471353066,35.171942844057014,1.7545297356765333,0.552479586256848,Left,Correct,0.0,0.0,-45,45,2005,1526,-2.35
"{'cat': 'RB', 'resp': 'reach'}",2,374,Left,33.08555509647681,56.22906146029667,1.6542777548238405,0.8832440320095849,Left,Correct,0.0,0.0,-45,45,2007,1485,-1.82
"{'cat': 'RB', 'resp': 'reach'}",2,375,Left,33.74959521847854,38.12563573842651,1.687479760923927,0.5988760857464059,Left,Correct,0.0,0.0,-45,45,2013,1129,-2.28
"{'cat': 'RB', 'resp': 'reach'}",2,376,Left,38.21195695197581,72.18661062088847,1.9105978475987906,1.1339046280706508,Left,Correct,0.0,0.0,-45,45,2011,905,-2.15
"{'cat': 'RB', 'resp': 'reach'}",2,377,Right,58.2106190986503,61.868736289186046,2.910530954932515,0.9718318370649556,Right,Correct,0.0,0.0,-45,45,2007,796,-0.85
"{'cat': 'RB', 'resp': 'reach'}",2,378,Right,54.70081710850807,70.10706217668424,2.7350408554254035,1.1012391574951703,Right,Correct,0.0,0.0,-45,45,2003,837,-0.85
"{'cat': 'RB', 'resp': 'reach'}",2,379,Left,38.457990147934204,75.26652422625806,1.9228995073967101,1.1822837978522525,Left,Correct,0.0,0.0,-45,45,2009,911,-2.18
"{'cat': 'RB', 'resp': 'reach'}",2,380,Left,39.23772624720149,12.475362932399484,1.9618863123600747,0.1959625426964632,Left,Correct,0.0,0.0,-45,45,2011,1003,-2.26
"{'cat': 'RB', 'resp': 'reach'}",2,381,Right,62.03977956416808,33.9386343514218,3.101988978208404,0.5331068217564846,Right,Correct,0.0,0.0,-45,45,2008,810,-0.83
"{'cat': 'RB', 'resp': 'reach'}",2,382,Left,39.59078976144076,13.068925323841555,1.979539488072038,0.20528619893847122,Left,Correct,0.0,0.0,-45,45,2013,904,-2.05
"{'cat': 'RB', 'resp': 'reach'}",2,383,Left,41.374420585787355,81.66220179799427,2.068721029289368,1.2827468662227302,Left,Correct,0.0,0.0,-45,45,2005,1029,-2.17
"{'cat': 'RB', 'resp': 'reach'}",2,384,Right,54.10625063618328,51.91851679166944,2.705312531809164,0.8155341546899351,Right,Correct,0.0,0.0,-45,45,2006,789,-0.83
"{'cat': 'RB', 'resp': 'reach'}",2,385,Left,33.64796475626077,49.97178070955682,1.6823982378130384,0.7849548958197191,Left,Correct,0.0,0.0,-45,45,2006,882,-2.08
"{'cat': 'RB', 'resp': 'reach'}",2,386,Right,62.47178617396292,74.74706044587926,3.1235893086981457,1.1741240798710326,Right,Correct,0.0,0.0,-45,45,2009,775,-0.93
"{'cat': 'RB', 'resp': 'reach'}",2,387,Right,66.0163460409973,45.88835805240942,3.300817302049865,0.7208126427137375,Right,Correct,0.0,0.0,-45,45,2005,1549,-0.84
"{'cat': 'RB', 'resp': 'reach'}",2,388,Right,62.50407945258298,33.32923638789376,3.125203972629149,0.5235344209298232,Right,Correct,0.0,0.0,-45,45,2001,735,-0.88
"{'cat': 'RB', 'resp': 'reach'}",2,389,Right,61.5075484132097,42.55407540730834,3.075377420660485,0.6684378533995299,Right,Correct,0.0,0.0,-45,45,2007,658,-0.89
"{'cat': 'RB', 'resp': 'reach'}",2,390,Right,58.79865387865282,86.97237530107154,2.939932693932641,1.3661588765555035,Right,Correct,0.0,0.0,-45,45,2008,716,-0.88
"{'cat': 'RB', 'resp': 'reach'}",2,391,Right,64.53808879873215,63.54980247819047,3.2269044399366074,0.9982379630128282,Right,Correct,0.0,0.0,-45,45,2007,743,-0.9
"{'cat': 'RB', 'resp': 'reach'}",2,392,Left,44.857591261132114,61.94402529518168,2.2428795630566056,0.9730144740056155,Left,Correct,0.0,0.0,-45,45,2007,1025,-2.25
"{'cat': 'RB', 'resp': 'reach'}",2,393,Right,55.97012635558614,41.799950683543415,2.798506317779307,0.6565920899391782,Right,Correct,0.0,0.0,-45,45,2003,970,-0.86
"{'cat': 'RB', 'resp': 'reach'}",2,394,Right,53.6431578918436,59.487176433610315,2.68215789459218,0.9344223823331502,Left,Incorrect,0.0,0.0,-45,45,2005,993,-1.77
"{'cat': 'RB', 'resp': 'reach'}",2,395,Left,35.04600997264711,30.06415721185664,1.7523004986323556,0.472246677165687,Left,Correct,0.0,0.0,-45,45,2004,1034,-1.71
"{'cat': 'RB', 'resp': 'reach'}",2,396,Left,43.30143934031911,32.60640457161463,2.1650719670159555,0.5121802053108059,Right,Incorrect,0.0,0.0,-45,45,2007,1762,-0.83
"{'cat': 'RB', 'resp': 'reach'}",2,397,Left,35.15875019334332,53.78119372731752,1.7579375096671663,0.8447930155751509,Left,Correct,0.0,0.0,-45,45,2005,898,-1.71
"{'cat': 'RB', 'resp': 'reach'}",2,398,Right,67.11939434503638,37.87538709779531,3.355969717251819,0.594945189291517,Right,Correct,0.0,0.0,-45,45,2012,787,-0.86
"{'cat': 'RB', 'resp': 'reach'}",2,399,Left,45.759628478745654,48.22329280476001,2.2879814239372824,0.7574897120367178,Left,Correct,0.0,0.0,-45,45,2008,801,-2.07
