condition,subject,trial,cat,x,y,xt,yt,resp,fb,rotation,su,target_angle_left,target_angle_right,rt,mt,ep
"{'cat': 'RB', 'resp': 'reach'}",2,0,B,56.8110305105249,74.79112383509685,2.8405515255262452,1.1748162259703236,A,Incorrect,0.0,0.0,-45,45,2001,256791,-1.93
"{'cat': 'RB', 'resp': 'reach'}",2,1,B,63.9733594360858,22.772052153978066,3.19866797180429,0.35770255877050555,B,Correct,0.0,0.0,-45,45,2007,3836,-1.04
"{'cat': 'RB', 'resp': 'reach'}",2,2,A,35.268039585194344,47.1553944548955,1.7634019792597173,0.7407152039831427,A,Correct,0.0,0.0,-45,45,2009,1261,-2.38
"{'cat': 'RB', 'resp': 'reach'}",2,3,A,40.77314723736734,46.710608843572125,2.038657361868367,0.7337285279383631,B,Incorrect,0.0,0.0,-45,45,2003,1839,-0.83
"{'cat': 'RB', 'resp': 'reach'}",2,4,B,51.73037620982624,51.20919392852809,2.5865188104913117,0.8043921372105944,A,Incorrect,0.0,0.0,-45,45,2001,2868,-2.23
"{'cat': 'RB', 'resp': 'reach'}",2,5,B,52.71408372564097,31.448167435421073,2.6357041862820485,0.49398665891990307,B,Correct,0.0,0.0,-45,45,2008,1294,-0.97
"{'cat': 'RB', 'resp': 'reach'}",2,6,A,43.346828327800615,59.6449978294264,2.167341416390031,0.9369014350215257,B,Incorrect,0.0,0.0,-45,45,2005,1870,-0.93
"{'cat': 'RB', 'resp': 'reach'}",2,7,B,59.71188861762722,46.85127366119421,2.985594430881361,0.7359380857266637,A,Incorrect,0.0,0.0,-45,45,2009,2122,-2.4
"{'cat': 'RB', 'resp': 'reach'}",2,8,B,57.23380523654105,34.3204870632975,2.8616902618270523,0.5391049501283948,B,Correct,0.0,0.0,-45,45,2001,1972,-1.04
"{'cat': 'RB', 'resp': 'reach'}",2,9,A,42.74663800397455,36.406756719463964,2.1373319001987277,0.5718759972544941,A,Correct,0.0,0.0,-45,45,2007,1177,-2.31
"{'cat': 'RB', 'resp': 'reach'}",2,10,B,65.74771679838317,17.140580791600286,3.2873858399191587,0.2692436134657689,B,Correct,0.0,0.0,-45,45,2012,901,-1.07
"{'cat': 'RB', 'resp': 'reach'}",2,11,B,68.96871056902661,38.91519473761204,3.4484355284513306,0.6112784495034908,B,Correct,0.0,0.0,-45,45,2012,795,-1.1
"{'cat': 'RB', 'resp': 'reach'}",2,12,A,33.412093258190716,62.25883918586507,1.6706046629095357,0.9779595590367103,A,Correct,0.0,0.0,-45,45,2012,869,-2.39
"{'cat': 'RB', 'resp': 'reach'}",2,13,B,64.4976606756305,16.11138944456765,3.2248830337815253,0.25307711359088936,B,Correct,0.0,0.0,-45,45,2007,654,-1.06
"{'cat': 'RB', 'resp': 'reach'}",2,14,A,40.645717213181236,35.654649286215765,2.0322858606590617,0.5600619213194801,A,Correct,0.0,0.0,-45,45,2004,762,-2.3
"{'cat': 'RB', 'resp': 'reach'}",2,15,B,61.50849384985411,77.13488757472692,3.0754246924927053,1.2116319807011835,B,Correct,0.0,0.0,-45,45,2007,755,-1.09
"{'cat': 'RB', 'resp': 'reach'}",2,16,A,40.08869783333838,50.37032582094099,2.0044348916669192,0.7912152277899623,A,Correct,0.0,0.0,-45,45,2007,754,-2.18
"{'cat': 'RB', 'resp': 'reach'}",2,17,A,45.35348911264148,35.58334351064449,2.2676744556320743,0.5589418528160138,A,Correct,0.0,0.0,-45,45,2002,806,-2.13
"{'cat': 'RB', 'resp': 'reach'}",2,18,A,32.300868804462645,32.3832043462572,1.6150434402231324,0.5086741843694934,A,Correct,0.0,0.0,-45,45,2012,834,-2.24
"{'cat': 'RB', 'resp': 'reach'}",2,19,A,42.56276621987969,89.73623899775998,2.128138310993984,1.4095735459807033,A,Correct,0.0,0.0,-45,45,2012,651,-2.27
"{'cat': 'RB', 'resp': 'reach'}",2,20,A,41.893007979321844,12.909342206768748,2.0946503989660923,0.20277947319730674,B,Incorrect,0.0,0.0,-45,45,2003,705,-0.89
"{'cat': 'RB', 'resp': 'reach'}",2,21,B,66.84182310872787,28.653736950799708,3.342091155436393,0.4500918475126338,B,Correct,0.0,0.0,-45,45,2010,1054,-1.07
"{'cat': 'RB', 'resp': 'reach'}",2,22,B,54.18938014573466,52.05235373036055,2.7094690072867333,0.8176364604067899,B,Correct,0.0,0.0,-45,45,2009,1027,-1.02
"{'cat': 'RB', 'resp': 'reach'}",2,23,B,65.78976466297091,58.44483746681998,3.2894882331485458,0.9180493601300558,B,Correct,0.0,0.0,-45,45,2008,1711,-1.05
"{'cat': 'RB', 'resp': 'reach'}",2,24,B,58.5003469948546,22.85443859837443,2.92501734974273,0.3589966820128606,B,Correct,0.0,0.0,-45,45,2009,1027,-1.06
"{'cat': 'RB', 'resp': 'reach'}",2,25,A,38.56205638477456,42.735803443350214,1.928102819238728,0.6712924307144321,A,Correct,0.0,0.0,-45,45,2009,919,-2.26
"{'cat': 'RB', 'resp': 'reach'}",2,26,B,59.44910361254108,24.402045698211964,2.972455180627054,0.38330643749032567,B,Correct,0.0,0.0,-45,45,2003,1946,-1.17
"{'cat': 'RB', 'resp': 'reach'}",2,27,A,42.275975699935785,31.74821186634255,2.113798784996789,0.4986997458195702,A,Correct,0.0,0.0,-45,45,2012,1694,-2.35
"{'cat': 'RB', 'resp': 'reach'}",2,28,A,31.22184386467825,47.14489118205878,1.5610921932339124,0.7405502189592302,A,Correct,0.0,0.0,-45,45,2006,2052,-2.37
"{'cat': 'RB', 'resp': 'reach'}",2,29,A,42.36434567262554,15.321494932846257,2.118217283631277,0.2406694796152152,A,Correct,0.0,0.0,-45,45,2013,10412,-2.35
"{'cat': 'RB', 'resp': 'reach'}",2,30,B,69.29543902491454,55.308571977601126,3.4647719512457273,0.86878501702687,B,Correct,0.0,0.0,-45,45,2002,5396,-0.97
"{'cat': 'RB', 'resp': 'reach'}",2,31,A,37.322178126554704,34.81523619011792,1.8661089063277354,0.5468764512393398,A,Correct,0.0,0.0,-45,45,2008,767,-2.18
"{'cat': 'RB', 'resp': 'reach'}",2,32,A,43.55459158528131,49.89686097808129,2.1777295792640654,0.7837780594296571,A,Correct,0.0,0.0,-45,45,2003,804,-2.29
"{'cat': 'RB', 'resp': 'reach'}",2,33,A,35.621783642021654,26.29785771090686,1.7810891821010828,0.41308578294867343,A,Correct,0.0,0.0,-45,45,2011,1840,-2.23
"{'cat': 'RB', 'resp': 'reach'}",2,34,B,57.596993959053535,61.53089428031096,2.8798496979526766,0.9665250271991755,A,Incorrect,0.0,0.0,-45,45,2005,1933,-2.2
"{'cat': 'RB', 'resp': 'reach'}",2,35,B,59.77066255107554,52.944796855197986,2.988533127553777,0.8316549242304698,B,Correct,0.0,0.0,-45,45,2004,782,-1.04
"{'cat': 'RB', 'resp': 'reach'}",2,36,A,48.40731997556432,54.78107474107359,2.420365998778216,0.860499109811551,A,Correct,0.0,0.0,-45,45,2002,2364,-2.3
"{'cat': 'RB', 'resp': 'reach'}",2,37,A,45.00271808918717,59.45001367984324,2.2501359044593583,0.9338386311620412,A,Correct,0.0,0.0,-45,45,2010,1000,-2.37
"{'cat': 'RB', 'resp': 'reach'}",2,38,B,59.81489924050223,72.21640644885184,2.990744962025111,1.1343726598418375,B,Correct,0.0,0.0,-45,45,2004,900,-1.01
"{'cat': 'RB', 'resp': 'reach'}",2,39,A,38.93362208623205,63.06261094297724,1.9466811043116024,0.9905851762732429,A,Correct,0.0,0.0,-45,45,2007,877,-2.4
"{'cat': 'RB', 'resp': 'reach'}",2,40,A,38.612550995919506,90.70871500464767,1.930627549795975,1.4248491633758569,A,Correct,0.0,0.0,-45,45,2004,1758,-2.2
"{'cat': 'RB', 'resp': 'reach'}",2,41,B,64.14588407729234,17.313960538889248,3.207294203864617,0.2719670561675902,B,Correct,0.0,0.0,-45,45,2007,1115,-1.14
"{'cat': 'RB', 'resp': 'reach'}",2,42,A,40.95313570228905,64.23375161487026,2.0476567851144525,1.0089814109289394,A,Correct,0.0,0.0,-45,45,2004,1286,-2.24
"{'cat': 'RB', 'resp': 'reach'}",2,43,A,44.56603028817845,35.24033915856427,2.2283015144089227,0.5535539530527911,A,Correct,0.0,0.0,-45,45,2003,4190,-2.29
"{'cat': 'RB', 'resp': 'reach'}",2,44,A,48.6505129541856,66.74163088390469,2.43252564770928,1.048375086367383,A,Correct,0.0,0.0,-45,45,2003,1419,-2.22
"{'cat': 'RB', 'resp': 'reach'}",2,45,B,62.10605023470637,29.33305895897719,3.1053025117353186,0.46076261266419494,B,Correct,0.0,0.0,-45,45,2001,645,-1.12
"{'cat': 'RB', 'resp': 'reach'}",2,46,B,50.71785769748407,52.24746888189773,2.5358928848742037,0.820701322040156,A,Incorrect,0.0,0.0,-45,45,2008,1377,-2.35
"{'cat': 'RB', 'resp': 'reach'}",2,47,A,37.9664299637365,90.09543996032433,1.8983214981868253,1.4152158615064758,A,Correct,0.0,0.0,-45,45,2001,767,-2.2
"{'cat': 'RB', 'resp': 'reach'}",2,48,A,41.23169406180801,9.390509824851833,2.0615847030904004,0.14750578339608647,A,Correct,0.0,0.0,-45,45,2009,2126,-2.27
"{'cat': 'RB', 'resp': 'reach'}",2,49,A,46.500303306758994,37.89378904653001,2.32501516533795,0.5952342464263003,A,Correct,0.0,0.0,-45,45,2002,710,-2.3
"{'cat': 'RB', 'resp': 'reach'}",2,50,B,64.7327740546856,48.435763057039466,3.2366387027342802,0.7608271869550554,B,Correct,0.0,0.0,-45,45,2012,1000,-1.12
"{'cat': 'RB', 'resp': 'reach'}",2,51,A,43.92519964798608,77.73397945963184,2.1962599823993036,1.2210424940233964,A,Correct,0.0,0.0,-45,45,2006,830,-2.31
"{'cat': 'RB', 'resp': 'reach'}",2,52,A,42.278817894946755,28.06435709923656,2.113940894747338,0.44083389045341065,B,Incorrect,0.0,0.0,-45,45,2013,1953,-1.08
"{'cat': 'RB', 'resp': 'reach'}",2,53,A,32.58750036937449,69.4616817764784,1.6293750184687243,1.0911015458748827,A,Correct,0.0,0.0,-45,45,2007,795,-2.24
"{'cat': 'RB', 'resp': 'reach'}",2,54,A,40.19146708770774,44.40228288696716,2.009573354385387,0.697469428601559,A,Correct,0.0,0.0,-45,45,2003,824,-2.48
"{'cat': 'RB', 'resp': 'reach'}",2,55,B,58.84267043165208,49.63156549098549,2.9421335215826043,0.7796108076632035,B,Correct,0.0,0.0,-45,45,2013,800,-1.03
"{'cat': 'RB', 'resp': 'reach'}",2,56,A,41.07962539625993,89.42215745042611,2.0539812698129962,1.4046399645720422,A,Correct,0.0,0.0,-45,45,2002,780,-2.24
"{'cat': 'RB', 'resp': 'reach'}",2,57,B,67.00360266520438,73.5533279948588,3.350180133260219,1.1553729743786445,B,Correct,0.0,0.0,-45,45,2009,840,-1.03
"{'cat': 'RB', 'resp': 'reach'}",2,58,A,34.41418778848777,31.59234629239505,1.7207093894243886,0.4962514151092651,A,Correct,0.0,0.0,-45,45,2003,761,-2.28
"{'cat': 'RB', 'resp': 'reach'}",2,59,A,45.03013580092241,31.849191858015406,2.2515067900461205,0.5002859358195653,A,Correct,0.0,0.0,-45,45,2007,2128,-2.09
"{'cat': 'RB', 'resp': 'reach'}",2,60,A,44.13631490807936,40.1860372834318,2.206815745403968,0.6312407975325743,A,Correct,0.0,0.0,-45,45,2002,20159,-2.34
"{'cat': 'RB', 'resp': 'reach'}",2,61,A,45.74991237235962,40.93930672108229,2.287495618617981,0.6430731261900567,A,Correct,0.0,0.0,-45,45,2001,6667,-2.24
"{'cat': 'RB', 'resp': 'reach'}",2,62,A,39.673490830545155,19.01794528655587,1.9836745415272576,0.29873318599308285,A,Correct,0.0,0.0,-45,45,2004,2159,-2.19
"{'cat': 'RB', 'resp': 'reach'}",2,63,B,60.48236529043386,33.91814627479807,3.024118264521693,0.5327849958014481,B,Correct,0.0,0.0,-45,45,2007,5188,-1.15
"{'cat': 'RB', 'resp': 'reach'}",2,64,B,59.26738187675325,34.96193588012936,2.9633690938376622,0.549180804581459,B,Correct,0.0,0.0,-45,45,2007,3807,-1.22
"{'cat': 'RB', 'resp': 'reach'}",2,65,B,56.02957364779997,33.25258286195634,2.8014786823899986,0.5223303501600395,A,Incorrect,0.0,0.0,-45,45,2008,1528,-2.28
"{'cat': 'RB', 'resp': 'reach'}",2,66,A,37.138243340588616,59.79111446095968,1.8569121670294308,0.9391966297024869,A,Correct,0.0,0.0,-45,45,2008,1000,-2.36
"{'cat': 'RB', 'resp': 'reach'}",2,67,A,43.23968168944914,38.58156550347074,2.161984084472457,0.6060378137484853,A,Correct,0.0,0.0,-45,45,2013,12814,-2.16
"{'cat': 'RB', 'resp': 'reach'}",2,68,B,54.47181797172668,30.657799817030917,2.723590898586334,0.48157159340205413,B,Correct,0.0,0.0,-45,45,2002,3044,-1.06
"{'cat': 'RB', 'resp': 'reach'}",2,69,B,58.80645442143548,42.183993234548325,2.940322721071774,0.6626246162236927,B,Correct,0.0,0.0,-45,45,2002,1074,-1.23
"{'cat': 'RB', 'resp': 'reach'}",2,70,B,56.30340156303635,54.87059668658648,2.8151700781518176,0.8619053172433426,A,Incorrect,0.0,0.0,-45,45,2001,1183,-2.29
"{'cat': 'RB', 'resp': 'reach'}",2,71,B,55.73866043491812,69.00253965737409,2.786933021745906,1.0838893583332239,B,Correct,0.0,0.0,-45,45,2002,982,-1.13
"{'cat': 'RB', 'resp': 'reach'}",2,72,A,36.22357734053082,21.00080557880692,1.811178867026541,0.3298798826292368,A,Correct,0.0,0.0,-45,45,2004,793,-2.17
"{'cat': 'RB', 'resp': 'reach'}",2,73,A,47.410041962780994,64.98760399731006,2.37050209813905,1.0208228964617598,A,Correct,0.0,0.0,-45,45,2006,1598,-2.14
"{'cat': 'RB', 'resp': 'reach'}",2,74,B,55.02859803753865,64.59798541470172,2.7514299018769326,1.0147027820776378,A,Incorrect,0.0,0.0,-45,45,2007,994,-2.22
"{'cat': 'RB', 'resp': 'reach'}",2,75,B,60.710498894197606,32.966135347125245,3.0355249447098807,0.5178308431188774,B,Correct,0.0,0.0,-45,45,2014,1410,-1.12
"{'cat': 'RB', 'resp': 'reach'}",2,76,B,61.77763561085201,59.20060431538595,3.0888817805426005,0.9299209180264635,B,Correct,0.0,0.0,-45,45,2002,1099,-1.12
"{'cat': 'RB', 'resp': 'reach'}",2,77,B,64.66055620998053,18.980010783179498,3.2330278104990264,0.29813731220745887,B,Correct,0.0,0.0,-45,45,2001,904,-1.13
"{'cat': 'RB', 'resp': 'reach'}",2,78,B,62.22977875562634,19.439498766570953,3.111488937781317,0.30535493257263574,B,Correct,0.0,0.0,-45,45,2012,537,-1.12
"{'cat': 'RB', 'resp': 'reach'}",2,79,A,47.04293992209824,51.44737199271079,2.352146996104912,0.8081334294940075,A,Correct,0.0,0.0,-45,45,2007,923,-2.22
"{'cat': 'RB', 'resp': 'reach'}",2,80,A,37.83217810626086,74.19827598147315,1.8916089053130432,1.1655037936621204,A,Correct,0.0,0.0,-45,45,2009,979,-2.22
"{'cat': 'RB', 'resp': 'reach'}",2,81,B,60.78007775090107,80.30996138451576,3.0390038875450536,1.2615059234783732,B,Correct,0.0,0.0,-45,45,2001,1066,-0.95
"{'cat': 'RB', 'resp': 'reach'}",2,82,B,54.622594361839084,71.79986213252499,2.731129718091954,1.1278295970215024,A,Incorrect,0.0,0.0,-45,45,2002,927,-2.16
"{'cat': 'RB', 'resp': 'reach'}",2,83,A,44.34998055096647,49.02135702115653,2.2174990275483237,0.7700256754333391,A,Correct,0.0,0.0,-45,45,2008,861,-2.18
"{'cat': 'RB', 'resp': 'reach'}",2,84,B,62.99163929350999,88.78095067509321,3.1495819646754994,1.394567912097953,B,Correct,0.0,0.0,-45,45,2007,876,-1.07
"{'cat': 'RB', 'resp': 'reach'}",2,85,A,35.53999912541323,80.56036524746128,1.7769999562706615,1.265439258159674,A,Correct,0.0,0.0,-45,45,2007,859,-2.25
"{'cat': 'RB', 'resp': 'reach'}",2,86,A,34.007609440055006,66.41924132914076,1.7003804720027502,1.0433110030831807,A,Correct,0.0,0.0,-45,45,2006,810,-2.26
"{'cat': 'RB', 'resp': 'reach'}",2,87,B,58.715112334572105,31.936823967355913,2.9357556167286054,0.5016624577741788,B,Correct,0.0,0.0,-45,45,2010,920,-1.1
"{'cat': 'RB', 'resp': 'reach'}",2,88,A,35.59350308480384,15.108293457780263,1.779675154240192,0.23732051867620604,A,Correct,0.0,0.0,-45,45,2005,857,-2.31
"{'cat': 'RB', 'resp': 'reach'}",2,89,B,51.667654125550314,65.86868437713996,2.583382706277516,1.0346628747042383,A,Incorrect,0.0,0.0,-45,45,2012,1588,-2.2
"{'cat': 'RB', 'resp': 'reach'}",2,90,B,51.99117004701243,47.934232117007284,2.5995585023506216,0.75294915737129,B,Correct,0.0,0.0,-45,45,2005,1165,-1.06
"{'cat': 'RB', 'resp': 'reach'}",2,91,A,42.04182961668496,48.2365127460884,2.102091480834248,0.7576973703895088,A,Correct,0.0,0.0,-45,45,2004,967,-2.18
"{'cat': 'RB', 'resp': 'reach'}",2,92,A,40.695401172096,62.416962984225556,2.0347700586048,0.9804433618531453,A,Correct,0.0,0.0,-45,45,2001,804,-2.21
"{'cat': 'RB', 'resp': 'reach'}",2,93,B,53.20218434569213,54.81282474471329,2.660109217284606,0.8609978377024805,B,Correct,0.0,0.0,-45,45,2001,2175,-1.08
"{'cat': 'RB', 'resp': 'reach'}",2,94,B,65.6773672353281,56.975579731738435,3.2838683617664053,0.894970313596245,B,Correct,0.0,0.0,-45,45,2007,845,-1.06
"{'cat': 'RB', 'resp': 'reach'}",2,95,B,56.8173364875966,37.61067685968289,2.84086682437983,0.5907871305945971,B,Correct,0.0,0.0,-45,45,2009,807,-1.09
"{'cat': 'RB', 'resp': 'reach'}",2,96,B,67.4765391711867,51.044128535750964,3.373826958559335,0.8017992960840417,B,Correct,0.0,0.0,-45,45,2002,1533,-1.11
"{'cat': 'RB', 'resp': 'reach'}",2,97,A,32.54370203366793,60.95060765996006,1.6271851016833963,0.9574099062818214,A,Correct,0.0,0.0,-45,45,2004,892,-2.23
"{'cat': 'RB', 'resp': 'reach'}",2,98,A,38.70540892830107,12.847781683806133,1.9352704464150534,0.20181248276385422,A,Correct,0.0,0.0,-45,45,2002,894,-2.27
"{'cat': 'RB', 'resp': 'reach'}",2,99,A,44.0890643597098,38.04298498769772,2.20445321798549,0.5975778107898898,A,Correct,0.0,0.0,-45,45,2007,2886,-2.2
"{'cat': 'RB', 'resp': 'reach'}",2,100,B,60.95885259241358,35.12720096116162,3.0479426296206786,0.5517767824037884,B,Correct,0.0,0.0,-45,45,2003,1702,-1.09
"{'cat': 'RB', 'resp': 'reach'}",2,101,B,61.81756916589377,22.353457754182855,3.0908784582946884,0.3511272933143533,B,Correct,0.0,0.0,-45,45,2003,1003,-1.02
"{'cat': 'RB', 'resp': 'reach'}",2,102,A,36.896490448278556,57.82333809768434,1.8448245224139277,0.9082868708686197,A,Correct,0.0,0.0,-45,45,2004,780,-2.25
"{'cat': 'RB', 'resp': 'reach'}",2,103,B,61.138850642727945,61.81296166133596,3.0569425321363974,0.970955731259403,B,Correct,0.0,0.0,-45,45,2004,921,-1.09
"{'cat': 'RB', 'resp': 'reach'}",2,104,A,36.05364378930109,38.96559583140997,1.8026821894650544,0.6120701480335331,A,Correct,0.0,0.0,-45,45,2011,793,-2.2
"{'cat': 'RB', 'resp': 'reach'}",2,105,B,59.10180799070996,66.72179111860659,2.9550903995354982,1.0480634440628358,B,Correct,0.0,0.0,-45,45,2012,1660,-1.1
"{'cat': 'RB', 'resp': 'reach'}",2,106,B,51.808985925272424,49.01618417522771,2.5904492962636207,0.7699444205594982,B,Correct,0.0,0.0,-45,45,2003,1780,-1.22
"{'cat': 'RB', 'resp': 'reach'}",2,107,A,34.90966980611073,83.84462740221309,1.7454834903055365,1.3170283274488306,A,Correct,0.0,0.0,-45,45,2001,809,-2.25
"{'cat': 'RB', 'resp': 'reach'}",2,108,A,40.965215534167946,84.35421815592306,2.0482607767083976,1.3250329602897932,B,Incorrect,0.0,0.0,-45,45,2008,7899,-1.15
"{'cat': 'RB', 'resp': 'reach'}",2,109,A,33.808872114376044,43.192004187232854,1.6904436057188021,0.6784584152421516,A,Correct,0.0,0.0,-45,45,2004,7521,-2.17
"{'cat': 'RB', 'resp': 'reach'}",2,110,B,54.82447928184693,69.42348488333711,2.741223964092347,1.0905015504804696,B,Correct,0.0,0.0,-45,45,2004,1314,-1.02
"{'cat': 'RB', 'resp': 'reach'}",2,111,B,66.32472494047565,44.10940482147207,3.3162362470237827,0.6928689107067741,B,Correct,0.0,0.0,-45,45,2002,986,-1.14
"{'cat': 'RB', 'resp': 'reach'}",2,112,A,45.14427143134205,44.20249560604278,2.2572135715671022,0.6943311773313955,A,Correct,0.0,0.0,-45,45,2009,840,-2.12
"{'cat': 'RB', 'resp': 'reach'}",2,113,B,69.35440169133817,45.952209345904,3.4677200845669085,0.7218156164865613,B,Correct,0.0,0.0,-45,45,2003,807,-1.08
"{'cat': 'RB', 'resp': 'reach'}",2,114,B,51.224203902856054,37.307863071241485,2.5612101951428023,0.586030542728731,A,Incorrect,0.0,0.0,-45,45,2002,1313,-2.29
"{'cat': 'RB', 'resp': 'reach'}",2,115,A,33.46573608561539,74.58283805538373,1.6732868042807696,1.171544480593354,A,Correct,0.0,0.0,-45,45,2003,872,-2.22
"{'cat': 'RB', 'resp': 'reach'}",2,116,B,61.55982138579147,81.66235234755985,3.0779910692895736,1.2827492310497761,B,Correct,0.0,0.0,-45,45,2006,858,-1.04
"{'cat': 'RB', 'resp': 'reach'}",2,117,B,64.09684308993543,23.51671438632639,3.2048421544967716,0.3693996857632619,B,Correct,0.0,0.0,-45,45,2007,748,-1.08
"{'cat': 'RB', 'resp': 'reach'}",2,118,A,40.160615055368,73.93555773124383,2.0080307527684,1.1613770250376985,A,Correct,0.0,0.0,-45,45,2001,788,-2.28
"{'cat': 'RB', 'resp': 'reach'}",2,119,A,36.44256761238484,28.655993496432753,1.822128380619242,0.4501272932485501,A,Correct,0.0,0.0,-45,45,2006,804,-2.28
"{'cat': 'RB', 'resp': 'reach'}",2,120,B,59.33607630581572,83.17194135490942,2.966803815290786,1.3064617997269226,B,Correct,0.0,0.0,-45,45,2009,1222,-1.04
"{'cat': 'RB', 'resp': 'reach'}",2,121,B,53.88805533318354,39.102591628470655,2.6944027666591768,0.6142220729816258,B,Correct,0.0,0.0,-45,45,2002,859,-0.98
"{'cat': 'RB', 'resp': 'reach'}",2,122,B,55.320843755910424,29.752751779207344,2.7660421877955215,0.4673551320681922,B,Correct,0.0,0.0,-45,45,2007,1237,-1.0
"{'cat': 'RB', 'resp': 'reach'}",2,123,B,63.98240778406357,22.47772772650159,3.1991203892031788,0.353079321474845,B,Correct,0.0,0.0,-45,45,2001,1223,-1.04
"{'cat': 'RB', 'resp': 'reach'}",2,124,B,61.50764722151893,58.43548707117151,3.0753823610759463,0.9179024844586687,B,Correct,0.0,0.0,-45,45,2003,798,-1.09
"{'cat': 'RB', 'resp': 'reach'}",2,125,B,66.12853358106264,55.68425162263781,3.306426679053132,0.8746861790916223,B,Correct,0.0,0.0,-45,45,2013,812,-0.98
"{'cat': 'RB', 'resp': 'reach'}",2,126,B,64.08481829230745,20.877026724645802,3.2042409146153723,0.32793556893472514,B,Correct,0.0,0.0,-45,45,2002,755,-1.08
"{'cat': 'RB', 'resp': 'reach'}",2,127,B,62.27729506674679,28.18277236673896,3.113864753337339,0.4426939531257027,B,Correct,0.0,0.0,-45,45,2007,1393,-1.11
"{'cat': 'RB', 'resp': 'reach'}",2,128,B,55.531107394995786,56.57675912144398,2.776555369749789,0.8887056540992385,B,Correct,0.0,0.0,-45,45,2001,5172,-1.09
"{'cat': 'RB', 'resp': 'reach'}",2,129,A,37.85975795639978,20.392458642242087,1.8929878978199892,0.32032399129550715,A,Correct,0.0,0.0,-45,45,2003,2737,-2.27
"{'cat': 'RB', 'resp': 'reach'}",2,130,B,61.331299576679385,12.190928271679958,3.066564978833969,0.19149465349374933,B,Correct,0.0,0.0,-45,45,2005,6909,-1.13
"{'cat': 'RB', 'resp': 'reach'}",2,131,A,39.69875176400801,91.15408105346847,1.9849375882004006,1.4318449569115255,A,Correct,0.0,0.0,-45,45,2008,784,-2.21
"{'cat': 'RB', 'resp': 'reach'}",2,132,B,58.741280366414586,47.50923091243775,2.9370640183207293,0.7462732540610776,B,Correct,0.0,0.0,-45,45,2014,3203,-1.16
"{'cat': 'RB', 'resp': 'reach'}",2,133,A,34.30133885567622,39.91016125552754,1.715066942783811,0.6269073470197466,A,Correct,0.0,0.0,-45,45,2001,842,-2.24
"{'cat': 'RB', 'resp': 'reach'}",2,134,B,62.20556380945317,17.72210010372904,3.110278190472658,0.2783780974602903,B,Correct,0.0,0.0,-45,45,2003,592,-1.0
"{'cat': 'RB', 'resp': 'reach'}",2,135,A,46.70894676431399,66.08242388024243,2.3354473382156997,1.0380202869678816,A,Correct,0.0,0.0,-45,45,2009,1782,-2.25
"{'cat': 'RB', 'resp': 'reach'}",2,136,A,40.34990852109157,68.55122737999656,2.0174954260545785,1.0768001616578036,A,Correct,0.0,0.0,-45,45,2007,858,-2.29
"{'cat': 'RB', 'resp': 'reach'}",2,137,B,62.009769354696154,27.57976203148742,3.1004884677348077,0.43322188892937796,B,Correct,0.0,0.0,-45,45,2008,3692,-1.06
"{'cat': 'RB', 'resp': 'reach'}",2,138,A,37.9408052994554,56.014817405525406,1.89704026497277,0.8798786942668615,A,Correct,0.0,0.0,-45,45,2009,2357,-2.21
"{'cat': 'RB', 'resp': 'reach'}",2,139,A,47.06805246732009,32.75398690816726,2.3534026233660046,0.5144984232323727,B,Incorrect,0.0,0.0,-45,45,2005,983,-1.05
"{'cat': 'RB', 'resp': 'reach'}",2,140,A,39.53041435707636,40.18206322113515,1.976520717853818,0.6311783731079941,A,Correct,0.0,0.0,-45,45,2003,2622,-2.21
"{'cat': 'RB', 'resp': 'reach'}",2,141,B,66.46711657880353,22.093581182984877,3.3233558289401763,0.3470451616797749,B,Correct,0.0,0.0,-45,45,2003,786,-1.13
"{'cat': 'RB', 'resp': 'reach'}",2,142,B,55.09094194440606,45.90543082590443,2.754547097220303,0.7210808212126791,B,Correct,0.0,0.0,-45,45,2011,6001,-1.11
"{'cat': 'RB', 'resp': 'reach'}",2,143,B,68.59476810529505,46.17034376006402,3.429738405264752,0.7252420638516623,B,Correct,0.0,0.0,-45,45,2004,11311,-1.04
"{'cat': 'RB', 'resp': 'reach'}",2,144,A,36.72322084545544,23.277321408387603,1.8361610422727719,0.3656393096591946,A,Correct,0.0,0.0,-45,45,2007,1397,-2.3
"{'cat': 'RB', 'resp': 'reach'}",2,145,A,39.72107500861796,30.684235499558515,1.986053750430898,0.48198684413216086,A,Correct,0.0,0.0,-45,45,2002,1356,-2.23
"{'cat': 'RB', 'resp': 'reach'}",2,146,A,47.774328812209944,69.09197837054947,2.388716440610497,1.0852942583545155,A,Correct,0.0,0.0,-45,45,2002,1082,-2.21
"{'cat': 'RB', 'resp': 'reach'}",2,147,B,60.077262905333804,48.086004127049435,3.00386314526669,0.755333186530135,B,Correct,0.0,0.0,-45,45,2006,6054,-1.1
"{'cat': 'RB', 'resp': 'reach'}",2,148,B,58.650627079676774,34.08038380888682,2.9325313539838387,0.5353334170275968,B,Correct,0.0,0.0,-45,45,2007,2196,-1.2
"{'cat': 'RB', 'resp': 'reach'}",2,149,A,38.14376327699795,60.63785640930816,1.9071881638498978,0.9524972211245762,A,Correct,0.0,0.0,-45,45,2013,1384,-2.19
"{'cat': 'RB', 'resp': 'reach'}",2,150,B,55.56129000675671,82.74214547444674,2.7780645003378357,1.2997105818238992,B,Correct,0.0,0.0,-45,45,2008,742,-1.0
"{'cat': 'RB', 'resp': 'reach'}",2,151,A,45.79844863662218,50.874061025216534,2.2899224318311093,0.7991278818754954,A,Correct,0.0,0.0,-45,45,2005,771,-2.24
"{'cat': 'RB', 'resp': 'reach'}",2,152,B,58.38751135865266,26.653583058088156,2.919375567932633,0.41867350363567557,B,Correct,0.0,0.0,-45,45,2001,635,-1.06
"{'cat': 'RB', 'resp': 'reach'}",2,153,A,46.105153067155335,40.41695161473708,2.3052576533577667,0.6348679913667608,A,Correct,0.0,0.0,-45,45,2003,759,-2.29
"{'cat': 'RB', 'resp': 'reach'}",2,154,A,36.16478030844343,14.932816975985283,1.8082390154221715,0.2345641405457816,A,Correct,0.0,0.0,-45,45,2006,855,-2.22
"{'cat': 'RB', 'resp': 'reach'}",2,155,A,42.90512248375064,26.298392155514,2.1452561241875316,0.4130941779849312,B,Incorrect,0.0,0.0,-45,45,2005,828,-1.09
"{'cat': 'RB', 'resp': 'reach'}",2,156,A,37.45115490176424,33.08522753280299,1.8725577450882123,0.5197015387970031,A,Correct,0.0,0.0,-45,45,2006,1751,-2.25
"{'cat': 'RB', 'resp': 'reach'}",2,157,A,36.71504343898322,46.23747179126291,1.8357521719491612,0.7262965084999844,A,Correct,0.0,0.0,-45,45,2013,15500,-2.25
"{'cat': 'RB', 'resp': 'reach'}",2,158,A,46.45813170982082,33.70386696867142,2.3229065854910407,0.5294191043317291,B,Incorrect,0.0,0.0,-45,45,2009,1298,-1.09
"{'cat': 'RB', 'resp': 'reach'}",2,159,B,63.54007730102174,40.817066900139025,3.177003865051087,0.6411529875727994,B,Correct,0.0,0.0,-45,45,2009,3246,-1.07
"{'cat': 'RB', 'resp': 'reach'}",2,160,B,63.66985840004626,85.95466888543986,3.1834929200023128,1.3501727815612052,B,Correct,0.0,0.0,-45,45,2011,849,-1.06
"{'cat': 'RB', 'resp': 'reach'}",2,161,A,34.05365391502902,43.972087379268565,1.702682695751451,0.6907119333685928,A,Correct,0.0,0.0,-45,45,2012,1937,-2.31
"{'cat': 'RB', 'resp': 'reach'}",2,162,A,39.352872955122834,81.73264451221385,1.9676436477561419,1.283853377790186,A,Correct,0.0,0.0,-45,45,2002,26475,-2.31
"{'cat': 'RB', 'resp': 'reach'}",2,163,B,65.49508097466068,40.13172614302731,3.274754048733034,0.6303876801340601,B,Correct,0.0,0.0,-45,45,2006,745,-1.11
"{'cat': 'RB', 'resp': 'reach'}",2,164,B,58.52036712305335,44.20594024388116,2.9260183561526674,0.6943852855760322,B,Correct,0.0,0.0,-45,45,2008,1888,-1.08
"{'cat': 'RB', 'resp': 'reach'}",2,165,A,48.16037081518485,53.84201230412382,2.4080185407592425,0.8457483515456332,A,Correct,0.0,0.0,-45,45,2008,1814,-2.27
"{'cat': 'RB', 'resp': 'reach'}",2,166,A,36.63691014158621,80.33854223697065,1.8318455070793107,1.2619548704589016,A,Correct,0.0,0.0,-45,45,2008,1292,-2.22
"{'cat': 'RB', 'resp': 'reach'}",2,167,A,41.885307539212135,22.795131209309428,2.0942653769606068,0.35806508372390966,A,Correct,0.0,0.0,-45,45,2009,1970,-2.39
"{'cat': 'RB', 'resp': 'reach'}",2,168,A,34.59137710355601,30.293409526119714,1.7295688551778006,0.47584776409722374,A,Correct,0.0,0.0,-45,45,2008,1340,-2.27
"{'cat': 'RB', 'resp': 'reach'}",2,169,B,50.628751481949706,54.73166393931426,2.5314375740974855,0.8597229667524753,A,Incorrect,0.0,0.0,-45,45,2008,7816,-2.29
"{'cat': 'RB', 'resp': 'reach'}",2,170,B,59.432877647083465,83.1029804467168,2.9716438823541735,1.3053785643141087,B,Correct,0.0,0.0,-45,45,2009,14971,-1.11
"{'cat': 'RB', 'resp': 'reach'}",2,171,A,33.02077494255472,53.74349404795061,1.6510387471277364,0.844200830396442,A,Correct,0.0,0.0,-45,45,2008,1230,-2.29
"{'cat': 'RB', 'resp': 'reach'}",2,172,B,54.96674284205504,64.16620964576428,2.748337142102752,1.007920464159178,B,Correct,0.0,0.0,-45,45,2011,8995,-1.17
"{'cat': 'RB', 'resp': 'reach'}",2,173,A,35.64406673937994,29.076632951089604,1.7822033369689967,0.4567346823513501,A,Correct,0.0,0.0,-45,45,2007,8394,-2.41
"{'cat': 'RB', 'resp': 'reach'}",2,174,B,60.02892645494522,88.72006313781137,3.0014463227472614,1.3936114928988539,B,Correct,0.0,0.0,-45,45,2003,832,-1.07
"{'cat': 'RB', 'resp': 'reach'}",2,175,B,56.75833629533959,30.9968831396515,2.837916814766979,0.4868979017785524,B,Correct,0.0,0.0,-45,45,2006,982,-1.12
"{'cat': 'RB', 'resp': 'reach'}",2,176,B,53.9652826353757,22.974302819390985,2.698264131768785,0.36087950479372993,B,Correct,0.0,0.0,-45,45,2001,769,-1.17
"{'cat': 'RB', 'resp': 'reach'}",2,177,B,51.34901140800179,52.83097666349283,2.56745057040009,0.8298670408400143,B,Correct,0.0,0.0,-45,45,2003,1307,-1.15
"{'cat': 'RB', 'resp': 'reach'}",2,178,A,37.357905802239465,32.68518062595508,1.8678952901119732,0.5134176166787795,A,Correct,0.0,0.0,-45,45,2008,961,-2.29
"{'cat': 'RB', 'resp': 'reach'}",2,179,A,36.387996120269776,48.291219553723366,1.8193998060134888,0.7585567029143454,A,Correct,0.0,0.0,-45,45,2014,881,-2.35
"{'cat': 'RB', 'resp': 'reach'}",2,180,B,61.38835376310655,15.678919074686796,3.069417688155328,0.24628388490632455,B,Correct,0.0,0.0,-45,45,2003,847,-1.05
"{'cat': 'RB', 'resp': 'reach'}",2,181,B,63.68358743132893,63.70946993132744,3.1841793715664464,1.0007460135017905,B,Correct,0.0,0.0,-45,45,2001,2316,-0.99
"{'cat': 'RB', 'resp': 'reach'}",2,182,A,33.58499972417707,67.25700024337732,1.6792499862088532,1.0564704893354055,A,Correct,0.0,0.0,-45,45,2004,908,-2.3
"{'cat': 'RB', 'resp': 'reach'}",2,183,B,65.24701005340535,55.50553003200698,3.2623505026702673,0.8718788269108037,B,Correct,0.0,0.0,-45,45,2001,833,-1.11
"{'cat': 'RB', 'resp': 'reach'}",2,184,B,52.95185336831382,65.63276326947044,2.647592668415691,1.0309570346108319,B,Correct,0.0,0.0,-45,45,2004,1888,-0.98
"{'cat': 'RB', 'resp': 'reach'}",2,185,B,54.20056934139136,44.37318948687105,2.7100284670695682,0.6970124305415096,B,Correct,0.0,0.0,-45,45,2004,908,-1.16
"{'cat': 'RB', 'resp': 'reach'}",2,186,A,44.71605581233061,59.54460737400649,2.2358027906165305,0.9353245054353372,A,Correct,0.0,0.0,-45,45,2002,858,-2.34
"{'cat': 'RB', 'resp': 'reach'}",2,187,B,61.78766908038545,27.692876858237433,3.089383454019272,0.4349986924730276,B,Correct,0.0,0.0,-45,45,2007,700,-1.18
"{'cat': 'RB', 'resp': 'reach'}",2,188,A,32.62033311733195,41.26903121458601,1.6310166558665975,0.6482524264225563,A,Correct,0.0,0.0,-45,45,2007,802,-2.29
"{'cat': 'RB', 'resp': 'reach'}",2,189,A,40.90985933830284,63.520840346784084,2.045492966915142,0.9977830269165351,A,Correct,0.0,0.0,-45,45,2006,846,-2.32
"{'cat': 'RB', 'resp': 'reach'}",2,190,A,38.07974463452337,27.235471947491888,1.9039872317261686,0.427813792936457,A,Correct,0.0,0.0,-45,45,2013,2076,-2.29
"{'cat': 'RB', 'resp': 'reach'}",2,191,B,56.53702190303987,54.908397375398515,2.826851095151994,0.8624990890747052,B,Correct,0.0,0.0,-45,45,2009,2474,-0.9
"{'cat': 'RB', 'resp': 'reach'}",2,192,A,34.61396219431934,66.95066900590811,1.7306981097159673,1.051658649509414,A,Correct,0.0,0.0,-45,45,2011,815,-2.38
"{'cat': 'RB', 'resp': 'reach'}",2,193,B,56.77685334331562,81.11374363263599,2.838842667165781,1.2741317055072754,B,Correct,0.0,0.0,-45,45,2002,1909,-1.04
"{'cat': 'RB', 'resp': 'reach'}",2,194,A,49.183300940450025,48.577498325848104,2.459165047022501,0.7630535593512745,A,Correct,0.0,0.0,-45,45,2011,2328,-2.22
"{'cat': 'RB', 'resp': 'reach'}",2,195,B,53.99435601779133,81.49986902029984,2.699717800889567,1.2801969489135216,B,Correct,0.0,0.0,-45,45,2009,3033,-1.1
"{'cat': 'RB', 'resp': 'reach'}",2,196,B,51.70862650336451,69.676321799998,2.5854313251682255,1.0944731034801602,A,Incorrect,0.0,0.0,-45,45,2002,2108,-2.27
"{'cat': 'RB', 'resp': 'reach'}",2,197,B,56.11509616989102,14.875874299532093,2.8057548084945507,0.23366968707567615,B,Correct,0.0,0.0,-45,45,2007,898,-1.04
"{'cat': 'RB', 'resp': 'reach'}",2,198,B,59.12673821700116,42.43537840164895,2.956336910850058,0.6665733651946165,B,Correct,0.0,0.0,-45,45,2005,741,-1.04
"{'cat': 'RB', 'resp': 'reach'}",2,199,A,37.51746011173961,66.20441750361931,1.8758730055869806,1.0399365583228097,A,Correct,0.0,0.0,-45,45,2005,1288,-2.3
"{'cat': 'RB', 'resp': 'reach'}",2,200,B,66.11354932848015,26.11403177305839,3.305677466424007,0.41019825186925335,B,Correct,0.0,0.0,-45,45,2012,1020,-1.0
"{'cat': 'RB', 'resp': 'reach'}",2,201,A,43.69826783567599,38.58352776658647,2.1849133917838,0.6060686369054292,A,Correct,0.0,0.0,-45,45,2001,751,-2.24
"{'cat': 'RB', 'resp': 'reach'}",2,202,A,32.204133884150316,34.18311012478162,1.6102066942075157,0.5369470382243241,A,Correct,0.0,0.0,-45,45,2002,895,-2.37
"{'cat': 'RB', 'resp': 'reach'}",2,203,B,67.26566396223106,36.951043782590645,3.3632831981115534,0.5804256384493078,B,Correct,0.0,0.0,-45,45,2012,689,-0.96
"{'cat': 'RB', 'resp': 'reach'}",2,204,B,57.72913707451598,18.44521333658928,2.8864568537257993,0.2897367335606268,B,Correct,0.0,0.0,-45,45,2001,1038,-0.95
"{'cat': 'RB', 'resp': 'reach'}",2,205,A,46.326946207660896,19.18744922432413,2.316347310383045,0.30139574762131927,B,Incorrect,0.0,0.0,-45,45,2003,1180,-1.09
"{'cat': 'RB', 'resp': 'reach'}",2,206,A,38.002227535034855,83.13230749491714,1.9001113767517426,1.305839232509997,A,Correct,0.0,0.0,-45,45,2002,4431,-2.31
"{'cat': 'RB', 'resp': 'reach'}",2,207,B,64.24359972229374,27.81762919239314,3.212179986114687,0.43695829755553633,B,Correct,0.0,0.0,-45,45,2011,814,-1.0
"{'cat': 'RB', 'resp': 'reach'}",2,208,B,60.05173947632061,69.02298474293518,3.0025869738160305,1.0842105089862275,B,Correct,0.0,0.0,-45,45,2007,840,-1.01
"{'cat': 'RB', 'resp': 'reach'}",2,209,B,64.91848043859171,61.80510264023644,3.2459240219295857,0.9708322820446496,B,Correct,0.0,0.0,-45,45,2005,2532,-1.02
"{'cat': 'RB', 'resp': 'reach'}",2,210,B,60.049706877939535,64.46105659347741,3.0024853438969767,1.0125519091835224,B,Correct,0.0,0.0,-45,45,2007,1240,-0.99
"{'cat': 'RB', 'resp': 'reach'}",2,211,A,43.02637696385405,21.712687256620203,2.151318848192702,0.3410620938754537,A,Correct,0.0,0.0,-45,45,2008,2052,-2.29
"{'cat': 'RB', 'resp': 'reach'}",2,212,A,44.57366724122845,47.42097992640241,2.228683362061423,0.7448870108140743,A,Correct,0.0,0.0,-45,45,2009,746,-2.29
"{'cat': 'RB', 'resp': 'reach'}",2,213,A,43.027263018681914,76.73924594815438,2.151363150934096,1.2054172565637107,A,Correct,0.0,0.0,-45,45,2011,3143,-2.25
"{'cat': 'RB', 'resp': 'reach'}",2,214,B,56.9757833394356,76.28476272920874,2.84878916697178,1.198278250854613,B,Correct,0.0,0.0,-45,45,2011,1143,-1.02
"{'cat': 'RB', 'resp': 'reach'}",2,215,A,38.6973025438635,70.2106449435556,1.934865127193175,1.102866231792378,A,Correct,0.0,0.0,-45,45,2006,2377,-2.29
"{'cat': 'RB', 'resp': 'reach'}",2,216,B,63.57897619175068,34.00147937128037,3.178948809587534,0.5340939890199965,B,Correct,0.0,0.0,-45,45,2006,1007,-0.99
"{'cat': 'RB', 'resp': 'reach'}",2,217,A,45.65064738196693,57.775953661968146,2.2825323690983463,0.9075425578929172,A,Correct,0.0,0.0,-45,45,2008,1392,-2.33
"{'cat': 'RB', 'resp': 'reach'}",2,218,B,57.45230438125065,56.563979463399974,2.8726152190625323,0.8885049117001065,B,Correct,0.0,0.0,-45,45,2004,645,-1.09
"{'cat': 'RB', 'resp': 'reach'}",2,219,B,52.88539287453372,57.85282386188993,2.644269643726686,0.9087500321696884,A,Incorrect,0.0,0.0,-45,45,2008,1705,-2.26
"{'cat': 'RB', 'resp': 'reach'}",2,220,A,44.46278921250524,36.0366315996537,2.223139460625262,0.5660620854679693,A,Correct,0.0,0.0,-45,45,2008,1749,-2.18
"{'cat': 'RB', 'resp': 'reach'}",2,221,B,64.27219670757096,44.8220524883209,3.213609835378548,0.7040631540806253,B,Correct,0.0,0.0,-45,45,2003,2813,-0.85
"{'cat': 'RB', 'resp': 'reach'}",2,222,B,59.880110126520364,17.11737192214111,2.9940055063260185,0.2688790493968135,A,Incorrect,0.0,0.0,-45,45,2006,1714,-2.26
"{'cat': 'RB', 'resp': 'reach'}",2,223,B,63.84535769782181,51.037699685899526,3.1922678848910904,0.8016983119467201,B,Correct,0.0,0.0,-45,45,2009,844,-0.98
"{'cat': 'RB', 'resp': 'reach'}",2,224,B,53.72366033415357,22.855391397159558,2.6861830167076786,0.3590116485411792,A,Incorrect,0.0,0.0,-45,45,2003,2096,-1.7
"{'cat': 'RB', 'resp': 'reach'}",2,225,A,42.00520030005984,61.5580628270352,2.100260015002992,0.9669517897331636,A,Correct,0.0,0.0,-45,45,2005,849,-2.29
"{'cat': 'RB', 'resp': 'reach'}",2,226,B,59.40606134588522,90.29881575236539,2.970303067294261,1.4184104809774472,B,Correct,0.0,0.0,-45,45,2001,899,-0.92
"{'cat': 'RB', 'resp': 'reach'}",2,227,B,63.519622480358755,82.75340775961982,3.175981124017938,1.299887489385711,B,Correct,0.0,0.0,-45,45,2012,1037,-0.97
"{'cat': 'RB', 'resp': 'reach'}",2,228,B,66.19534872036856,72.79407438741474,3.3097674360184275,1.1434466466018554,B,Correct,0.0,0.0,-45,45,2001,3790,-0.99
"{'cat': 'RB', 'resp': 'reach'}",2,229,A,34.23312030041328,29.081893583964117,1.7116560150206641,0.456817316179309,A,Correct,0.0,0.0,-45,45,2007,800,-2.32
"{'cat': 'RB', 'resp': 'reach'}",2,230,A,38.59630460059171,17.703762764632245,1.9298152300295854,0.27809005521132596,A,Correct,0.0,0.0,-45,45,2012,869,-2.42
"{'cat': 'RB', 'resp': 'reach'}",2,231,A,43.52945994181253,76.35548229570182,2.176472997090627,1.1993891112074118,A,Correct,0.0,0.0,-45,45,2006,14564,-2.16
"{'cat': 'RB', 'resp': 'reach'}",2,232,A,33.92209373536481,44.248356456922636,1.6961046867682403,0.6950515578924532,A,Correct,0.0,0.0,-45,45,2007,5022,-2.3
"{'cat': 'RB', 'resp': 'reach'}",2,233,A,44.54887467275813,83.64630440844107,2.2274437336379065,1.3139130771474699,A,Correct,0.0,0.0,-45,45,2007,12167,-2.27
"{'cat': 'RB', 'resp': 'reach'}",2,234,B,56.27269477701485,14.299960293189088,2.813634738850743,0.2246232510185429,B,Correct,0.0,0.0,-45,45,2008,1383,-0.99
"{'cat': 'RB', 'resp': 'reach'}",2,235,B,54.73094585746775,64.68979803879245,2.7365472928733876,1.0161449714043889,B,Correct,0.0,0.0,-45,45,2003,4141,-0.98
"{'cat': 'RB', 'resp': 'reach'}",2,236,B,66.34415569250143,73.04815557824111,3.3172077846250714,1.1474377446144326,B,Correct,0.0,0.0,-45,45,2012,1595,-1.07
"{'cat': 'RB', 'resp': 'reach'}",2,237,B,57.62499694226712,75.81586731179446,2.881249847113356,1.19091285886136,B,Correct,0.0,0.0,-45,45,2004,5308,-1.34
"{'cat': 'RB', 'resp': 'reach'}",2,238,A,44.73448293436761,69.61021724724064,2.2367241467183807,1.0934347355936036,B,Incorrect,0.0,0.0,-45,45,2006,1476,-1.01
"{'cat': 'RB', 'resp': 'reach'}",2,239,A,39.03168121567537,65.18422713513156,1.9515840607837687,1.023911445488289,A,Correct,0.0,0.0,-45,45,2009,831,-2.25
"{'cat': 'RB', 'resp': 'reach'}",2,240,B,68.04889016022904,35.917906549097324,3.4024445080114516,0.5641971567348444,B,Correct,0.0,0.0,-45,45,2009,1636,-1.06
"{'cat': 'RB', 'resp': 'reach'}",2,241,A,42.036356319273715,39.805672204437045,2.101817815963686,0.6252660368433142,A,Correct,0.0,0.0,-45,45,2002,872,-2.36
"{'cat': 'RB', 'resp': 'reach'}",2,242,B,56.055912106072675,74.67072254849697,2.8027956053036336,1.1729249669829989,B,Correct,0.0,0.0,-45,45,2007,1040,-1.13
"{'cat': 'RB', 'resp': 'reach'}",2,243,B,62.04957442269844,52.37875591296162,3.1024787211349225,0.8227635739016659,B,Correct,0.0,0.0,-45,45,2001,731,-0.84
"{'cat': 'RB', 'resp': 'reach'}",2,244,A,33.9599677421316,47.254497811197716,1.69799838710658,0.7422719158636685,A,Correct,0.0,0.0,-45,45,2010,798,-2.28
"{'cat': 'RB', 'resp': 'reach'}",2,245,B,53.8177311183729,75.85298039761528,2.690886555918645,1.1914958298501939,B,Correct,0.0,0.0,-45,45,2008,1493,-1.03
"{'cat': 'RB', 'resp': 'reach'}",2,246,B,61.5537684617288,75.44563300921962,3.0776884230864403,1.1850972320359796,B,Correct,0.0,0.0,-45,45,2006,923,-0.98
"{'cat': 'RB', 'resp': 'reach'}",2,247,A,45.254309838382774,71.70520002081825,2.262715491919139,1.1263426480479466,A,Correct,0.0,0.0,-45,45,2004,1913,-2.3
"{'cat': 'RB', 'resp': 'reach'}",2,248,B,54.985861665531125,75.26526124015211,2.7492930832765565,1.1822639589128925,B,Correct,0.0,0.0,-45,45,2005,12171,-0.95
"{'cat': 'RB', 'resp': 'reach'}",2,249,B,55.09307252499549,22.36958951357188,2.7546536262497745,0.35138069039828346,B,Correct,0.0,0.0,-45,45,2005,7581,-0.88
"{'cat': 'RB', 'resp': 'reach'}",2,250,A,42.82281640596914,19.025841560708514,2.141140820298457,0.2988572203774261,A,Correct,0.0,0.0,-45,45,2006,2007,-2.36
"{'cat': 'RB', 'resp': 'reach'}",2,251,A,35.09374325846656,75.55433591176883,1.754687162923328,1.1868047332363423,A,Correct,0.0,0.0,-45,45,2010,767,-2.32
"{'cat': 'RB', 'resp': 'reach'}",2,252,B,57.89106705709355,59.66590282295961,2.8945533528546776,0.9372298098920621,B,Correct,0.0,0.0,-45,45,2007,966,-0.92
"{'cat': 'RB', 'resp': 'reach'}",2,253,B,63.36312508427492,16.491131218441637,3.168156254213746,0.2590420834262077,B,Correct,0.0,0.0,-45,45,2013,1249,-0.97
"{'cat': 'RB', 'resp': 'reach'}",2,254,B,67.78191922012574,72.24123523597375,3.389095961006287,1.1347626695179363,B,Correct,0.0,0.0,-45,45,2007,909,-0.92
"{'cat': 'RB', 'resp': 'reach'}",2,255,A,47.608420225027125,28.02551976834403,2.380421011251356,0.4402238350863256,A,Correct,0.0,0.0,-45,45,2008,7725,-2.26
"{'cat': 'RB', 'resp': 'reach'}",2,256,B,62.76432747144322,49.900665095038796,3.138216373572161,0.7838378143590925,B,Correct,0.0,0.0,-45,45,2001,963,-0.93
"{'cat': 'RB', 'resp': 'reach'}",2,257,A,39.80899910482145,31.963808557691305,1.9904499552410726,0.5020863307279678,A,Correct,0.0,0.0,-45,45,2009,1669,-2.29
"{'cat': 'RB', 'resp': 'reach'}",2,258,B,62.062981573947205,18.28065797961714,3.1031490786973603,0.2871519040577642,B,Correct,0.0,0.0,-45,45,2003,740,-1.01
"{'cat': 'RB', 'resp': 'reach'}",2,259,A,42.18906933344509,18.866987954512826,2.109453466672255,0.29636195376632307,A,Correct,0.0,0.0,-45,45,2001,2562,-2.29
"{'cat': 'RB', 'resp': 'reach'}",2,260,B,54.99339126953571,47.17518665093163,2.7496695634767856,0.7410260990714704,B,Correct,0.0,0.0,-45,45,2008,1001,-0.98
"{'cat': 'RB', 'resp': 'reach'}",2,261,B,63.1616286696438,54.74842494247527,3.15808143348219,0.8599862479744625,B,Correct,0.0,0.0,-45,45,2008,871,-0.98
"{'cat': 'RB', 'resp': 'reach'}",2,262,B,61.42798316197662,70.01993895459677,3.0713991580988314,1.099870629122835,B,Correct,0.0,0.0,-45,45,2006,909,-1.0
"{'cat': 'RB', 'resp': 'reach'}",2,263,B,64.50735536266112,29.758792543844198,3.2253677681330557,0.4674500201772183,B,Correct,0.0,0.0,-45,45,2011,682,-0.93
"{'cat': 'RB', 'resp': 'reach'}",2,264,A,46.363948739972486,62.80411668210718,2.3181974369986245,0.9865247579185203,A,Correct,0.0,0.0,-45,45,2007,841,-2.3
"{'cat': 'RB', 'resp': 'reach'}",2,265,A,37.979015829957696,41.935825327560295,1.8989507914978847,0.6587264038564409,A,Correct,0.0,0.0,-45,45,2005,3293,-2.35
"{'cat': 'RB', 'resp': 'reach'}",2,266,A,46.12793205876027,52.23376576395083,2.3063966029380136,0.8204860739667897,A,Correct,0.0,0.0,-45,45,2005,4207,-2.26
"{'cat': 'RB', 'resp': 'reach'}",2,267,A,49.076178156537566,51.85999300068343,2.453808907826878,0.8146148651308258,A,Correct,0.0,0.0,-45,45,2012,7782,-2.22
"{'cat': 'RB', 'resp': 'reach'}",2,268,B,60.59015764260033,10.845046133470156,3.0295078821300168,0.17035358630376118,B,Correct,0.0,0.0,-45,45,2002,3303,-1.01
"{'cat': 'RB', 'resp': 'reach'}",2,269,B,57.422111226465105,48.35826281561897,2.8711055613232555,0.7596098160095651,B,Correct,0.0,0.0,-45,45,2009,1529,-0.99
"{'cat': 'RB', 'resp': 'reach'}",2,270,A,36.4949549087883,33.337053208501516,1.8247477454394152,0.523657207260802,A,Correct,0.0,0.0,-45,45,2001,2129,-2.26
"{'cat': 'RB', 'resp': 'reach'}",2,271,A,33.113628165084315,65.17516072613343,1.6556814082542157,1.023769030668774,A,Correct,0.0,0.0,-45,45,2010,1662,-2.28
"{'cat': 'RB', 'resp': 'reach'}",2,272,A,37.73706493198175,84.93365782184361,1.8868532465990875,1.3341347772780658,A,Correct,0.0,0.0,-45,45,2008,5100,-2.27
"{'cat': 'RB', 'resp': 'reach'}",2,273,A,33.888674015634244,69.84481878464496,1.6944337007817123,1.097119847925755,A,Correct,0.0,0.0,-45,45,2003,3809,-2.25
"{'cat': 'RB', 'resp': 'reach'}",2,274,B,61.95587898860527,30.22250562759627,3.0977939494302635,0.47473400826366313,B,Correct,0.0,0.0,-45,45,2004,770,-1.04
"{'cat': 'RB', 'resp': 'reach'}",2,275,A,39.7373448151404,44.338055906254986,1.9868672407570203,0.6964605535477211,A,Correct,0.0,0.0,-45,45,2004,823,-2.43
"{'cat': 'RB', 'resp': 'reach'}",2,276,A,40.173468273868295,72.21358179183181,2.008673413693415,1.1343282902331224,A,Correct,0.0,0.0,-45,45,2003,928,-2.41
"{'cat': 'RB', 'resp': 'reach'}",2,277,A,40.297078113156,40.201610643185575,2.0148539056578,0.6314854232955452,B,Incorrect,0.0,0.0,-45,45,2006,637,-0.84
"{'cat': 'RB', 'resp': 'reach'}",2,278,B,63.598131949214206,37.888970984225324,3.1799065974607106,0.5951585644805956,B,Correct,0.0,0.0,-45,45,2006,853,-0.91
"{'cat': 'RB', 'resp': 'reach'}",2,279,A,35.23083618031059,82.30836682618498,1.7615418090155293,1.2928968027505827,A,Correct,0.0,0.0,-45,45,2004,797,-2.28
"{'cat': 'RB', 'resp': 'reach'}",2,280,B,63.31506389051218,46.63444532857298,3.165753194525609,0.7325321542423986,B,Correct,0.0,0.0,-45,45,2007,1647,-0.86
"{'cat': 'RB', 'resp': 'reach'}",2,281,A,30.851453344271086,44.236628941814395,1.5425726672135542,0.6948673425159086,A,Correct,0.0,0.0,-45,45,2002,744,-2.3
"{'cat': 'RB', 'resp': 'reach'}",2,282,B,54.83802271478761,83.27253542473282,2.7419011357393805,1.3080419276806823,B,Correct,0.0,0.0,-45,45,2011,1687,-0.96
"{'cat': 'RB', 'resp': 'reach'}",2,283,A,44.709639174322966,48.69857811457447,2.2354819587161483,0.764955476225079,B,Incorrect,0.0,0.0,-45,45,2004,1880,-0.95
"{'cat': 'RB', 'resp': 'reach'}",2,284,B,52.511878046546826,48.79191636173149,2.625593902327341,0.7664216299829162,B,Correct,0.0,0.0,-45,45,2004,1655,-0.9
"{'cat': 'RB', 'resp': 'reach'}",2,285,B,61.311716727444356,17.339499906748628,3.0655858363722177,0.27236822761981194,B,Correct,0.0,0.0,-45,45,2012,771,-1.0
"{'cat': 'RB', 'resp': 'reach'}",2,286,B,62.364930017776544,48.62356426397372,3.1182465008888274,0.7637771614152552,B,Correct,0.0,0.0,-45,45,2004,766,-0.76
"{'cat': 'RB', 'resp': 'reach'}",2,287,B,67.7678078992646,67.00733944662554,3.38839039496323,1.0525488267105818,B,Correct,0.0,0.0,-45,45,2001,743,-0.92
"{'cat': 'RB', 'resp': 'reach'}",2,288,B,60.63890506167105,9.370326707570563,3.0319452530835527,0.14718874773119958,B,Correct,0.0,0.0,-45,45,2009,1053,-0.9
"{'cat': 'RB', 'resp': 'reach'}",2,289,B,61.547231635561126,85.27022655936042,3.077361581778056,1.33942158664412,A,Incorrect,0.0,0.0,-45,45,2009,1523,-2.35
"{'cat': 'RB', 'resp': 'reach'}",2,290,B,56.774745994295756,59.42416968344282,2.8387372997147877,0.9334326746158864,B,Correct,0.0,0.0,-45,45,2009,1256,-0.82
"{'cat': 'RB', 'resp': 'reach'}",2,291,B,66.04840305616032,74.67113431592873,3.3024201528080166,1.1729314350106919,B,Correct,0.0,0.0,-45,45,2001,890,-0.95
"{'cat': 'RB', 'resp': 'reach'}",2,292,A,46.09501810145315,42.230978829407924,2.3047509050726576,0.6633626642218701,A,Correct,0.0,0.0,-45,45,2002,818,-2.16
"{'cat': 'RB', 'resp': 'reach'}",2,293,A,35.67101503032175,44.24564926195575,1.7835507515160873,0.6950090333733543,A,Correct,0.0,0.0,-45,45,2003,4282,-2.28
"{'cat': 'RB', 'resp': 'reach'}",2,294,A,45.32429058867622,16.502492960117813,2.2662145294338107,0.259220553247117,B,Incorrect,0.0,0.0,-45,45,2011,1225,-0.92
"{'cat': 'RB', 'resp': 'reach'}",2,295,A,33.138721955512544,32.05376926423031,1.6569360977756273,0.5034994302018413,A,Correct,0.0,0.0,-45,45,2005,989,-2.36
"{'cat': 'RB', 'resp': 'reach'}",2,296,B,52.772421053615545,31.312257965831797,2.638621052680777,0.49185179796382833,B,Correct,0.0,0.0,-45,45,2003,878,-0.94
"{'cat': 'RB', 'resp': 'reach'}",2,297,B,64.56486447251064,67.99385934211392,3.228243223625532,1.0680450449920142,B,Correct,0.0,0.0,-45,45,2002,1205,-0.92
"{'cat': 'RB', 'resp': 'reach'}",2,298,B,52.70280021505308,63.5979680966136,2.635140010752654,0.9989945467777965,B,Correct,0.0,0.0,-45,45,2008,1871,-0.92
"{'cat': 'RB', 'resp': 'reach'}",2,299,A,42.04613198212415,44.04376474599251,2.1023065991062078,0.6918378388122359,A,Correct,0.0,0.0,-45,45,2003,1025,-2.2
"{'cat': 'RB', 'resp': 'reach'}",2,300,B,63.51962420996438,52.113239154983894,3.175981210498219,0.8185928464203267,B,Correct,0.0,0.0,-45,45,2005,1611,-0.92
"{'cat': 'RB', 'resp': 'reach'}",2,301,B,55.49724538387999,80.84259733420825,2.7748622691939993,1.269872549411332,B,Correct,0.0,0.0,-45,45,2005,2253,-0.9
"{'cat': 'RB', 'resp': 'reach'}",2,302,A,34.28553199746266,21.793920572395116,1.7142765998731333,0.3423381038157798,A,Correct,0.0,0.0,-45,45,2003,854,-2.29
"{'cat': 'RB', 'resp': 'reach'}",2,303,A,36.66830157108804,24.809621098239102,1.8334150785544017,0.3897086169028715,A,Correct,0.0,0.0,-45,45,2007,1849,-2.21
"{'cat': 'RB', 'resp': 'reach'}",2,304,A,38.82081945505286,37.94183143046616,1.941040972752643,0.595988894428474,A,Correct,0.0,0.0,-45,45,2009,855,-2.39
"{'cat': 'RB', 'resp': 'reach'}",2,305,A,43.94773742839745,62.00407801962015,2.1973868714198725,0.9739577799952353,A,Correct,0.0,0.0,-45,45,2005,1710,-2.29
"{'cat': 'RB', 'resp': 'reach'}",2,306,B,53.70358421547281,73.69011020512433,2.6851792107736405,1.157521544313204,B,Correct,0.0,0.0,-45,45,2001,983,-0.97
"{'cat': 'RB', 'resp': 'reach'}",2,307,A,36.42295193255537,61.09404031450424,1.8211475966277686,0.9596629411508258,A,Correct,0.0,0.0,-45,45,2005,786,-2.26
"{'cat': 'RB', 'resp': 'reach'}",2,308,A,44.23909625698059,59.64631609039945,2.2119548128490294,0.9369221422164679,A,Correct,0.0,0.0,-45,45,2011,824,-2.29
"{'cat': 'RB', 'resp': 'reach'}",2,309,B,63.777101311339784,34.325669766890364,3.1888550655669894,0.5391863598460602,B,Correct,0.0,0.0,-45,45,2009,916,-0.82
"{'cat': 'RB', 'resp': 'reach'}",2,310,A,41.862353150836014,57.59320674855552,2.093117657541801,0.9046719760897007,A,Correct,0.0,0.0,-45,45,2007,8352,-2.26
"{'cat': 'RB', 'resp': 'reach'}",2,311,B,57.533313146205096,34.901808021835734,2.8766656573102547,0.5482363183920023,B,Correct,0.0,0.0,-45,45,2008,730,-0.93
"{'cat': 'RB', 'resp': 'reach'}",2,312,A,30.904887458653576,59.86736298359484,1.5452443729326788,0.9403943386952753,A,Correct,0.0,0.0,-45,45,2002,754,-2.22
"{'cat': 'RB', 'resp': 'reach'}",2,313,A,40.11015570003306,10.421715260215905,2.005507785001653,0.16370392049649463,A,Correct,0.0,0.0,-45,45,2009,1329,-2.25
"{'cat': 'RB', 'resp': 'reach'}",2,314,A,39.040288999468714,36.5088419009642,1.9520144499734358,0.5734795475357017,A,Correct,0.0,0.0,-45,45,2009,1099,-2.2
"{'cat': 'RB', 'resp': 'reach'}",2,315,B,54.75267607208797,73.92266838054142,2.7376338036043983,1.1611745595903171,B,Correct,0.0,0.0,-45,45,2005,1150,-0.85
"{'cat': 'RB', 'resp': 'reach'}",2,316,B,67.29605301334597,74.09444242753038,3.3648026506672983,1.1638727800108066,B,Correct,0.0,0.0,-45,45,2008,1434,-0.87
"{'cat': 'RB', 'resp': 'reach'}",2,317,B,65.60264907839918,36.71480917152604,3.280132453919959,0.5767148738560869,B,Correct,0.0,0.0,-45,45,2009,2948,-0.87
"{'cat': 'RB', 'resp': 'reach'}",2,318,A,42.684401567263826,72.1176173950809,2.134220078363191,1.132820885013928,A,Correct,0.0,0.0,-45,45,2006,19161,-2.19
"{'cat': 'RB', 'resp': 'reach'}",2,319,B,61.36029084034494,38.43646088583344,3.068014542017247,0.6037585157446289,B,Correct,0.0,0.0,-45,45,2010,825,-0.91
"{'cat': 'RB', 'resp': 'reach'}",2,320,A,32.152768765789325,36.07884357487504,1.6076384382894662,0.5667251496242137,A,Correct,0.0,0.0,-45,45,2006,754,-2.22
"{'cat': 'RB', 'resp': 'reach'}",2,321,A,34.898581761925875,51.904214741651074,1.7449290880962938,0.8153094986135903,A,Correct,0.0,0.0,-45,45,2010,1241,-2.18
"{'cat': 'RB', 'resp': 'reach'}",2,322,A,46.71881556331624,46.38623277793481,2.335940778165812,0.7286332406143302,A,Correct,0.0,0.0,-45,45,2002,1263,-2.27
"{'cat': 'RB', 'resp': 'reach'}",2,323,A,38.10598682895968,57.391897649681965,1.905299341447984,0.9015098201590909,A,Correct,0.0,0.0,-45,45,2012,803,-2.21
"{'cat': 'RB', 'resp': 'reach'}",2,324,A,41.57929230864772,48.281936052978075,2.078964615432386,0.7584108780256406,A,Correct,0.0,0.0,-45,45,2009,1639,-2.29
"{'cat': 'RB', 'resp': 'reach'}",2,325,B,61.455998023611514,83.50686553329058,3.0727999011805758,1.311722776418482,B,Correct,0.0,0.0,-45,45,2006,945,-0.89
"{'cat': 'RB', 'resp': 'reach'}",2,326,A,46.61214011117802,26.337717949479313,2.330607005558901,0.4137119061120212,A,Correct,0.0,0.0,-45,45,2002,1479,-2.21
"{'cat': 'RB', 'resp': 'reach'}",2,327,B,65.7814201641955,66.93588590981089,3.2890710082097745,1.0514264371789321,B,Correct,0.0,0.0,-45,45,2004,962,-0.9
"{'cat': 'RB', 'resp': 'reach'}",2,328,A,39.31461860240033,28.09235401280619,1.9657309301200165,0.4412736649433784,A,Correct,0.0,0.0,-45,45,2008,766,-2.34
"{'cat': 'RB', 'resp': 'reach'}",2,329,A,34.07498306277274,44.76514836415889,1.7037491531386368,0.7031693061884936,A,Correct,0.0,0.0,-45,45,2006,868,-2.28
"{'cat': 'RB', 'resp': 'reach'}",2,330,B,52.284606211818684,33.48921485428244,2.6142303105909344,0.5260473568035194,B,Correct,0.0,0.0,-45,45,2001,787,-0.91
"{'cat': 'RB', 'resp': 'reach'}",2,331,B,61.11889685515173,78.22400507676424,3.0559448427575866,1.2287397984176662,B,Correct,0.0,0.0,-45,45,2012,1412,-0.93
"{'cat': 'RB', 'resp': 'reach'}",2,332,A,31.791131682664833,44.04138170900689,1.5895565841332415,0.6918004061547998,A,Correct,0.0,0.0,-45,45,2006,900,-2.24
"{'cat': 'RB', 'resp': 'reach'}",2,333,A,40.457787762487875,34.119395646904856,2.0228893881243937,0.5359462135461993,B,Incorrect,0.0,0.0,-45,45,2007,3824,-1.06
"{'cat': 'RB', 'resp': 'reach'}",2,334,A,39.85742433192328,37.390556205764085,1.9928712165961642,0.5873294834483235,A,Correct,0.0,0.0,-45,45,2011,2292,-2.32
"{'cat': 'RB', 'resp': 'reach'}",2,335,A,31.177443021244503,51.72079593616661,1.5588721510622252,0.8124283627543892,A,Correct,0.0,0.0,-45,45,2012,897,-2.27
"{'cat': 'RB', 'resp': 'reach'}",2,336,B,57.67611001555102,44.11651207944891,2.8838055007775507,0.6929805512540104,B,Correct,0.0,0.0,-45,45,2005,727,-0.88
"{'cat': 'RB', 'resp': 'reach'}",2,337,B,63.31644263665762,86.4241820108357,3.165822131832881,1.3575478764887428,B,Correct,0.0,0.0,-45,45,2002,751,-0.87
"{'cat': 'RB', 'resp': 'reach'}",2,338,A,33.32533327803334,43.861116872093746,1.666266663901667,0.6889688127180652,A,Correct,0.0,0.0,-45,45,2011,905,-2.28
"{'cat': 'RB', 'resp': 'reach'}",2,339,A,39.62798112489354,36.110757225509005,1.981399056244677,0.5672264480761182,A,Correct,0.0,0.0,-45,45,2001,1188,-2.3
"{'cat': 'RB', 'resp': 'reach'}",2,340,B,55.816276429491005,15.853805246968768,2.79081382147455,0.249030990476602,B,Correct,0.0,0.0,-45,45,2009,798,-0.84
"{'cat': 'RB', 'resp': 'reach'}",2,341,B,64.13759940923191,76.20832170955534,3.206879970461596,1.197077518125733,B,Correct,0.0,0.0,-45,45,2002,2128,-0.78
"{'cat': 'RB', 'resp': 'reach'}",2,342,B,65.72488191663719,34.39600970789356,3.2862440958318593,0.5402912570556081,B,Correct,0.0,0.0,-45,45,2004,1943,-0.87
"{'cat': 'RB', 'resp': 'reach'}",2,343,B,56.47823264342097,16.50194055345085,2.8239116321710482,0.2592118760634834,B,Correct,0.0,0.0,-45,45,2003,1212,-0.91
"{'cat': 'RB', 'resp': 'reach'}",2,344,B,51.81807965487663,43.60632632323298,2.590903982743831,0.6849665721355397,A,Incorrect,0.0,0.0,-45,45,2004,1255,-2.31
"{'cat': 'RB', 'resp': 'reach'}",2,345,A,33.45416169599083,52.109791605152864,1.6727080847995413,0.8185386924342165,A,Correct,0.0,0.0,-45,45,2006,821,-2.29
"{'cat': 'RB', 'resp': 'reach'}",2,346,A,47.379000549073226,38.96617106904492,2.3689500274536615,0.6120791838451732,B,Incorrect,0.0,0.0,-45,45,2012,4316,-1.06
"{'cat': 'RB', 'resp': 'reach'}",2,347,B,65.2487755787925,51.8447133036293,3.262438778939625,0.814374852210754,B,Correct,0.0,0.0,-45,45,2002,1399,-0.96
"{'cat': 'RB', 'resp': 'reach'}",2,348,B,60.50780860800722,32.677154319880785,3.0253904304003605,0.5132915397577872,B,Correct,0.0,0.0,-45,45,2007,773,-0.94
"{'cat': 'RB', 'resp': 'reach'}",2,349,B,56.578752695428044,12.194951107100401,2.8289376347714024,0.19155784404476664,B,Correct,0.0,0.0,-45,45,2009,836,-0.83
"{'cat': 'RB', 'resp': 'reach'}",2,350,B,55.97656061526202,83.94778782965963,2.798828030763101,1.3186487676538667,A,Incorrect,0.0,0.0,-45,45,2004,1352,-2.16
"{'cat': 'RB', 'resp': 'reach'}",2,351,B,65.89242614308614,35.32948598266347,3.294621307154307,0.5549542680911957,B,Correct,0.0,0.0,-45,45,2002,692,-0.83
"{'cat': 'RB', 'resp': 'reach'}",2,352,A,33.70724162512873,30.160084721132986,1.6853620812564367,0.47375350295778573,A,Correct,0.0,0.0,-45,45,2009,1310,-2.37
"{'cat': 'RB', 'resp': 'reach'}",2,353,A,46.12380372993263,29.24872294037647,2.3061901864966314,0.45943786558184985,B,Incorrect,0.0,0.0,-45,45,2013,2330,-0.97
"{'cat': 'RB', 'resp': 'reach'}",2,354,B,58.38971931128338,21.39030343573119,2.919485965564169,0.33599810065874813,B,Correct,0.0,0.0,-45,45,2005,726,-0.84
"{'cat': 'RB', 'resp': 'reach'}",2,355,B,61.31555462096816,37.05821665643997,3.065777731048408,0.5821091060150535,B,Correct,0.0,0.0,-45,45,2012,786,-0.84
"{'cat': 'RB', 'resp': 'reach'}",2,356,A,33.91672284895108,73.72111081754625,1.695836142447554,1.1580085007944116,A,Correct,0.0,0.0,-45,45,2012,843,-2.17
"{'cat': 'RB', 'resp': 'reach'}",2,357,A,45.65970153931371,50.70161893529194,2.2829850769656854,0.7964191678611116,A,Correct,0.0,0.0,-45,45,2005,2044,-2.22
"{'cat': 'RB', 'resp': 'reach'}",2,358,A,39.19948801084118,83.39799946767292,1.959974400542059,1.3100127122586338,A,Correct,0.0,0.0,-45,45,2003,1203,-2.22
"{'cat': 'RB', 'resp': 'reach'}",2,359,A,44.95609010870452,56.32123157567184,2.247804505435226,0.8846918367963007,A,Correct,0.0,0.0,-45,45,2004,1156,-2.21
"{'cat': 'RB', 'resp': 'reach'}",2,360,B,56.85166530956429,80.52765772074169,2.842583265478215,1.2649254895313775,B,Correct,0.0,0.0,-45,45,2008,3182,-1.08
"{'cat': 'RB', 'resp': 'reach'}",2,361,A,41.890343133736955,64.45266422737807,2.0945171566868477,1.0124200822051028,B,Incorrect,0.0,0.0,-45,45,2001,2147,-0.9
"{'cat': 'RB', 'resp': 'reach'}",2,362,A,34.83095911477287,37.52165900151958,1.7415479557386433,0.5893888413483762,A,Correct,0.0,0.0,-45,45,2006,1054,-2.1
"{'cat': 'RB', 'resp': 'reach'}",2,363,A,43.590362968033595,11.986777761312226,2.1795181484016797,0.18828786477575996,A,Correct,0.0,0.0,-45,45,2003,1168,-2.33
"{'cat': 'RB', 'resp': 'reach'}",2,364,A,40.40351683291955,25.0808511672334,2.0201758416459774,0.3939690888637972,A,Correct,0.0,0.0,-45,45,2002,1464,-2.27
"{'cat': 'RB', 'resp': 'reach'}",2,365,B,63.37679908309511,67.51613891313932,3.168839954154755,1.0605410300413323,B,Correct,0.0,0.0,-45,45,2009,756,-0.81
"{'cat': 'RB', 'resp': 'reach'}",2,366,B,55.08797187153364,33.79922877965663,2.7543985935766817,0.53091704415585,B,Correct,0.0,0.0,-45,45,2005,774,-0.94
"{'cat': 'RB', 'resp': 'reach'}",2,367,A,47.243314716840615,73.5534854853258,2.362165735842031,1.1553754482331149,A,Correct,0.0,0.0,-45,45,2007,1244,-2.3
"{'cat': 'RB', 'resp': 'reach'}",2,368,A,32.05230919790625,57.5943768336094,1.6026154598953124,0.9046903557427475,A,Correct,0.0,0.0,-45,45,2003,893,-2.26
"{'cat': 'RB', 'resp': 'reach'}",2,369,A,34.58153652791349,72.81741140894202,1.7290768263956746,1.143813223678789,A,Correct,0.0,0.0,-45,45,2007,952,-2.26
"{'cat': 'RB', 'resp': 'reach'}",2,370,B,61.10654220774039,17.08183599378627,3.0553271103870197,0.26832085233952324,B,Correct,0.0,0.0,-45,45,2003,730,-0.91
"{'cat': 'RB', 'resp': 'reach'}",2,371,B,62.952053859950034,33.938394897113504,3.1476026929975016,0.5331030604170055,B,Correct,0.0,0.0,-45,45,2005,661,-0.88
"{'cat': 'RB', 'resp': 'reach'}",2,372,B,51.426658188394185,34.896439743848646,2.5713329094197093,0.5481519936785689,A,Incorrect,0.0,0.0,-45,45,2005,840,-2.39
"{'cat': 'RB', 'resp': 'reach'}",2,373,A,43.21978717257009,39.21787269956161,2.1609893586285045,0.6160329038118123,A,Correct,0.0,0.0,-45,45,2005,828,-2.24
"{'cat': 'RB', 'resp': 'reach'}",2,374,A,33.810321182373485,62.53498598307219,1.6905160591186743,0.9822972627838015,A,Correct,0.0,0.0,-45,45,2012,865,-2.18
"{'cat': 'RB', 'resp': 'reach'}",2,375,B,52.54837823152235,37.92015036188065,2.6274189115761173,0.595648328999523,B,Correct,0.0,0.0,-45,45,2009,991,-0.92
"{'cat': 'RB', 'resp': 'reach'}",2,376,B,59.26318161788644,24.497898975386253,2.963159080894322,0.3848120972472918,B,Correct,0.0,0.0,-45,45,2007,917,-1.01
"{'cat': 'RB', 'resp': 'reach'}",2,377,A,44.7202456242629,38.994218273773654,2.236012281213145,0.6125197483068209,A,Correct,0.0,0.0,-45,45,2003,890,-2.21
"{'cat': 'RB', 'resp': 'reach'}",2,378,B,59.30316741325924,31.071287441242035,2.965158370662962,0.48806664181491394,B,Correct,0.0,0.0,-45,45,2002,924,-0.95
"{'cat': 'RB', 'resp': 'reach'}",2,379,A,36.56899575007572,20.90407446341839,1.828449787503786,0.32836043382184604,A,Correct,0.0,0.0,-45,45,2004,3300,-2.48
"{'cat': 'RB', 'resp': 'reach'}",2,380,A,34.851134437476404,46.01275963962628,1.74255672187382,0.7227667382762145,A,Correct,0.0,0.0,-45,45,2008,762,-2.35
"{'cat': 'RB', 'resp': 'reach'}",2,381,A,43.35345801127712,34.528218663296364,2.167672900563856,0.5423679904707692,A,Correct,0.0,0.0,-45,45,2004,2093,-2.41
"{'cat': 'RB', 'resp': 'reach'}",2,382,A,30.903382730450407,39.007788117168815,1.5451691365225204,0.6127329029084239,A,Correct,0.0,0.0,-45,45,2002,900,-2.33
"{'cat': 'RB', 'resp': 'reach'}",2,383,B,65.06780930689284,64.32258230814979,3.2533904653446424,1.010376760196041,B,Correct,0.0,0.0,-45,45,2008,1352,-0.93
"{'cat': 'RB', 'resp': 'reach'}",2,384,A,38.06091984495052,81.97945961885445,1.903045992247526,1.287730340419271,A,Correct,0.0,0.0,-45,45,2006,3075,-2.28
"{'cat': 'RB', 'resp': 'reach'}",2,385,B,67.32934466133193,59.35701324982078,3.3664672330665963,0.9323777838233449,B,Correct,0.0,0.0,-45,45,2008,1359,-0.97
"{'cat': 'RB', 'resp': 'reach'}",2,386,B,62.80084613147037,52.54459008816122,3.1400423065735183,0.8253684910342718,B,Correct,0.0,0.0,-45,45,2005,2992,-0.96
"{'cat': 'RB', 'resp': 'reach'}",2,387,B,59.87155603428585,64.99257958521544,2.993577801714293,1.020901052813814,B,Correct,0.0,0.0,-45,45,2001,1995,-0.93
"{'cat': 'RB', 'resp': 'reach'}",2,388,A,34.92807024745886,54.891990150393845,1.7464035123729431,0.8622413649870029,A,Correct,0.0,0.0,-45,45,2003,1743,-2.26
"{'cat': 'RB', 'resp': 'reach'}",2,389,A,35.91920076094054,55.661826742245715,1.795960038047027,0.8743339298941352,A,Correct,0.0,0.0,-45,45,2001,849,-2.23
"{'cat': 'RB', 'resp': 'reach'}",2,390,B,55.28114349268677,82.56395383729658,2.7640571746343388,1.2969115541328888,B,Correct,0.0,0.0,-45,45,2003,922,-0.9
"{'cat': 'RB', 'resp': 'reach'}",2,391,A,37.14950648288648,69.3702636583382,1.8574753241443238,1.0896655534331114,B,Incorrect,0.0,0.0,-45,45,2001,630,-0.99
"{'cat': 'RB', 'resp': 'reach'}",2,392,A,40.66970637816039,39.89327667704063,2.0334853189080193,0.6266421246810795,B,Incorrect,0.0,0.0,-45,45,2003,1254,-0.8
"{'cat': 'RB', 'resp': 'reach'}",2,393,B,54.692484875655346,81.32846827638667,2.7346242437827675,1.2775045923240345,B,Correct,0.0,0.0,-45,45,2012,2655,-0.98
"{'cat': 'RB', 'resp': 'reach'}",2,394,A,42.24968335884138,89.33547158550351,2.112484167942069,1.4032783061899876,A,Correct,0.0,0.0,-45,45,2011,1428,-2.26
"{'cat': 'RB', 'resp': 'reach'}",2,395,A,44.59789108764954,73.28384044281309,2.229894554382477,1.1511398738099408,A,Correct,0.0,0.0,-45,45,2005,840,-2.24
"{'cat': 'RB', 'resp': 'reach'}",2,396,B,59.22034466789647,36.50326973168221,2.9610172333948235,0.5733920201052974,B,Correct,0.0,0.0,-45,45,2013,895,-0.81
"{'cat': 'RB', 'resp': 'reach'}",2,397,A,31.24749785297093,55.179502405810666,1.5623748926485463,0.8667575969341754,A,Correct,0.0,0.0,-45,45,2001,924,-2.28
"{'cat': 'RB', 'resp': 'reach'}",2,398,A,44.29265257250658,54.46429795061238,2.2146326286253295,0.8555231916228474,A,Correct,0.0,0.0,-45,45,2001,12072,-2.35
