condition,subject,trial,cat,x,y,xt,yt,resp,fb,rotation,su,target_angle_left,target_angle_right,rt,mt,ep
"{'cat': 'II', 'resp': 'button'}",15,0,Left,22.761431427483114,42.02932999507922,1.1380715713741558,0.6601951717392102,Right,Incorrect,0.0,0.0,-45,45,2273,-1,-1
"{'cat': 'II', 'resp': 'button'}",15,1,Left,36.54110240627794,55.806384597352846,1.8270551203138974,0.8766046393722514,Left,Correct,0.0,0.0,-45,45,1777,-1,-1
"{'cat': 'II', 'resp': 'button'}",15,2,Right,49.558314575197215,28.163587561986837,2.4779157287598608,0.4423925989173536,Left,Incorrect,0.0,0.0,-45,45,1948,-1,-1
"{'cat': 'II', 'resp': 'button'}",15,3,Right,57.347584698263844,37.25533596416537,2.8673792349131926,0.5852054488602076,Left,Incorrect,0.0,0.0,-45,45,2343,-1,-1
"{'cat': 'II', 'resp': 'button'}",15,4,Right,42.604857089746005,29.707811571041816,2.1302428544873004,0.46664921292907413,Right,Correct,0.0,0.0,-45,45,2709,-1,-1
"{'cat': 'II', 'resp': 'button'}",15,5,Left,43.24052392114549,62.064628948317576,2.1620261960572744,0.9749089117590545,Right,Incorrect,0.0,0.0,-45,45,850,-1,-1
"{'cat': 'II', 'resp': 'button'}",15,6,Right,34.43328638552333,11.110992190351944,1.7216643192761665,0.17453105719651613,Right,Correct,0.0,0.0,-45,45,849,-1,-1
"{'cat': 'II', 'resp': 'button'}",15,7,Left,49.93620872571833,64.26961749217432,2.4968104362859167,1.0095447908122044,Left,Correct,0.0,0.0,-45,45,2463,-1,-1
"{'cat': 'II', 'resp': 'button'}",15,8,Right,82.8850407943645,68.69508388811283,4.144252039718225,1.079059854403149,Right,Correct,0.0,0.0,-45,45,2040,-1,-1
"{'cat': 'II', 'resp': 'button'}",15,9,Right,46.52103064456936,29.6624082890334,2.3260515322284676,0.4659360198430415,Right,Correct,0.0,0.0,-45,45,1996,-1,-1
"{'cat': 'II', 'resp': 'button'}",15,10,Left,39.204959837282836,50.672857218150995,1.9602479918641418,0.7959673798647385,Right,Incorrect,0.0,0.0,-45,45,1288,-1,-1
"{'cat': 'II', 'resp': 'button'}",15,11,Left,23.75772590688113,47.03746712568078,1.1878862953440565,0.7388628058275505,Right,Incorrect,0.0,0.0,-45,45,2685,-1,-1
"{'cat': 'II', 'resp': 'button'}",15,12,Right,53.58790417487928,33.536691085281795,2.679395208743964,0.526793111696158,Right,Correct,0.0,0.0,-45,45,1527,-1,-1
"{'cat': 'II', 'resp': 'button'}",15,13,Left,41.92684986754613,59.45597565024351,2.0963424933773065,0.933932281574093,Right,Incorrect,0.0,0.0,-45,45,936,-1,-1
"{'cat': 'II', 'resp': 'button'}",15,14,Left,36.06110792534286,46.22395706145343,1.8030553962671432,0.7260842196205606,Left,Correct,0.0,0.0,-45,45,1073,-1,-1
"{'cat': 'II', 'resp': 'button'}",15,15,Right,81.8793996043594,59.415903848207336,4.09396998021797,0.9333028351796285,Right,Correct,0.0,0.0,-45,45,1258,-1,-1
"{'cat': 'II', 'resp': 'button'}",15,16,Right,84.02109679781236,65.50690570924776,4.201054839890618,1.0289800686778603,Right,Correct,0.0,0.0,-45,45,1007,-1,-1
"{'cat': 'II', 'resp': 'button'}",15,17,Right,38.8499235748628,28.929091216966036,1.94249617874314,0.45441710221124754,Left,Incorrect,0.0,0.0,-45,45,864,-1,-1
"{'cat': 'II', 'resp': 'button'}",15,18,Right,50.841301479619304,42.87836094015109,2.542065073980965,0.6735317186377511,Right,Correct,0.0,0.0,-45,45,1348,-1,-1
"{'cat': 'II', 'resp': 'button'}",15,19,Right,81.54546234531844,57.49844193836741,4.077273117265922,0.9031834139321715,Right,Correct,0.0,0.0,-45,45,661,-1,-1
"{'cat': 'II', 'resp': 'button'}",15,20,Left,51.62499659917849,67.58146664275861,2.5812498299589244,1.0615671956185706,Right,Incorrect,0.0,0.0,-45,45,910,-1,-1
"{'cat': 'II', 'resp': 'button'}",15,21,Right,42.32147013660371,26.687856731759965,2.116073506830185,0.41921187324277004,Right,Correct,0.0,0.0,-45,45,1697,-1,-1
"{'cat': 'II', 'resp': 'button'}",15,22,Left,52.384362637785884,79.25541856795316,2.619218131889294,1.2449412036513285,Right,Incorrect,0.0,0.0,-45,45,2510,-1,-1
"{'cat': 'II', 'resp': 'button'}",15,23,Right,60.828548376024706,36.21744235662721,3.0414274188012356,0.5689022541969593,Right,Correct,0.0,0.0,-45,45,923,-1,-1
"{'cat': 'II', 'resp': 'button'}",15,24,Left,11.459216152031068,35.146978678677606,0.5729608076015534,0.5520874500640532,Left,Correct,0.0,0.0,-45,45,1043,-1,-1
"{'cat': 'II', 'resp': 'button'}",15,25,Right,60.50567799728556,36.111568180280116,3.0252838998642777,0.5672391865238747,Right,Correct,0.0,0.0,-45,45,761,-1,-1
"{'cat': 'II', 'resp': 'button'}",15,26,Right,89.6959672528058,66.06482238530215,4.48479836264029,1.0377438033318986,Right,Correct,0.0,0.0,-45,45,799,-1,-1
"{'cat': 'II', 'resp': 'button'}",15,27,Right,36.61755304388967,19.346513807028987,1.8308776521944836,0.3038943282436788,Left,Incorrect,0.0,0.0,-45,45,695,-1,-1
"{'cat': 'II', 'resp': 'button'}",15,28,Right,82.01201218995922,61.7287087640819,4.1006006094979615,0.969632289844118,Right,Correct,0.0,0.0,-45,45,531,-1,-1
"{'cat': 'II', 'resp': 'button'}",15,29,Left,42.676048498898844,70.96239253327988,2.133802424944942,1.1146746553185363,Right,Incorrect,0.0,0.0,-45,45,815,-1,-1
"{'cat': 'II', 'resp': 'button'}",15,30,Right,71.57589589817917,39.11315111533451,3.5787947949089585,0.6143879410134115,Right,Correct,0.0,0.0,-45,45,868,-1,-1
"{'cat': 'II', 'resp': 'button'}",15,31,Left,33.54773533597379,50.69767580226578,1.6773867667986895,0.7963572292723758,Left,Correct,0.0,0.0,-45,45,1600,-1,-1
"{'cat': 'II', 'resp': 'button'}",15,32,Left,10.12774654427443,32.60719727503041,0.5063873272137215,0.5121926570669432,Left,Correct,0.0,0.0,-45,45,1095,-1,-1
"{'cat': 'II', 'resp': 'button'}",15,33,Right,45.106981049925,27.652153580845464,2.25534905249625,0.43435901272760397,Right,Correct,0.0,0.0,-45,45,1657,-1,-1
"{'cat': 'II', 'resp': 'button'}",15,34,Right,58.95633835070348,46.860906682727574,2.947816917535174,0.7360894008750689,Right,Correct,0.0,0.0,-45,45,1611,-1,-1
"{'cat': 'II', 'resp': 'button'}",15,35,Right,67.68296830797145,40.07876307876873,3.3841484153985726,0.6295557382661284,Right,Correct,0.0,0.0,-45,45,1226,-1,-1
"{'cat': 'II', 'resp': 'button'}",15,36,Left,26.407386599936704,57.70597612515926,1.3203693299968353,0.9064433533151417,Left,Correct,0.0,0.0,-45,45,818,-1,-1
"{'cat': 'II', 'resp': 'button'}",15,37,Left,66.46035269896853,83.1138092525258,3.323017634948427,1.3055486627979922,Right,Incorrect,0.0,0.0,-45,45,626,-1,-1
"{'cat': 'II', 'resp': 'button'}",15,38,Left,40.25547933588298,72.35067568936134,2.012773966794149,1.1364817561397762,Left,Correct,0.0,0.0,-45,45,1014,-1,-1
"{'cat': 'II', 'resp': 'button'}",15,39,Left,39.70111912515735,53.0730974581095,1.9850559562578673,0.8336702653882597,Right,Incorrect,0.0,0.0,-45,45,656,-1,-1
"{'cat': 'II', 'resp': 'button'}",15,40,Left,25.48751717799605,41.22661662957954,1.2743758588998026,0.6475861796792495,Left,Correct,0.0,0.0,-45,45,1423,-1,-1
"{'cat': 'II', 'resp': 'button'}",15,41,Right,37.67499676921156,28.289989150473538,1.883749838460578,0.4443781104263131,107,Incorrect,0.0,0.0,-45,45,3093,-1,-1
"{'cat': 'II', 'resp': 'button'}",15,42,Right,48.543076095280995,33.72434692716774,2.4271538047640497,0.5297408027675183,Right,Correct,0.0,0.0,-45,45,660,-1,-1
"{'cat': 'II', 'resp': 'button'}",15,43,Right,63.48514354116583,32.13283731241754,3.174257177058292,0.5047414281984347,Right,Correct,0.0,0.0,-45,45,570,-1,-1
"{'cat': 'II', 'resp': 'button'}",15,44,Right,88.3933536271856,65.23387272884503,4.419667681359281,1.0246912766507554,Right,Correct,0.0,0.0,-45,45,714,-1,-1
"{'cat': 'II', 'resp': 'button'}",15,45,Right,64.09220647532852,36.199367181408995,3.204610323766426,0.5686183300085698,Right,Correct,0.0,0.0,-45,45,846,-1,-1
"{'cat': 'II', 'resp': 'button'}",15,46,Left,53.115983043434696,81.34609718086888,2.655799152171735,1.2777815065080955,Right,Incorrect,0.0,0.0,-45,45,938,-1,-1
"{'cat': 'II', 'resp': 'button'}",15,47,Right,56.40236926301271,43.983939042943845,2.8201184631506355,0.6908980988662682,107,Incorrect,0.0,0.0,-45,45,1127,-1,-1
"{'cat': 'II', 'resp': 'button'}",15,48,Left,52.13365690816244,59.55094733000457,2.6066828454081223,0.9354240932312753,Right,Incorrect,0.0,0.0,-45,45,667,-1,-1
"{'cat': 'II', 'resp': 'button'}",15,49,Right,76.62973079975383,44.975038085891256,3.8314865399876914,0.7064662462277855,Right,Correct,0.0,0.0,-45,45,1198,-1,-1
"{'cat': 'II', 'resp': 'button'}",15,50,Left,64.80782972630969,87.83562917197197,3.2403914863154846,1.3797188366505222,Right,Incorrect,0.0,0.0,-45,45,953,-1,-1
"{'cat': 'II', 'resp': 'button'}",15,51,Right,74.95568260947165,42.89188361626912,3.7477841304735824,0.6737441323374973,Right,Correct,0.0,0.0,-45,45,2130,-1,-1
"{'cat': 'II', 'resp': 'button'}",15,52,Left,50.34976584705073,61.127638856484026,2.5174882923525366,0.960190705814101,Left,Correct,0.0,0.0,-45,45,2740,-1,-1
"{'cat': 'II', 'resp': 'button'}",15,53,Right,60.27598949524634,31.743966347961447,3.013799474762317,0.49863305737278646,Right,Correct,0.0,0.0,-45,45,1181,-1,-1
"{'cat': 'II', 'resp': 'button'}",15,54,Right,67.51328942541997,49.9285592122382,3.3756644712709987,0.7842759741274524,Right,Correct,0.0,0.0,-45,45,1011,-1,-1
"{'cat': 'II', 'resp': 'button'}",15,55,Left,57.1680470382408,81.62382417366115,2.85840235191204,1.2821440319093942,Left,Correct,0.0,0.0,-45,45,1759,-1,-1
"{'cat': 'II', 'resp': 'button'}",15,56,Right,88.52056104764617,65.94626370009658,4.426028052382309,1.0358814878595932,Right,Correct,0.0,0.0,-45,45,1176,-1,-1
"{'cat': 'II', 'resp': 'button'}",15,57,Right,80.44750541609689,65.02896755694199,4.022375270804845,1.0214726337370899,Left,Incorrect,0.0,0.0,-45,45,2499,-1,-1
"{'cat': 'II', 'resp': 'button'}",15,58,Right,80.25090405752188,66.71099702003954,4.012545202876094,1.047893890759034,Right,Correct,0.0,0.0,-45,45,714,-1,-1
"{'cat': 'II', 'resp': 'button'}",15,59,Left,38.51825939977841,67.0897779964462,1.9259129699889204,1.0538437684230275,Left,Correct,0.0,0.0,-45,45,1782,-1,-1
"{'cat': 'II', 'resp': 'button'}",15,60,Right,79.19085273318898,59.460387702484695,3.959542636659449,0.9340015859286339,Right,Correct,0.0,0.0,-45,45,1760,-1,-1
"{'cat': 'II', 'resp': 'button'}",15,61,Right,50.15287600620149,30.89726773715674,2.5076438003100745,0.48533314669524275,107,Incorrect,0.0,0.0,-45,45,2238,-1,-1
"{'cat': 'II', 'resp': 'button'}",15,62,Right,75.33605210660707,46.733653059745855,3.7668026053303536,0.7340905056395588,Right,Correct,0.0,0.0,-45,45,944,-1,-1
"{'cat': 'II', 'resp': 'button'}",15,63,Left,50.9053335219943,63.91494399821416,2.545266676099715,1.0039735925969633,Right,Incorrect,0.0,0.0,-45,45,2281,-1,-1
"{'cat': 'II', 'resp': 'button'}",15,64,Right,83.13686795510921,53.5675728946498,4.156843397755461,0.8414374673823377,Right,Correct,0.0,0.0,-45,45,1159,-1,-1
"{'cat': 'II', 'resp': 'button'}",15,65,Left,63.13412628581733,73.64134632921724,3.1567063142908665,1.156755563141653,Right,Incorrect,0.0,0.0,-45,45,951,-1,-1
"{'cat': 'II', 'resp': 'button'}",15,66,Right,83.27753409190129,53.88131224799615,4.163876704595065,0.8463656736204122,Right,Correct,0.0,0.0,-45,45,1389,-1,-1
"{'cat': 'II', 'resp': 'button'}",15,67,Right,70.25991653974755,50.41322064720554,3.512995826987378,0.7918890181453111,Right,Correct,0.0,0.0,-45,45,962,-1,-1
"{'cat': 'II', 'resp': 'button'}",15,68,Right,58.631365282316324,35.01250670374334,2.9315682641158163,0.5499751692212174,Right,Correct,0.0,0.0,-45,45,1085,-1,-1
"{'cat': 'II', 'resp': 'button'}",15,69,Right,68.39372183730411,47.86243962102863,3.4196860918652057,0.7518214434815429,Right,Correct,0.0,0.0,-45,45,645,-1,-1
"{'cat': 'II', 'resp': 'button'}",15,70,Right,51.72645185694211,36.52182292712655,2.5863225928471056,0.5736834530178403,Right,Correct,0.0,0.0,-45,45,1116,-1,-1
"{'cat': 'II', 'resp': 'button'}",15,71,Left,50.13427024108396,67.53216196227501,2.506713512054198,1.0607927195085962,100,Incorrect,0.0,0.0,-45,45,809,-1,-1
"{'cat': 'II', 'resp': 'button'}",15,72,Right,61.12023856023557,31.892355904085925,3.0560119280117783,0.500963955069737,Right,Correct,0.0,0.0,-45,45,1983,-1,-1
"{'cat': 'II', 'resp': 'button'}",15,73,Left,39.27217627770994,68.99634367511632,1.963608813885497,1.0837920320715102,Left,Correct,0.0,0.0,-45,45,1174,-1,-1
"{'cat': 'II', 'resp': 'button'}",15,74,Right,66.08291505118395,39.69767826085604,3.3041457525591973,0.6235696719443828,Right,Correct,0.0,0.0,-45,45,672,-1,-1
"{'cat': 'II', 'resp': 'button'}",15,75,Left,18.034938918364876,36.88897295352396,0.9017469459182438,0.5794506321463172,Left,Correct,0.0,0.0,-45,45,2675,-1,-1
"{'cat': 'II', 'resp': 'button'}",15,76,Left,34.6712178017648,65.05795482676669,1.7335608900882398,1.0219279647067343,Left,Correct,0.0,0.0,-45,45,1240,-1,-1
"{'cat': 'II', 'resp': 'button'}",15,77,Left,12.024479244354293,35.134223991672286,0.6012239622177147,0.5518870999090796,Left,Correct,0.0,0.0,-45,45,1019,-1,-1
"{'cat': 'II', 'resp': 'button'}",15,78,Right,57.77570272806328,40.872864865381246,2.888785136403164,0.6420294599612505,Left,Incorrect,0.0,0.0,-45,45,976,-1,-1
"{'cat': 'II', 'resp': 'button'}",15,79,Left,23.724581131499818,46.36274219607183,1.186229056574991,0.7282642514172838,Left,Correct,0.0,0.0,-45,45,711,-1,-1
"{'cat': 'II', 'resp': 'button'}",15,80,Right,63.0745356192566,50.48290490398226,3.1537267809628298,0.7929836158911139,Right,Correct,0.0,0.0,-45,45,973,-1,-1
"{'cat': 'II', 'resp': 'button'}",15,81,Right,70.9264384905987,56.200851222557056,3.5463219245299347,0.8828009066313911,Right,Correct,0.0,0.0,-45,45,1108,-1,-1
"{'cat': 'II', 'resp': 'button'}",15,82,Left,50.79351764458807,58.97667377148653,2.5396758822294037,0.9264034252683195,Right,Incorrect,0.0,0.0,-45,45,1165,-1,-1
"{'cat': 'II', 'resp': 'button'}",15,83,Right,69.68779957587283,48.975273090736295,3.4843899787936414,0.7693017907470551,107,Incorrect,0.0,0.0,-45,45,481,-1,-1
"{'cat': 'II', 'resp': 'button'}",15,84,Left,63.96583142740074,82.44517772743234,3.198291571370037,1.2950458233620314,Right,Incorrect,0.0,0.0,-45,45,1170,-1,-1
"{'cat': 'II', 'resp': 'button'}",15,85,Right,43.24989372883991,33.154836858350016,2.1624946864419954,0.5207949595258026,Left,Incorrect,0.0,0.0,-45,45,954,-1,-1
"{'cat': 'II', 'resp': 'button'}",15,86,Right,48.00813548024098,25.30235930629946,2.400406774012049,0.3974485305757986,Right,Correct,0.0,0.0,-45,45,4752,-1,-1
"{'cat': 'II', 'resp': 'button'}",15,87,Left,53.82558145412048,80.33915897664336,2.691279072706024,1.2619645581830266,Right,Incorrect,0.0,0.0,-45,45,3410,-1,-1
"{'cat': 'II', 'resp': 'button'}",15,88,Left,18.951829049694922,38.45016723609178,0.9475914524847461,0.6039738145910245,Left,Correct,0.0,0.0,-45,45,2472,-1,-1
"{'cat': 'II', 'resp': 'button'}",15,89,Right,46.03084915701824,26.08046197124964,2.301542457850912,0.4096709386555292,107,Incorrect,0.0,0.0,-45,45,1850,-1,-1
"{'cat': 'II', 'resp': 'button'}",15,90,Right,63.59719617889205,53.794667835628616,3.1798598089446024,0.8450046663735699,Right,Correct,0.0,0.0,-45,45,2302,-1,-1
"{'cat': 'II', 'resp': 'button'}",15,91,Right,77.74519839412599,49.29152131786054,3.8872599197062994,0.7742694062822767,Right,Correct,0.0,0.0,-45,45,882,-1,-1
"{'cat': 'II', 'resp': 'button'}",15,92,Right,39.131568827029206,15.51009598742435,1.9565784413514604,0.2436320180528243,Left,Incorrect,0.0,0.0,-45,45,928,-1,-1
"{'cat': 'II', 'resp': 'button'}",15,93,Right,65.38051855511593,40.75607703338623,3.2690259277557967,0.6401949609861292,Right,Correct,0.0,0.0,-45,45,698,-1,-1
"{'cat': 'II', 'resp': 'button'}",15,94,Right,68.2845109011764,55.6503643516406,3.4142255450588204,0.8741538790835471,Right,Correct,0.0,0.0,-45,45,646,-1,-1
"{'cat': 'II', 'resp': 'button'}",15,95,Right,41.05319903970645,19.246295550114915,2.0526599519853224,0.3023201035452947,Right,Correct,0.0,0.0,-45,45,715,-1,-1
"{'cat': 'II', 'resp': 'button'}",15,96,Left,46.329575222941486,65.46690838033808,2.3164787611470743,1.0283517921045309,Right,Incorrect,0.0,0.0,-45,45,809,-1,-1
"{'cat': 'II', 'resp': 'button'}",15,97,Left,35.65741856368161,43.314572603226054,1.7828709281840804,0.6803837154183834,Right,Incorrect,0.0,0.0,-45,45,834,-1,-1
"{'cat': 'II', 'resp': 'button'}",15,98,Right,63.48001752005824,42.1887095179872,3.1740008760029124,0.6626986994307118,Right,Correct,0.0,0.0,-45,45,912,-1,-1
"{'cat': 'II', 'resp': 'button'}",15,99,Left,56.10443675233507,69.81435552445517,2.8052218376167537,1.0966413321536717,Right,Incorrect,0.0,0.0,-45,45,631,-1,-1
"{'cat': 'II', 'resp': 'button'}",15,100,Right,49.823927261888485,40.65777272777812,2.4911963630944243,0.6386508005645559,Right,Correct,0.0,0.0,-45,45,807,-1,-1
"{'cat': 'II', 'resp': 'button'}",15,101,Right,41.18573931361318,27.84559684593554,2.059286965680659,0.4373976124300709,Right,Correct,0.0,0.0,-45,45,956,-1,-1
"{'cat': 'II', 'resp': 'button'}",15,102,Right,40.9754158420517,29.114312947028047,2.048770792102585,0.45732655834348757,Right,Correct,0.0,0.0,-45,45,690,-1,-1
"{'cat': 'II', 'resp': 'button'}",15,103,Right,56.08514766815916,31.255781915271093,2.804257383407958,0.4909646742361019,Right,Correct,0.0,0.0,-45,45,684,-1,-1
"{'cat': 'II', 'resp': 'button'}",15,104,Left,54.8832429613383,63.14358000346556,2.7441621480669145,0.9918570353012337,Right,Incorrect,0.0,0.0,-45,45,625,-1,-1
"{'cat': 'II', 'resp': 'button'}",15,105,Right,67.6856276285414,47.99272385944715,3.38428138142707,0.7538679435130138,Left,Incorrect,0.0,0.0,-45,45,905,-1,-1
"{'cat': 'II', 'resp': 'button'}",15,106,Left,21.636340850980964,48.032762185539426,1.081817042549048,0.7544968640685814,Right,Incorrect,0.0,0.0,-45,45,2471,-1,-1
"{'cat': 'II', 'resp': 'button'}",15,107,Left,23.124130897155666,46.03557229814005,1.1562065448577834,0.7231250786781928,Right,Incorrect,0.0,0.0,-45,45,3306,-1,-1
"{'cat': 'II', 'resp': 'button'}",15,108,Right,42.31956479617155,34.59481346667583,2.1159782398085776,0.5434140591960901,Right,Correct,0.0,0.0,-45,45,913,-1,-1
"{'cat': 'II', 'resp': 'button'}",15,109,Right,39.262135743142835,27.075341931527177,1.9631067871571417,0.4252984765275873,Left,Incorrect,0.0,0.0,-45,45,1622,-1,-1
"{'cat': 'II', 'resp': 'button'}",15,110,Left,29.964490089975634,42.86033901050278,1.4982245044987819,0.6732486308288177,Right,Incorrect,0.0,0.0,-45,45,2851,-1,-1
"{'cat': 'II', 'resp': 'button'}",15,111,Right,49.89590747891678,36.49057562427706,2.4947953739458395,0.5731926215324579,Right,Correct,0.0,0.0,-45,45,1262,-1,-1
"{'cat': 'II', 'resp': 'button'}",15,112,Left,11.433369208428573,35.61570897835681,0.5716684604214286,0.5594502483939889,Left,Correct,0.0,0.0,-45,45,976,-1,-1
"{'cat': 'II', 'resp': 'button'}",15,113,Right,48.31972917973024,41.06492681470026,2.415986458986512,0.645046362006324,Right,Correct,0.0,0.0,-45,45,847,-1,-1
"{'cat': 'II', 'resp': 'button'}",15,114,Right,65.00042830888636,42.708606682347934,3.2500214154443174,0.670865224991601,Right,Correct,0.0,0.0,-45,45,993,-1,-1
"{'cat': 'II', 'resp': 'button'}",15,115,Right,55.63914310976849,42.87503133089985,2.781957155488424,0.6734794172579359,Right,Correct,0.0,0.0,-45,45,711,-1,-1
"{'cat': 'II', 'resp': 'button'}",15,116,Left,10.184547143373294,32.26756738098888,0.5092273571686647,0.5068577631666416,Left,Correct,0.0,0.0,-45,45,800,-1,-1
"{'cat': 'II', 'resp': 'button'}",15,117,Right,46.304835580911295,18.320637842120526,2.315241779045565,0.287779906269425,Right,Correct,0.0,0.0,-45,45,1264,-1,-1
"{'cat': 'II', 'resp': 'button'}",15,118,Right,75.86544586604684,47.98675231978913,3.7932722933023424,0.7537741427874124,Right,Correct,0.0,0.0,-45,45,985,-1,-1
"{'cat': 'II', 'resp': 'button'}",15,119,Right,33.32312433031782,17.24410607345782,1.666156216515891,0.2708697847904911,Right,Correct,0.0,0.0,-45,45,1686,-1,-1
"{'cat': 'II', 'resp': 'button'}",15,120,Right,41.93978328790773,21.43902164946533,2.096989164395387,0.33676336457056405,Right,Correct,0.0,0.0,-45,45,1717,-1,-1
"{'cat': 'II', 'resp': 'button'}",15,121,Left,51.38883560279241,59.98279655885737,2.5694417801396208,0.9422075650553873,Right,Incorrect,0.0,0.0,-45,45,777,-1,-1
"{'cat': 'II', 'resp': 'button'}",15,122,Right,57.51166428582253,45.786406749428565,2.8755832142911264,0.7192111953913944,Right,Correct,0.0,0.0,-45,45,945,-1,-1
"{'cat': 'II', 'resp': 'button'}",15,123,Right,51.635601198914166,31.33457764045695,2.581780059945708,0.49220239459299275,Right,Correct,0.0,0.0,-45,45,1278,-1,-1
"{'cat': 'II', 'resp': 'button'}",15,124,Right,75.24043843448393,48.26905867676544,3.762021921724197,0.7582086006731048,Right,Correct,0.0,0.0,-45,45,945,-1,-1
"{'cat': 'II', 'resp': 'button'}",15,125,Right,64.39872945008003,56.34639070099829,3.2199364725040014,0.8850870354127822,Right,Correct,0.0,0.0,-45,45,586,-1,-1
"{'cat': 'II', 'resp': 'button'}",15,126,Right,77.05990677830376,65.13924143799086,3.8529953389151874,1.0232048118100194,Right,Correct,0.0,0.0,-45,45,732,-1,-1
"{'cat': 'II', 'resp': 'button'}",15,127,Left,56.89369240440847,71.94558106826038,2.8446846202204235,1.1301185447114785,Right,Incorrect,0.0,0.0,-45,45,837,-1,-1
"{'cat': 'II', 'resp': 'button'}",15,128,Left,35.06489330029376,57.927432147848066,1.753244665014688,0.9099219763850035,Left,Correct,0.0,0.0,-45,45,756,-1,-1
"{'cat': 'II', 'resp': 'button'}",15,129,Left,53.36701611771226,75.3522394516876,2.668350805885613,1.183630209464804,Right,Incorrect,0.0,0.0,-45,45,850,-1,-1
"{'cat': 'II', 'resp': 'button'}",15,130,Left,12.622545284556868,31.293505677027962,0.6311272642278434,0.4915572377001077,Left,Correct,0.0,0.0,-45,45,602,-1,-1
"{'cat': 'II', 'resp': 'button'}",15,131,Right,63.83943378859598,52.70323096835993,3.1919716894297996,0.8278604161532281,Right,Correct,0.0,0.0,-45,45,800,-1,-1
"{'cat': 'II', 'resp': 'button'}",15,132,Left,27.37805926918588,52.76595344230572,1.368902963459294,0.8288456584700437,Right,Incorrect,0.0,0.0,-45,45,900,-1,-1
"{'cat': 'II', 'resp': 'button'}",15,133,Right,59.178763112711046,46.16760437011562,2.9589381556355523,0.7251990336149763,Right,Correct,0.0,0.0,-45,45,482,-1,-1
"{'cat': 'II', 'resp': 'button'}",15,134,Right,74.52584885022999,47.86409173222623,3.7262924425114994,0.7518473947835493,Right,Correct,0.0,0.0,-45,45,951,-1,-1
"{'cat': 'II', 'resp': 'button'}",15,135,Left,16.945214333374786,39.91955103323462,0.8472607166687394,0.6270548413030635,Left,Correct,0.0,0.0,-45,45,585,-1,-1
"{'cat': 'II', 'resp': 'button'}",15,136,Right,77.7758161107121,51.227584775998125,3.8887908055356046,0.80468101996712,Right,Correct,0.0,0.0,-45,45,516,-1,-1
"{'cat': 'II', 'resp': 'button'}",15,137,Left,40.168697983605625,50.0110120249125,2.008434899180281,0.7855711398802796,Right,Incorrect,0.0,0.0,-45,45,811,-1,-1
"{'cat': 'II', 'resp': 'button'}",15,138,Left,29.914059213529484,60.634617536612446,1.495702960676474,0.9524463450312425,Right,Incorrect,0.0,0.0,-45,45,539,-1,-1
"{'cat': 'II', 'resp': 'button'}",15,139,Right,75.73927146552731,49.91736765983315,3.786963573276365,0.7841001776333626,Right,Correct,0.0,0.0,-45,45,623,-1,-1
"{'cat': 'II', 'resp': 'button'}",15,140,Right,57.65638637868969,44.72176418140826,2.8828193189344846,0.7024878290394366,Right,Correct,0.0,0.0,-45,45,937,-1,-1
"{'cat': 'II', 'resp': 'button'}",15,141,Right,80.43737155782205,65.13489671710423,4.0218685778911025,1.023136565093923,Right,Correct,0.0,0.0,-45,45,739,-1,-1
"{'cat': 'II', 'resp': 'button'}",15,142,Right,60.388308385958524,32.39001778041368,3.019415419297926,0.508781209542952,Right,Correct,0.0,0.0,-45,45,1128,-1,-1
"{'cat': 'II', 'resp': 'button'}",15,143,Left,43.63121876858347,72.9053301549847,2.1815609384291736,1.1451942481121917,Right,Incorrect,0.0,0.0,-45,45,714,-1,-1
"{'cat': 'II', 'resp': 'button'}",15,144,Right,71.20262806303315,38.49329634109164,3.5601314031516575,0.6046512849881418,Right,Correct,0.0,0.0,-45,45,1251,-1,-1
"{'cat': 'II', 'resp': 'button'}",15,145,Right,46.87270675784365,35.3467795208292,2.3436353378921826,0.5552259143534758,Right,Correct,0.0,0.0,-45,45,1108,-1,-1
"{'cat': 'II', 'resp': 'button'}",15,146,Left,12.089627736345626,38.777289027359174,0.6044813868172814,0.6091122316723984,Left,Correct,0.0,0.0,-45,45,631,-1,-1
"{'cat': 'II', 'resp': 'button'}",15,147,Left,67.27244631862366,85.47312072256555,3.3636223159311833,1.3426086407070272,Right,Incorrect,0.0,0.0,-45,45,609,-1,-1
"{'cat': 'II', 'resp': 'button'}",15,148,Right,71.90779538320263,62.39209931510889,3.595389769160131,0.9800528042519542,Right,Correct,0.0,0.0,-45,45,891,-1,-1
"{'cat': 'II', 'resp': 'button'}",15,149,Left,37.33076684967902,55.2009867871733,1.8665383424839512,0.8670950728074542,Left,Correct,0.0,0.0,-45,45,775,-1,-1
"{'cat': 'II', 'resp': 'button'}",15,150,Right,83.89742985190392,68.1536240482495,4.194871492595196,1.0705546231275063,Right,Correct,0.0,0.0,-45,45,1052,-1,-1
"{'cat': 'II', 'resp': 'button'}",15,151,Left,27.110264581585735,48.261590577785995,1.3555132290792866,0.7580912920486543,Left,Correct,0.0,0.0,-45,45,655,-1,-1
"{'cat': 'II', 'resp': 'button'}",15,152,Right,59.14086249308227,51.505247066391256,2.957043124654114,0.8090425290255101,Right,Correct,0.0,0.0,-45,45,979,-1,-1
"{'cat': 'II', 'resp': 'button'}",15,153,Right,45.65791838072677,25.223205531396133,2.2828959190363385,0.3962051859870976,Right,Correct,0.0,0.0,-45,45,598,-1,-1
"{'cat': 'II', 'resp': 'button'}",15,154,Left,41.72189516589949,57.66284585926529,2.0860947582949745,0.9057658646827421,Right,Incorrect,0.0,0.0,-45,45,642,-1,-1
"{'cat': 'II', 'resp': 'button'}",15,155,Left,45.05507428672327,67.81638139210335,2.2527537143361633,1.065257227872377,Right,Incorrect,0.0,0.0,-45,45,1150,-1,-1
"{'cat': 'II', 'resp': 'button'}",15,156,Left,24.616692421107885,50.41247488166028,1.2308346210553942,0.7918773036875196,Left,Correct,0.0,0.0,-45,45,1225,-1,-1
"{'cat': 'II', 'resp': 'button'}",15,157,Right,36.39543735058983,18.286545685958508,1.8197718675294914,0.28724438793270685,Left,Incorrect,0.0,0.0,-45,45,1034,-1,-1
"{'cat': 'II', 'resp': 'button'}",15,158,Right,83.8443758219868,67.69749740767399,4.192218791099339,1.0633898026118134,Right,Correct,0.0,0.0,-45,45,6034,-1,-1
"{'cat': 'II', 'resp': 'button'}",15,159,Left,27.089682532127014,52.82062785176362,1.3544841266063508,0.829704482085505,Left,Correct,0.0,0.0,-45,45,3070,-1,-1
"{'cat': 'II', 'resp': 'button'}",15,160,Left,45.98729793809217,78.12338663944936,2.2993648969046085,1.2271592877002455,Right,Incorrect,0.0,0.0,-45,45,1815,-1,-1
"{'cat': 'II', 'resp': 'button'}",15,161,Left,19.229600316316365,45.39788539565589,0.9614800158158182,0.7131083162375194,Left,Correct,0.0,0.0,-45,45,1441,-1,-1
"{'cat': 'II', 'resp': 'button'}",15,162,Left,34.14202271230403,62.68786497373828,1.7071011356152015,0.9846986803536254,Right,Incorrect,0.0,0.0,-45,45,925,-1,-1
"{'cat': 'II', 'resp': 'button'}",15,163,Left,43.51512023565604,66.00136605367199,2.175756011782802,1.036747033605533,Left,Correct,0.0,0.0,-45,45,11412,-1,-1
"{'cat': 'II', 'resp': 'button'}",15,164,Left,47.512649645678586,73.43100074966252,2.375632482283929,1.1534514625044319,Left,Correct,0.0,0.0,-45,45,1407,-1,-1
"{'cat': 'II', 'resp': 'button'}",15,165,Left,36.88256388450393,45.43084609317158,1.8441281942251964,0.7136260616633819,Left,Correct,0.0,0.0,-45,45,1106,-1,-1
"{'cat': 'II', 'resp': 'button'}",15,166,Right,47.780087488282305,39.5698233409819,2.389004374414115,0.6215613315593734,Left,Incorrect,0.0,0.0,-45,45,1808,-1,-1
"{'cat': 'II', 'resp': 'button'}",15,167,Left,22.739447197808907,44.90166782890594,1.1369723598904455,0.7053137489261003,Left,Correct,0.0,0.0,-45,45,712,-1,-1
"{'cat': 'II', 'resp': 'button'}",15,168,Right,78.50224822951753,55.281553256624484,3.925112411475877,0.868360607950222,Right,Correct,0.0,0.0,-45,45,947,-1,-1
"{'cat': 'II', 'resp': 'button'}",15,169,Right,60.66430934237613,50.22037181028922,3.033215467118806,0.7888597556987629,Right,Correct,0.0,0.0,-45,45,1587,-1,-1
"{'cat': 'II', 'resp': 'button'}",15,170,Right,69.47383515777088,52.09172937120953,3.4736917578885436,0.8182549715268975,Right,Correct,0.0,0.0,-45,45,1390,-1,-1
"{'cat': 'II', 'resp': 'button'}",15,171,Left,62.20135860775934,84.6633114476176,3.1100679303879666,1.3298881863621006,Right,Incorrect,0.0,0.0,-45,45,1093,-1,-1
"{'cat': 'II', 'resp': 'button'}",15,172,Left,64.63032905236594,83.21167853435068,3.2315164526182967,1.307085989881958,Right,Incorrect,0.0,0.0,-45,45,1143,-1,-1
"{'cat': 'II', 'resp': 'button'}",15,173,Right,73.3953638581489,53.75383451874358,3.669768192907445,0.8443632581318312,Right,Correct,0.0,0.0,-45,45,2074,-1,-1
"{'cat': 'II', 'resp': 'button'}",15,174,Right,63.36806895958722,41.613661506844295,3.168403447979361,0.653665866394372,Right,Correct,0.0,0.0,-45,45,1339,-1,-1
"{'cat': 'II', 'resp': 'button'}",15,175,Left,42.32111528744279,57.219612990110754,2.116055764372139,0.8988035790549153,Left,Correct,0.0,0.0,-45,45,1368,-1,-1
"{'cat': 'II', 'resp': 'button'}",15,176,Right,56.503043096599946,30.258950099007905,2.8251521548299974,0.4753064766819169,Right,Correct,0.0,0.0,-45,45,3284,-1,-1
"{'cat': 'II', 'resp': 'button'}",15,177,Right,67.2419414813955,48.61767044520372,3.3620970740697746,0.7636845815265081,Right,Correct,0.0,0.0,-45,45,1438,-1,-1
"{'cat': 'II', 'resp': 'button'}",15,178,Right,81.0405570754516,62.17718541187959,4.0520278537725805,0.9766769445542568,Right,Correct,0.0,0.0,-45,45,1222,-1,-1
"{'cat': 'II', 'resp': 'button'}",15,179,Left,30.92556435601133,49.55803164874116,1.5462782178005665,0.7784557407702783,Left,Correct,0.0,0.0,-45,45,1015,-1,-1
"{'cat': 'II', 'resp': 'button'}",15,180,Left,56.13125944689341,83.1454497112272,2.8065629723446706,1.3060456699610548,Right,Incorrect,0.0,0.0,-45,45,938,-1,-1
"{'cat': 'II', 'resp': 'button'}",15,181,Right,64.35635232518565,32.06475453706147,3.2178176162592824,0.5036719864639615,Right,Correct,0.0,0.0,-45,45,944,-1,-1
"{'cat': 'II', 'resp': 'button'}",15,182,Left,28.043039942872284,45.93825085755537,1.402151997143614,0.7215963570643049,Left,Correct,0.0,0.0,-45,45,840,-1,-1
"{'cat': 'II', 'resp': 'button'}",15,183,Right,72.21543746215316,55.53969870655622,3.610771873107658,0.8724155471955378,Right,Correct,0.0,0.0,-45,45,1065,-1,-1
"{'cat': 'II', 'resp': 'button'}",15,184,Left,64.00040005856472,75.36071989629733,3.2000200029282357,1.1837634199772291,Left,Correct,0.0,0.0,-45,45,2461,-1,-1
"{'cat': 'II', 'resp': 'button'}",15,185,Left,31.080306634394915,47.612218224893546,1.5540153317197456,0.7478909749821981,Left,Correct,0.0,0.0,-45,45,901,-1,-1
"{'cat': 'II', 'resp': 'button'}",15,186,Right,51.72153767322514,30.67029627064018,2.5860768836612573,0.48176788723632813,Left,Incorrect,0.0,0.0,-45,45,1428,-1,-1
"{'cat': 'II', 'resp': 'button'}",15,187,Right,37.594826035007,21.235691112540586,1.8797413017503501,0.3335694559652978,Left,Incorrect,0.0,0.0,-45,45,1047,-1,-1
"{'cat': 'II', 'resp': 'button'}",15,188,Left,68.28808933552443,89.62761261167162,3.4144044667762214,1.4078672466980975,Right,Incorrect,0.0,0.0,-45,45,740,-1,-1
"{'cat': 'II', 'resp': 'button'}",15,189,Left,56.935277860923065,76.50251302290481,2.846763893046153,1.201698664469576,Right,Incorrect,0.0,0.0,-45,45,3457,-1,-1
"{'cat': 'II', 'resp': 'button'}",15,190,Right,43.3513065625841,31.8984183263411,2.1675653281292053,0.5010591833758362,Left,Incorrect,0.0,0.0,-45,45,7476,-1,-1
"{'cat': 'II', 'resp': 'button'}",15,191,Left,48.688226153186854,71.49686440517436,2.4344113076593428,1.123070119850007,Right,Incorrect,0.0,0.0,-45,45,1326,-1,-1
"{'cat': 'II', 'resp': 'button'}",15,192,Right,69.30580743515826,54.47579623582142,3.465290371757913,0.8557038062645554,Right,Correct,0.0,0.0,-45,45,648,-1,-1
"{'cat': 'II', 'resp': 'button'}",15,193,Left,25.121849448404344,57.35683448001147,1.2560924724202172,0.9009590491778489,Left,Correct,0.0,0.0,-45,45,732,-1,-1
"{'cat': 'II', 'resp': 'button'}",15,194,Left,41.40499782650088,51.28312449703809,2.070249891325044,0.8055534358651282,Right,Incorrect,0.0,0.0,-45,45,1744,-1,-1
"{'cat': 'II', 'resp': 'button'}",15,195,Left,16.282326193143167,38.793369787773514,0.8141163096571583,0.6093648276663075,Left,Correct,0.0,0.0,-45,45,634,-1,-1
"{'cat': 'II', 'resp': 'button'}",15,196,Left,17.761578607616862,38.05341046204113,0.8880789303808431,0.5977415737579269,Left,Correct,0.0,0.0,-45,45,946,-1,-1
"{'cat': 'II', 'resp': 'button'}",15,197,Left,33.871667381796144,49.819433802510275,1.6935833690898072,0.7825618361998465,Left,Correct,0.0,0.0,-45,45,2989,-1,-1
"{'cat': 'II', 'resp': 'button'}",15,198,Left,28.46792913954323,37.79641151624555,1.4233964569771616,0.5937046437574683,Right,Incorrect,0.0,0.0,-45,45,1162,-1,-1
"{'cat': 'II', 'resp': 'button'}",15,199,Right,39.820239646829364,22.986401188259958,1.991011982341468,0.36106954552752596,Left,Incorrect,0.0,0.0,-45,45,1272,-1,-1
"{'cat': 'II', 'resp': 'button'}",15,200,Left,18.542904052323284,34.497774068512484,0.9271452026161642,0.5418897678941964,Left,Correct,0.0,0.0,-45,45,931,-1,-1
"{'cat': 'II', 'resp': 'button'}",15,201,Right,87.36908874322876,66.9217477803195,4.3684544371614376,1.051204355960204,Right,Correct,0.0,0.0,-45,45,1134,-1,-1
"{'cat': 'II', 'resp': 'button'}",15,202,Left,49.67904795960811,77.01909432994776,2.4839523979804055,1.2098131046655158,Right,Incorrect,0.0,0.0,-45,45,1462,-1,-1
"{'cat': 'II', 'resp': 'button'}",15,203,Right,43.40116314453175,34.29434568530167,2.1700581572265873,0.5386943223230628,Left,Incorrect,0.0,0.0,-45,45,1873,-1,-1
"{'cat': 'II', 'resp': 'button'}",15,204,Left,23.282490189546717,39.48100159585073,1.1641245094773358,0.6201661228494577,Left,Correct,0.0,0.0,-45,45,672,-1,-1
"{'cat': 'II', 'resp': 'button'}",15,205,Left,62.220397541430884,81.42339859459786,3.111019877071544,1.2789957542755104,Right,Incorrect,0.0,0.0,-45,45,790,-1,-1
"{'cat': 'II', 'resp': 'button'}",15,206,Left,53.80216172886466,81.87628484108882,2.6901080864432334,1.2861096747999499,Right,Incorrect,0.0,0.0,-45,45,3597,-1,-1
"{'cat': 'II', 'resp': 'button'}",15,207,Right,67.3293742084404,52.77547108130358,3.36646871042202,0.8289951611938194,Right,Correct,0.0,0.0,-45,45,2254,-1,-1
"{'cat': 'II', 'resp': 'button'}",15,208,Left,52.04975084301839,69.16223518624781,2.6024875421509193,1.0863978498348281,Left,Correct,0.0,0.0,-45,45,1400,-1,-1
"{'cat': 'II', 'resp': 'button'}",15,209,Right,56.79366450098586,25.985334410295955,2.839683225049293,0.40817667842229916,Right,Correct,0.0,0.0,-45,45,1258,-1,-1
"{'cat': 'II', 'resp': 'button'}",15,210,Right,79.35557953618222,58.966636227072556,3.967778976809111,0.9262457558893645,Right,Correct,0.0,0.0,-45,45,1568,-1,-1
"{'cat': 'II', 'resp': 'button'}",15,211,Left,42.08423380100902,53.14229184834403,2.104211690050451,0.8347571683284117,Left,Correct,0.0,0.0,-45,45,1948,-1,-1
"{'cat': 'II', 'resp': 'button'}",15,212,Right,83.4100690305719,53.00120314329517,4.170503451528595,0.8325409521319818,Right,Correct,0.0,0.0,-45,45,1621,-1,-1
"{'cat': 'II', 'resp': 'button'}",15,213,Left,32.204614017650876,45.15709349785663,1.6102307008825436,0.7093259659516689,Left,Correct,0.0,0.0,-45,45,853,-1,-1
"{'cat': 'II', 'resp': 'button'}",15,214,Right,42.91478956156358,29.50136104918788,2.1457394780781787,0.46340629571514363,Left,Incorrect,0.0,0.0,-45,45,1099,-1,-1
"{'cat': 'II', 'resp': 'button'}",15,215,Right,44.256306387192495,27.838547059653727,2.212815319359625,0.43728687464610944,Right,Correct,0.0,0.0,-45,45,836,-1,-1
"{'cat': 'II', 'resp': 'button'}",15,216,Right,64.99488717076717,48.434994675410636,3.2497443585383587,0.7608151172446541,Right,Correct,0.0,0.0,-45,45,1529,-1,-1
"{'cat': 'II', 'resp': 'button'}",15,217,Left,30.584108525774305,56.67401287411938,1.5292054262887151,0.890233312473934,Left,Correct,0.0,0.0,-45,45,954,-1,-1
"{'cat': 'II', 'resp': 'button'}",15,218,Right,69.12440532094483,52.95986036692522,3.4562202660472416,0.8318915413193676,Right,Correct,0.0,0.0,-45,45,1006,-1,-1
"{'cat': 'II', 'resp': 'button'}",15,219,Left,20.925270994096334,42.74041112168135,1.0462635497048167,0.6713648079564081,Left,Correct,0.0,0.0,-45,45,967,-1,-1
"{'cat': 'II', 'resp': 'button'}",15,220,Left,42.91203566275217,66.43533879380696,2.1456017831376086,1.0435638614668648,Right,Incorrect,0.0,0.0,-45,45,1608,-1,-1
"{'cat': 'II', 'resp': 'button'}",15,221,Left,32.185128652672404,41.6346177138968,1.6092564326336203,0.6539950457249883,Left,Correct,0.0,0.0,-45,45,1123,-1,-1
"{'cat': 'II', 'resp': 'button'}",15,222,Left,44.91876468710707,67.0286406760355,2.2459382343553536,1.0528834256397155,Right,Incorrect,0.0,0.0,-45,45,1358,-1,-1
"{'cat': 'II', 'resp': 'button'}",15,223,Right,68.7530620539747,53.01548176365907,3.437653102698735,0.8327652401761748,Right,Correct,0.0,0.0,-45,45,1033,-1,-1
"{'cat': 'II', 'resp': 'button'}",15,224,Left,55.2100905471917,64.56353025734086,2.760504527359585,1.014161561731422,Right,Incorrect,0.0,0.0,-45,45,1271,-1,-1
"{'cat': 'II', 'resp': 'button'}",15,225,Right,64.93877702975637,36.92839183026151,3.246938851487818,0.5800698224141745,Right,Correct,0.0,0.0,-45,45,648,-1,-1
"{'cat': 'II', 'resp': 'button'}",15,226,Left,11.301312098535643,34.90814220572257,0.5650656049267822,0.5483358155198291,Left,Correct,0.0,0.0,-45,45,819,-1,-1
"{'cat': 'II', 'resp': 'button'}",15,227,Left,32.59140026922663,48.28314660558435,1.6295700134613316,0.7584298933415138,Right,Incorrect,0.0,0.0,-45,45,3151,-1,-1
"{'cat': 'II', 'resp': 'button'}",15,228,Right,63.23564617517554,52.554271842946534,3.1617823087587773,0.8255205716828087,Right,Correct,0.0,0.0,-45,45,690,-1,-1
"{'cat': 'II', 'resp': 'button'}",15,229,Left,22.44902745098607,50.671018705103045,1.1224513725493035,0.7959385005693136,Left,Correct,0.0,0.0,-45,45,1180,-1,-1
"{'cat': 'II', 'resp': 'button'}",15,230,Right,66.02539450467226,40.772465082641986,3.301269725233613,0.6404523838618721,Right,Correct,0.0,0.0,-45,45,748,-1,-1
"{'cat': 'II', 'resp': 'button'}",15,231,Right,66.51807304748353,38.78400616861977,3.3259036523741763,0.6092177442805853,Right,Correct,0.0,0.0,-45,45,579,-1,-1
"{'cat': 'II', 'resp': 'button'}",15,232,Left,38.02727913814624,48.523359139701036,1.901363956907312,0.7622031430039196,Left,Correct,0.0,0.0,-45,45,814,-1,-1
"{'cat': 'II', 'resp': 'button'}",15,233,Left,59.07693610969099,74.07973521098188,2.9538468054845497,1.163641759593489,Right,Incorrect,0.0,0.0,-45,45,931,-1,-1
"{'cat': 'II', 'resp': 'button'}",15,234,Left,56.38560379632236,79.45182713895747,2.819280189816118,1.2480263822701747,Right,Incorrect,0.0,0.0,-45,45,1615,-1,-1
"{'cat': 'II', 'resp': 'button'}",15,235,Right,68.68740075446699,58.72342140778725,3.4343700377233493,0.9224253464418101,Right,Correct,0.0,0.0,-45,45,1242,-1,-1
"{'cat': 'II', 'resp': 'button'}",15,236,Right,89.5593941878865,66.24148075973065,4.4779697093943245,1.0405187465883972,Right,Correct,0.0,0.0,-45,45,614,-1,-1
"{'cat': 'II', 'resp': 'button'}",15,237,Right,45.888164165193295,38.378989545880316,2.294408208259665,0.6028557580476854,Left,Incorrect,0.0,0.0,-45,45,2836,-1,-1
"{'cat': 'II', 'resp': 'button'}",15,238,Left,34.3187334331229,66.72524949236247,1.715936671656145,1.04811776807076,Left,Correct,0.0,0.0,-45,45,1188,-1,-1
"{'cat': 'II', 'resp': 'button'}",15,239,Left,54.909470514973506,82.05998298010054,2.7454735257486753,1.2889951984199366,Right,Incorrect,0.0,0.0,-45,45,1238,-1,-1
"{'cat': 'II', 'resp': 'button'}",15,240,Left,30.203934876638407,43.20570940328432,1.5101967438319204,0.6786736962724673,Left,Correct,0.0,0.0,-45,45,897,-1,-1
"{'cat': 'II', 'resp': 'button'}",15,241,Left,29.580074966346846,43.69326378414377,1.4790037483173424,0.6863321825781351,Left,Correct,0.0,0.0,-45,45,739,-1,-1
"{'cat': 'II', 'resp': 'button'}",15,242,Right,54.418169841760594,22.445533868510857,2.72090849208803,0.352573621536073,Right,Correct,0.0,0.0,-45,45,1777,-1,-1
"{'cat': 'II', 'resp': 'button'}",15,243,Right,56.590908854632154,30.91027253724755,2.829545442731608,0.48553742561737623,Right,Correct,0.0,0.0,-45,45,578,-1,-1
"{'cat': 'II', 'resp': 'button'}",15,244,Right,48.520421819397406,19.850503786039113,2.4260210909698703,0.31181098432138427,Right,Correct,0.0,0.0,-45,45,3575,-1,-1
"{'cat': 'II', 'resp': 'button'}",15,245,Right,55.45900182974498,28.414110231391174,2.7729500914872487,0.4463277998061455,Right,Correct,0.0,0.0,-45,45,1667,-1,-1
"{'cat': 'II', 'resp': 'button'}",15,246,Right,54.610252694705665,38.59521649589266,2.730512634735283,0.6062522430360199,Right,Correct,0.0,0.0,-45,45,777,-1,-1
"{'cat': 'II', 'resp': 'button'}",15,247,Right,64.89640069430004,40.89257353593622,3.2448200347150022,0.642339043034388,Right,Correct,0.0,0.0,-45,45,809,-1,-1
"{'cat': 'II', 'resp': 'button'}",15,248,Right,43.822143430274664,31.598043474891433,2.191107171513733,0.49634090624264915,Right,Correct,0.0,0.0,-45,45,3101,-1,-1
"{'cat': 'II', 'resp': 'button'}",15,249,Right,68.52128086501034,43.43677366121174,3.426064043250517,0.682303245148527,Right,Correct,0.0,0.0,-45,45,2382,-1,-1
"{'cat': 'II', 'resp': 'button'}",15,250,Left,30.222057649482473,52.564381028687784,1.5111028824741237,0.8256793664011012,Left,Correct,0.0,0.0,-45,45,769,-1,-1
"{'cat': 'II', 'resp': 'button'}",15,251,Left,35.960775793123915,49.432264954924605,1.7980387896561956,0.7764802021634765,Left,Correct,0.0,0.0,-45,45,1052,-1,-1
"{'cat': 'II', 'resp': 'button'}",15,252,Right,57.02002252198203,30.382168339059284,2.851001126099101,0.4772419842705853,Right,Correct,0.0,0.0,-45,45,700,-1,-1
"{'cat': 'II', 'resp': 'button'}",15,253,Left,40.69769891959148,57.10841068879517,2.034884945979574,0.8970568173905386,Left,Correct,0.0,0.0,-45,45,1298,-1,-1
"{'cat': 'II', 'resp': 'button'}",15,254,Left,62.68382632651998,71.87999327090189,3.1341913163259987,1.129088293999746,Right,Incorrect,0.0,0.0,-45,45,720,-1,-1
"{'cat': 'II', 'resp': 'button'}",15,255,Right,71.39471558865299,58.106860808037304,3.569735779432649,0.9127404351884734,Right,Correct,0.0,0.0,-45,45,794,-1,-1
"{'cat': 'II', 'resp': 'button'}",15,256,Left,55.90278137090352,69.9539224391764,2.795139068545176,1.0988336441235336,Right,Incorrect,0.0,0.0,-45,45,1679,-1,-1
"{'cat': 'II', 'resp': 'button'}",15,257,Right,43.78224318379772,29.512831356267018,2.189112159189886,0.4635864708774148,Right,Correct,0.0,0.0,-45,45,814,-1,-1
"{'cat': 'II', 'resp': 'button'}",15,258,Right,41.75225504323072,25.353934125687246,2.0876127521615357,0.3982586659442931,Right,Correct,0.0,0.0,-45,45,1653,-1,-1
"{'cat': 'II', 'resp': 'button'}",15,259,Left,66.91237792212932,79.21339168988086,3.3456188961064663,1.2442810469943024,Right,Incorrect,0.0,0.0,-45,45,947,-1,-1
"{'cat': 'II', 'resp': 'button'}",15,260,Left,65.54986585096378,86.0345444727337,3.277493292548189,1.3514274643524224,Right,Incorrect,0.0,0.0,-45,45,790,-1,-1
"{'cat': 'II', 'resp': 'button'}",15,261,Right,84.95292707528698,59.57070291347482,4.247646353764349,0.9357344132107629,Right,Correct,0.0,0.0,-45,45,775,-1,-1
"{'cat': 'II', 'resp': 'button'}",15,262,Left,36.39229931772501,68.96360832825846,1.8196149658862506,1.0832778264455032,Left,Correct,0.0,0.0,-45,45,676,-1,-1
"{'cat': 'II', 'resp': 'button'}",15,263,Right,56.371888408641276,45.222705891932314,2.818594420432064,0.710356603027732,Right,Correct,0.0,0.0,-45,45,1113,-1,-1
"{'cat': 'II', 'resp': 'button'}",15,264,Left,56.254636523963995,85.12451911309607,2.8127318261982,1.337132819430333,Right,Incorrect,0.0,0.0,-45,45,1647,-1,-1
"{'cat': 'II', 'resp': 'button'}",15,265,Right,64.0787551097459,34.15034863754174,3.2039377554872948,0.5364324219861567,Right,Correct,0.0,0.0,-45,45,737,-1,-1
"{'cat': 'II', 'resp': 'button'}",15,266,Left,51.94855717935502,80.65903077980238,2.597427858967751,1.2669890927175007,Left,Correct,0.0,0.0,-45,45,2208,-1,-1
"{'cat': 'II', 'resp': 'button'}",15,267,Right,45.433504229001024,21.77857089967991,2.271675211450051,0.34209699172059427,Left,Incorrect,0.0,0.0,-45,45,1317,-1,-1
"{'cat': 'II', 'resp': 'button'}",15,268,Right,40.443428915791145,19.529584119902356,2.0221714457895574,0.30676998999374566,Right,Correct,0.0,0.0,-45,45,652,-1,-1
"{'cat': 'II', 'resp': 'button'}",15,269,Right,39.71435827152868,20.5540653514247,1.985717913576434,0.32286250354720175,Left,Incorrect,0.0,0.0,-45,45,1198,-1,-1
"{'cat': 'II', 'resp': 'button'}",15,270,Left,55.11500770110474,62.697484092103565,2.755750385055237,0.9848497771115774,Right,Incorrect,0.0,0.0,-45,45,1495,-1,-1
"{'cat': 'II', 'resp': 'button'}",15,271,Left,28.317373877343254,55.372416174011555,1.4158686938671627,0.8697878793189566,Left,Correct,0.0,0.0,-45,45,635,-1,-1
"{'cat': 'II', 'resp': 'button'}",15,272,Right,53.15310101693515,44.58098349462193,2.6576550508467576,0.7002764511825604,Right,Correct,0.0,0.0,-45,45,1042,-1,-1
"{'cat': 'II', 'resp': 'button'}",15,273,Left,51.94023684041667,68.26974304609679,2.5970118420208332,1.0723786160804027,Right,Incorrect,0.0,0.0,-45,45,1040,-1,-1
"{'cat': 'II', 'resp': 'button'}",15,274,Left,55.23272928544833,82.580022362713,2.7616364642724163,1.2971639579399,Right,Incorrect,0.0,0.0,-45,45,825,-1,-1
"{'cat': 'II', 'resp': 'button'}",15,275,Right,78.96586963392761,56.0690671054517,3.94829348169638,0.880730846560601,Right,Correct,0.0,0.0,-45,45,765,-1,-1
"{'cat': 'II', 'resp': 'button'}",15,276,Right,51.70694004598784,20.66892967538707,2.5853470022993923,0.32466678812880045,Right,Correct,0.0,0.0,-45,45,1343,-1,-1
"{'cat': 'II', 'resp': 'button'}",15,277,Left,36.89640392924928,66.20395426304626,1.8448201964624642,1.039929281756904,Left,Correct,0.0,0.0,-45,45,902,-1,-1
"{'cat': 'II', 'resp': 'button'}",15,278,Left,29.469063855273458,61.013996349526735,1.473453192763673,0.9584056134891382,Left,Correct,0.0,0.0,-45,45,715,-1,-1
"{'cat': 'II', 'resp': 'button'}",15,279,Right,54.51874406171234,45.39042930078926,2.7259372030856173,0.7129911961732321,Right,Correct,0.0,0.0,-45,45,1125,-1,-1
"{'cat': 'II', 'resp': 'button'}",15,280,Left,50.69519296877171,65.52299528648827,2.5347596484385857,1.0292328031661508,Right,Incorrect,0.0,0.0,-45,45,696,-1,-1
"{'cat': 'II', 'resp': 'button'}",15,281,Right,44.28238256339365,28.585857646427225,2.214119128169682,0.449025601892897,Right,Correct,0.0,0.0,-45,45,986,-1,-1
"{'cat': 'II', 'resp': 'button'}",15,282,Right,67.6791365609964,38.193412011723346,3.3839568280498202,0.5999407129577911,Left,Incorrect,0.0,0.0,-45,45,1319,-1,-1
"{'cat': 'II', 'resp': 'button'}",15,283,Left,48.72508004112996,74.39138532605662,2.436254002056498,1.168537148153535,Right,Incorrect,0.0,0.0,-45,45,453,-1,-1
"{'cat': 'II', 'resp': 'button'}",15,284,Right,76.67086459557156,47.669363272245874,3.833543229778578,0.7487886072869538,Right,Correct,0.0,0.0,-45,45,737,-1,-1
"{'cat': 'II', 'resp': 'button'}",15,285,Left,64.90500892772671,84.32383807865308,3.245250446386336,1.324555751151959,Right,Incorrect,0.0,0.0,-45,45,466,-1,-1
"{'cat': 'II', 'resp': 'button'}",15,286,Left,28.166377838829277,57.14222368538415,1.4083188919414638,0.8975879506989377,Left,Correct,0.0,0.0,-45,45,1472,-1,-1
"{'cat': 'II', 'resp': 'button'}",15,287,Right,57.94122702019853,33.90749474341163,2.8970613510099263,0.5326176819376826,Right,Correct,0.0,0.0,-45,45,865,-1,-1
"{'cat': 'II', 'resp': 'button'}",15,288,Right,65.06035652528288,39.882313707439174,3.253017826264144,0.6264699187572721,Right,Correct,0.0,0.0,-45,45,2643,-1,-1
"{'cat': 'II', 'resp': 'button'}",15,289,Left,38.18360964829152,49.07180867797284,1.909180482414576,0.7708181682054167,Left,Correct,0.0,0.0,-45,45,820,-1,-1
"{'cat': 'II', 'resp': 'button'}",15,290,Right,34.92272454334497,17.24910822494927,1.7461362271672485,0.2709483584023795,Left,Incorrect,0.0,0.0,-45,45,1958,-1,-1
"{'cat': 'II', 'resp': 'button'}",15,291,Left,29.36315205598128,41.69748644140541,1.4681576027990642,0.6549825853873962,Right,Incorrect,0.0,0.0,-45,45,1050,-1,-1
"{'cat': 'II', 'resp': 'button'}",15,292,Left,27.87250161520881,38.98698178440569,1.3936250807604407,0.61240607779764,Left,Correct,0.0,0.0,-45,45,707,-1,-1
"{'cat': 'II', 'resp': 'button'}",15,293,Left,40.30751643789476,68.41712685458555,2.015375821894738,1.0746937155304344,Left,Correct,0.0,0.0,-45,45,1609,-1,-1
"{'cat': 'II', 'resp': 'button'}",15,294,Right,63.90822320883174,41.43513022631788,3.1954111604415867,0.6508615035976832,Right,Correct,0.0,0.0,-45,45,713,-1,-1
"{'cat': 'II', 'resp': 'button'}",15,295,Right,75.10008162891562,46.28801174531622,3.7550040814457812,0.7270903882418176,Right,Correct,0.0,0.0,-45,45,709,-1,-1
"{'cat': 'II', 'resp': 'button'}",15,296,Left,38.753635446662344,64.25466603862814,1.9376817723331172,1.009309933929099,Left,Correct,0.0,0.0,-45,45,573,-1,-1
"{'cat': 'II', 'resp': 'button'}",15,297,Right,42.65535475044567,26.33378373519721,2.1327677375222835,0.4136501076185896,Left,Incorrect,0.0,0.0,-45,45,449,-1,-1
"{'cat': 'II', 'resp': 'button'}",15,298,Left,58.89508905984901,80.72122080652423,2.9447544529924503,1.2679659713728804,Right,Incorrect,0.0,0.0,-45,45,503,-1,-1
"{'cat': 'II', 'resp': 'button'}",15,299,Right,74.02859469348661,46.072855678668255,3.701429734674331,0.7237107246500348,Right,Correct,0.0,0.0,-45,45,901,-1,-1
"{'cat': 'II', 'resp': 'button'}",15,300,Left,21.028237255340713,47.7216585428755,1.0514118627670357,0.7496100594770913,Left,Correct,0.0,0.0,-45,45,700,-1,-1
"{'cat': 'II', 'resp': 'button'}",15,301,Right,59.01999287574618,27.326628184342646,2.950999643787309,0.42924567175655315,Right,Correct,0.0,0.0,-45,45,610,-1,-1
"{'cat': 'II', 'resp': 'button'}",15,302,Right,82.63812534202597,57.35664237145865,4.131906267101299,0.9009560315437576,Right,Correct,0.0,0.0,-45,45,743,-1,-1
"{'cat': 'II', 'resp': 'button'}",15,303,Left,56.87872864861228,80.271969575167,2.8439364324306142,1.2609091495326403,Left,Correct,0.0,0.0,-45,45,799,-1,-1
"{'cat': 'II', 'resp': 'button'}",15,304,Left,16.04060653728126,36.421839992910265,0.8020303268640631,0.5721129247597491,Left,Correct,0.0,0.0,-45,45,660,-1,-1
"{'cat': 'II', 'resp': 'button'}",15,305,Left,34.76173983153399,61.30838181446631,1.7380869915766994,0.9630298095590271,Right,Incorrect,0.0,0.0,-45,45,1628,-1,-1
"{'cat': 'II', 'resp': 'button'}",15,306,Left,53.52188135863943,70.09967284263766,2.676094067931972,1.1011230861073917,Right,Incorrect,0.0,0.0,-45,45,553,-1,-1
"{'cat': 'II', 'resp': 'button'}",15,307,Right,73.70723628702467,41.32669593701155,3.6853618143512334,0.6491582217642732,Right,Correct,0.0,0.0,-45,45,725,-1,-1
"{'cat': 'II', 'resp': 'button'}",15,308,Right,50.66486836574767,34.37829985462527,2.5332434182873835,0.5400130713309891,Right,Correct,0.0,0.0,-45,45,469,-1,-1
"{'cat': 'II', 'resp': 'button'}",15,309,Right,78.935328720286,51.530436790753484,3.9467664360143,0.8094382082905217,Left,Incorrect,0.0,0.0,-45,45,1169,-1,-1
"{'cat': 'II', 'resp': 'button'}",15,310,Right,88.48998702074358,67.77669878152514,4.424499351037179,1.0646338948830383,Right,Correct,0.0,0.0,-45,45,773,-1,-1
"{'cat': 'II', 'resp': 'button'}",15,311,Left,24.517830730682455,34.99816882758226,1.2258915365341227,0.5497499503891387,Left,Correct,0.0,0.0,-45,45,806,-1,-1
"{'cat': 'II', 'resp': 'button'}",15,312,Left,62.163320392220115,79.77720578020377,3.1081660196110055,1.2531374180150467,Left,Correct,0.0,0.0,-45,45,1029,-1,-1
"{'cat': 'II', 'resp': 'button'}",15,313,Right,35.81445676486517,25.3446881653012,1.7907228382432583,0.3981134307381721,Left,Incorrect,0.0,0.0,-45,45,737,-1,-1
"{'cat': 'II', 'resp': 'button'}",15,314,Right,42.48731744204254,22.560455072502794,2.1243658721021266,0.35437879958708685,Right,Correct,0.0,0.0,-45,45,1855,-1,-1
"{'cat': 'II', 'resp': 'button'}",15,315,Left,35.453246898153935,61.55570373679301,1.7726623449076968,0.9669147332302935,Left,Correct,0.0,0.0,-45,45,593,-1,-1
"{'cat': 'II', 'resp': 'button'}",15,316,Left,39.78475156813318,47.24300246808674,1.989237578406659,0.7420913474363289,Left,Correct,0.0,0.0,-45,45,683,-1,-1
"{'cat': 'II', 'resp': 'button'}",15,317,Right,55.8270973016649,23.52207496801132,2.791354865083245,0.3694838895834636,Right,Correct,0.0,0.0,-45,45,507,-1,-1
"{'cat': 'II', 'resp': 'button'}",15,318,Left,46.714580924172665,54.07666687794047,2.335729046208633,0.8494342969718015,Right,Incorrect,0.0,0.0,-45,45,324,-1,-1
"{'cat': 'II', 'resp': 'button'}",15,319,Right,83.59133873113002,55.72869842833114,4.179566936556501,0.8753843478828307,Right,Correct,0.0,0.0,-45,45,617,-1,-1
"{'cat': 'II', 'resp': 'button'}",15,320,Right,56.79025325005903,38.923375093155116,2.839512662502951,0.6114069462278802,Right,Correct,0.0,0.0,-45,45,437,-1,-1
"{'cat': 'II', 'resp': 'button'}",15,321,Left,43.895598163700036,70.27343645532318,2.194779908185002,1.1038525585527623,Left,Correct,0.0,0.0,-45,45,1407,-1,-1
"{'cat': 'II', 'resp': 'button'}",15,322,Left,26.919403265470812,37.666258462893445,1.3459701632735406,0.5916602043762021,Left,Correct,0.0,0.0,-45,45,463,-1,-1
"{'cat': 'II', 'resp': 'button'}",15,323,Right,36.03655099960743,11.021930782292984,1.8018275499803713,0.17313208387013418,Right,Correct,0.0,0.0,-45,45,1188,-1,-1
"{'cat': 'II', 'resp': 'button'}",15,324,Right,56.39976419382763,41.31378553832612,2.8199882096913815,0.648955425695948,Right,Correct,0.0,0.0,-45,45,353,-1,-1
"{'cat': 'II', 'resp': 'button'}",15,325,Right,76.04771783487023,53.354840298972974,3.8023858917435116,0.8380958715835507,Left,Incorrect,0.0,0.0,-45,45,337,-1,-1
"{'cat': 'II', 'resp': 'button'}",15,326,Right,83.44507934155914,62.97717636679013,4.172253967077957,0.9892431730886831,Right,Correct,0.0,0.0,-45,45,652,-1,-1
"{'cat': 'II', 'resp': 'button'}",15,327,Left,24.498800826747843,57.01207399586638,1.224940041337392,0.8955435641566575,Left,Correct,0.0,0.0,-45,45,472,-1,-1
"{'cat': 'II', 'resp': 'button'}",15,328,Left,44.69054004916483,54.348103750520195,2.2345270024582415,0.8536980173958505,Left,Correct,0.0,0.0,-45,45,463,-1,-1
"{'cat': 'II', 'resp': 'button'}",15,329,Right,37.93720586266304,24.989094292635784,1.896860293133152,0.39252777524803606,Left,Incorrect,0.0,0.0,-45,45,477,-1,-1
"{'cat': 'II', 'resp': 'button'}",15,330,Right,35.050940123477346,18.110230136489296,1.7525470061738673,0.28447482975807625,Right,Correct,0.0,0.0,-45,45,603,-1,-1
"{'cat': 'II', 'resp': 'button'}",15,331,Left,50.51336406087622,66.86379159652492,2.525668203043811,1.0502939823540083,Right,Incorrect,0.0,0.0,-45,45,1176,-1,-1
"{'cat': 'II', 'resp': 'button'}",15,332,Left,18.97504188841247,46.529725134280255,0.9487520944206236,0.730887213277036,Left,Correct,0.0,0.0,-45,45,538,-1,-1
"{'cat': 'II', 'resp': 'button'}",15,333,Left,43.03511646986671,56.02010048851759,2.1517558234933354,0.8799616807404443,Left,Correct,0.0,0.0,-45,45,4152,-1,-1
"{'cat': 'II', 'resp': 'button'}",15,334,Left,34.70705302173102,64.24901946475273,1.735352651086551,1.0092212377540741,Left,Correct,0.0,0.0,-45,45,365,-1,-1
"{'cat': 'II', 'resp': 'button'}",15,335,Right,75.99322152797063,54.272493877815904,3.7996610763985315,0.8525103402927172,Right,Correct,0.0,0.0,-45,45,699,-1,-1
"{'cat': 'II', 'resp': 'button'}",15,336,Left,43.216142817527654,55.29672876792404,2.1608071408763827,0.8685989843242876,Right,Incorrect,0.0,0.0,-45,45,941,-1,-1
"{'cat': 'II', 'resp': 'button'}",15,337,Right,76.09337970610817,62.00810676980318,3.8046689853054083,0.974021063455126,Right,Correct,0.0,0.0,-45,45,1006,-1,-1
"{'cat': 'II', 'resp': 'button'}",15,338,Left,56.54792927275548,81.62727045712478,2.827396463637774,1.2821981660034518,Right,Incorrect,0.0,0.0,-45,45,584,-1,-1
"{'cat': 'II', 'resp': 'button'}",15,339,Right,57.2411469038172,33.2905325617423,2.8620573451908604,0.5229264626503071,Right,Correct,0.0,0.0,-45,45,817,-1,-1
"{'cat': 'II', 'resp': 'button'}",15,340,Left,65.62190744525076,79.26158680409705,3.281095372262538,1.2450380940781047,Left,Correct,0.0,0.0,-45,45,635,-1,-1
"{'cat': 'II', 'resp': 'button'}",15,341,Right,44.721083043871936,21.32690769149302,2.236054152193597,0.3350022826369106,Left,Incorrect,0.0,0.0,-45,45,897,-1,-1
"{'cat': 'II', 'resp': 'button'}",15,342,Left,41.38608765741349,55.69616128327361,2.0693043828706745,0.8748732556034232,Left,Correct,0.0,0.0,-45,45,504,-1,-1
"{'cat': 'II', 'resp': 'button'}",15,343,Right,75.37188791797173,45.28508838469566,3.7685943958985866,0.7113365049326218,Right,Correct,0.0,0.0,-45,45,745,-1,-1
"{'cat': 'II', 'resp': 'button'}",15,344,Right,49.566818314337695,29.477817809443952,2.4783409157168848,0.46303647937003745,Left,Incorrect,0.0,0.0,-45,45,355,-1,-1
"{'cat': 'II', 'resp': 'button'}",15,345,Right,36.125786678785815,16.685804542847695,1.8062893339392907,0.26210000485522755,Left,Incorrect,0.0,0.0,-45,45,645,-1,-1
"{'cat': 'II', 'resp': 'button'}",15,346,Left,39.86799174374222,53.34584769770515,1.993399587187111,0.8379546161331525,Right,Incorrect,0.0,0.0,-45,45,1890,-1,-1
"{'cat': 'II', 'resp': 'button'}",15,347,Right,59.409993315787,44.8776963722006,2.9704996657893497,0.7049372061646937,Left,Incorrect,0.0,0.0,-45,45,614,-1,-1
"{'cat': 'II', 'resp': 'button'}",15,348,Left,21.21489157397582,33.72207142968046,1.060744578698791,0.529705059336572,Left,Correct,0.0,0.0,-45,45,770,-1,-1
"{'cat': 'II', 'resp': 'button'}",15,349,Left,48.46946896580148,63.44821029641074,2.423473448290074,0.9966421567531214,Left,Correct,0.0,0.0,-45,45,1536,-1,-1
"{'cat': 'II', 'resp': 'button'}",15,350,Right,83.07308063106794,56.99389148613414,4.153654031553397,0.8952579539616644,Right,Correct,0.0,0.0,-45,45,921,-1,-1
"{'cat': 'II', 'resp': 'button'}",15,351,Left,62.93946040688731,85.29737271967566,3.1469730203443653,1.3398479975332176,Right,Incorrect,0.0,0.0,-45,45,1736,-1,-1
"{'cat': 'II', 'resp': 'button'}",15,352,Left,41.796264066595256,56.935000098502485,2.0898132033297627,0.8943328902079478,Left,Correct,0.0,0.0,-45,45,1092,-1,-1
"{'cat': 'II', 'resp': 'button'}",15,353,Left,34.55032286061265,52.16168780166301,1.7275161430306327,0.8193538759827441,Left,Correct,0.0,0.0,-45,45,787,-1,-1
"{'cat': 'II', 'resp': 'button'}",15,354,Right,66.55765268951292,51.43755944659699,3.327882634475646,0.8079792943800868,Right,Correct,0.0,0.0,-45,45,1016,-1,-1
"{'cat': 'II', 'resp': 'button'}",15,355,Left,43.18077612211066,65.47347277380673,2.1590388061055332,1.0284549053560128,Left,Correct,0.0,0.0,-45,45,627,-1,-1
"{'cat': 'II', 'resp': 'button'}",15,356,Right,84.64910442400614,62.147542068650864,4.232455221200308,0.976211308007681,Right,Correct,0.0,0.0,-45,45,1426,-1,-1
"{'cat': 'II', 'resp': 'button'}",15,357,Left,20.435489001790383,51.221387678731105,1.0217744500895192,0.804583676190882,Left,Correct,0.0,0.0,-45,45,735,-1,-1
"{'cat': 'II', 'resp': 'button'}",15,358,Left,38.17983989788861,62.06051698374181,1.9089919948944305,0.9748443211705393,Right,Incorrect,0.0,0.0,-45,45,1045,-1,-1
"{'cat': 'II', 'resp': 'button'}",15,359,Right,77.03010812778342,54.61484615653121,3.851505406389171,0.857887997311476,Right,Correct,0.0,0.0,-45,45,509,-1,-1
"{'cat': 'II', 'resp': 'button'}",15,360,Left,44.51444957909219,57.19375669415077,2.225722478954609,0.8983974293077305,Left,Correct,0.0,0.0,-45,45,805,-1,-1
"{'cat': 'II', 'resp': 'button'}",15,361,Left,46.44771483989151,58.59719910050517,2.3223857419945757,0.9204426510754272,Left,Correct,0.0,0.0,-45,45,511,-1,-1
"{'cat': 'II', 'resp': 'button'}",15,362,Right,35.3789611851765,16.409370508963363,1.7689480592588251,0.25775778920496156,Left,Incorrect,0.0,0.0,-45,45,744,-1,-1
"{'cat': 'II', 'resp': 'button'}",15,363,Left,65.06671911875642,77.00550566124762,3.2533359559378208,1.2095996543567138,Left,Correct,0.0,0.0,-45,45,591,-1,-1
"{'cat': 'II', 'resp': 'button'}",15,364,Right,65.14390722010253,44.88853273014509,3.2571953610051265,0.705107423277244,Left,Incorrect,0.0,0.0,-45,45,576,-1,-1
"{'cat': 'II', 'resp': 'button'}",15,365,Left,63.49374259600957,79.36777709297459,3.1746871298004784,1.2467061272352062,Right,Incorrect,0.0,0.0,-45,45,495,-1,-1
"{'cat': 'II', 'resp': 'button'}",15,366,Left,15.064234645413137,35.36155109496418,0.7532117322706569,0.5554579456973978,Left,Correct,0.0,0.0,-45,45,715,-1,-1
"{'cat': 'II', 'resp': 'button'}",15,367,Left,52.452527478898425,60.11541877591715,2.622626373944921,0.9442907899694761,Right,Incorrect,0.0,0.0,-45,45,758,-1,-1
"{'cat': 'II', 'resp': 'button'}",15,368,Left,33.97120209292571,48.58685039423246,1.6985601046462853,0.7632004612979351,Left,Correct,0.0,0.0,-45,45,1049,-1,-1
"{'cat': 'II', 'resp': 'button'}",15,369,Right,38.530716629861935,20.929599268725852,1.9265358314930967,0.3287613765260372,Right,Correct,0.0,0.0,-45,45,1051,-1,-1
"{'cat': 'II', 'resp': 'button'}",15,370,Left,64.25367726046565,83.77300340867097,3.212683863023283,1.3159032603891672,Right,Incorrect,0.0,0.0,-45,45,1363,-1,-1
"{'cat': 'II', 'resp': 'button'}",15,371,Left,33.09146284089681,42.33940967512275,1.6545731420448404,0.6650658919634712,Left,Correct,0.0,0.0,-45,45,700,-1,-1
"{'cat': 'II', 'resp': 'button'}",15,372,Left,41.22666867649888,67.28651700455461,2.0613334338249443,1.0569341375357673,Right,Incorrect,0.0,0.0,-45,45,1142,-1,-1
"{'cat': 'II', 'resp': 'button'}",15,373,Left,60.089685252088756,71.01800674286984,3.004484262604438,1.1155482412799516,Right,Incorrect,0.0,0.0,-45,45,1227,-1,-1
"{'cat': 'II', 'resp': 'button'}",15,374,Left,34.91287658068208,65.2021384471853,1.745643829034104,1.02419279572011,Left,Correct,0.0,0.0,-45,45,705,-1,-1
"{'cat': 'II', 'resp': 'button'}",15,375,Left,42.61076894408734,73.7760866187201,2.130538447204367,1.1588720586598766,Right,Incorrect,0.0,0.0,-45,45,799,-1,-1
"{'cat': 'II', 'resp': 'button'}",15,376,Right,75.38120964572624,57.304056388437246,3.7690604822863123,0.9001300128540486,Right,Correct,0.0,0.0,-45,45,588,-1,-1
"{'cat': 'II', 'resp': 'button'}",15,377,Left,53.89888663192376,81.94969917954758,2.694944331596188,1.2872628645318007,Right,Incorrect,0.0,0.0,-45,45,339,-1,-1
"{'cat': 'II', 'resp': 'button'}",15,378,Left,18.45474826033415,44.638113878632424,0.9227374130167075,0.7011738531560809,Left,Correct,0.0,0.0,-45,45,664,-1,-1
"{'cat': 'II', 'resp': 'button'}",15,379,Left,51.39171847520441,65.7021943342959,2.5695859237602203,1.0320476552267646,Right,Incorrect,0.0,0.0,-45,45,830,-1,-1
"{'cat': 'II', 'resp': 'button'}",15,380,Left,29.19591839449882,51.48171330122952,1.4597959197249408,0.808672861506793,Left,Correct,0.0,0.0,-45,45,605,-1,-1
"{'cat': 'II', 'resp': 'button'}",15,381,Left,16.42674375377807,37.586980631393914,0.8213371876889035,0.5904149111110448,Left,Correct,0.0,0.0,-45,45,562,-1,-1
"{'cat': 'II', 'resp': 'button'}",15,382,Left,69.07539434170366,87.45837740946587,3.4537697170851827,1.3737929798223074,Right,Incorrect,0.0,0.0,-45,45,650,-1,-1
"{'cat': 'II', 'resp': 'button'}",15,383,Right,65.65875587839643,38.2487822909087,3.282937793919822,0.6008104672693707,Right,Correct,0.0,0.0,-45,45,1020,-1,-1
"{'cat': 'II', 'resp': 'button'}",15,384,Right,59.94105031128099,27.94427147534621,2.9970525155640497,0.4389475898843323,Right,Correct,0.0,0.0,-45,45,769,-1,-1
"{'cat': 'II', 'resp': 'button'}",15,385,Left,25.491025908079926,36.634801869168584,1.2745512954039964,0.5754581220894882,Left,Correct,0.0,0.0,-45,45,750,-1,-1
"{'cat': 'II', 'resp': 'button'}",15,386,Right,59.52369093891671,29.80928127571042,2.9761845469458352,0.46824309532281816,Right,Correct,0.0,0.0,-45,45,951,-1,-1
"{'cat': 'II', 'resp': 'button'}",15,387,Left,39.744792855432046,48.54781503834505,1.9872396427716024,0.7625872953615044,Left,Correct,0.0,0.0,-45,45,1345,-1,-1
"{'cat': 'II', 'resp': 'button'}",15,388,Left,57.52347554390804,72.41900188299358,2.8761737771954023,1.1375550214795902,Right,Incorrect,0.0,0.0,-45,45,791,-1,-1
"{'cat': 'II', 'resp': 'button'}",15,389,Left,51.745204308304274,65.36825681620196,2.587260215415214,1.0268021769587552,Right,Incorrect,0.0,0.0,-45,45,1288,-1,-1
"{'cat': 'II', 'resp': 'button'}",15,390,Left,43.35003924480015,68.86305725718373,2.1675019622400074,1.0816983739145083,Right,Incorrect,0.0,0.0,-45,45,632,-1,-1
"{'cat': 'II', 'resp': 'button'}",15,391,Left,65.96625103397,84.10838016460407,3.2983125516985,1.3211713461522883,Left,Correct,0.0,0.0,-45,45,539,-1,-1
"{'cat': 'II', 'resp': 'button'}",15,392,Left,51.890298396042574,80.46950383339694,2.594514919802129,1.2640120104050776,Left,Correct,0.0,0.0,-45,45,471,-1,-1
"{'cat': 'II', 'resp': 'button'}",15,393,Left,37.26859004203595,69.97251025007964,1.8634295021017977,1.0991256207744335,Left,Correct,0.0,0.0,-45,45,466,-1,-1
"{'cat': 'II', 'resp': 'button'}",15,394,Right,53.834344745909696,45.70500830621734,2.6917172372954847,0.7179325916353642,Left,Incorrect,0.0,0.0,-45,45,796,-1,-1
"{'cat': 'II', 'resp': 'button'}",15,395,Right,86.17012298644264,68.81894328441511,4.308506149322131,1.081005433250656,Right,Correct,0.0,0.0,-45,45,560,-1,-1
"{'cat': 'II', 'resp': 'button'}",15,396,Left,47.782212061012885,61.92564522474748,2.3891106030506446,0.9727257605343727,Right,Incorrect,0.0,0.0,-45,45,395,-1,-1
"{'cat': 'II', 'resp': 'button'}",15,397,Left,48.60356223469206,75.92339791202917,2.430178111734603,1.1926019455800274,Left,Correct,0.0,0.0,-45,45,736,-1,-1
"{'cat': 'II', 'resp': 'button'}",15,398,Left,46.30259914378464,59.233336379577516,2.315129957189232,0.9304350720884688,Left,Correct,0.0,0.0,-45,45,527,-1,-1
"{'cat': 'II', 'resp': 'button'}",15,399,Left,29.45344937154905,44.38834137890918,1.4726724685774526,0.6972504359050846,Left,Correct,0.0,0.0,-45,45,1033,-1,-1
