condition,subject,trial,cat,x,y,xt,yt,resp,fb,rotation,su,target_angle_left,target_angle_right,rt,mt,ep
"{'cat': 'RB', 'resp': 'reach'}",22,0,Left,41.0436084085648,64.281298981331,2.05218042042824,1.009728283214793,Right,Incorrect,0.0,0.0,-45,45,2003,1524,1.93
"{'cat': 'RB', 'resp': 'reach'}",22,1,Right,60.37726609502584,59.70338175749119,3.018863304751292,0.9378185276190059,Right,Correct,0.0,0.0,-45,45,2014,865,-0.93
"{'cat': 'RB', 'resp': 'reach'}",22,2,Left,32.56354716996771,27.887174239472333,1.6281773584983856,0.43805070860052403,Left,Correct,0.0,0.0,-45,45,2008,898,-2.72
"{'cat': 'RB', 'resp': 'reach'}",22,3,Left,44.976656040503684,29.425867474811135,2.248832802025184,0.4622204454218674,Right,Incorrect,0.0,0.0,-45,45,2014,660,-0.97
"{'cat': 'RB', 'resp': 'reach'}",22,4,Left,38.05123004695526,48.881403759780895,1.902561502347763,0.7678272947444207,Right,Incorrect,0.0,0.0,-45,45,2006,580,-1.01
"{'cat': 'RB', 'resp': 'reach'}",22,5,Right,56.15245587295436,69.90975629719097,2.807622793647718,1.0981398839875396,Right,Correct,0.0,0.0,-45,45,2010,403,-0.86
"{'cat': 'RB', 'resp': 'reach'}",22,6,Right,68.50652747000532,66.79028101165243,3.4253263735002664,1.0491392807870255,Right,Correct,0.0,0.0,-45,45,2009,444,-0.84
"{'cat': 'RB', 'resp': 'reach'}",22,7,Left,33.449800001888455,54.656542399020104,1.672490000094423,0.858542960356903,Left,Correct,0.0,0.0,-45,45,2001,430,-2.6
"{'cat': 'RB', 'resp': 'reach'}",22,8,Right,65.30105279162458,49.89934247009083,3.265052639581229,0.7838170386149926,Left,Incorrect,0.0,0.0,-45,45,2008,23263,-2.61
"{'cat': 'RB', 'resp': 'reach'}",22,9,Left,46.118893819232824,29.78244797405936,2.305944690961641,0.46782159880612545,Right,Incorrect,0.0,0.0,-45,45,2015,599,-0.84
"{'cat': 'RB', 'resp': 'reach'}",22,10,Right,55.652936283843985,65.52255877316387,2.782646814192199,1.0292259464308853,Right,Correct,0.0,0.0,-45,45,2011,416,2.25
"{'cat': 'RB', 'resp': 'reach'}",22,11,Right,56.143038468302706,82.52692072878222,2.8071519234151356,1.296329839424647,Right,Correct,0.0,0.0,-45,45,2009,1053,0.47
"{'cat': 'RB', 'resp': 'reach'}",22,12,Left,46.28346598270905,52.18018549376403,2.3141732991354527,0.8196444370508088,Left,Correct,0.0,0.0,-45,45,2001,545,-2.39
"{'cat': 'RB', 'resp': 'reach'}",22,13,Left,45.80494867479866,18.733902111208668,2.290247433739933,0.2942714462282173,Left,Correct,0.0,0.0,-45,45,2005,688,-2.39
"{'cat': 'RB', 'resp': 'reach'}",22,14,Left,38.36082126818083,25.81903704873355,1.9180410634090412,0.4055644855753201,Right,Incorrect,0.0,0.0,-45,45,2001,424,2.25
"{'cat': 'RB', 'resp': 'reach'}",22,15,Left,34.30189678797664,35.15586982101931,1.715094839398832,0.5522271118013669,Left,Correct,0.0,0.0,-45,45,2012,825,-2.58
"{'cat': 'RB', 'resp': 'reach'}",22,16,Left,46.00800553492382,55.04129284151492,2.300400276746191,0.8645866061749388,Right,Incorrect,0.0,0.0,-45,45,2001,442,2.33
"{'cat': 'RB', 'resp': 'reach'}",22,17,Left,46.58449235233933,75.87522625988653,2.329224617616967,1.1918452670376143,Left,Correct,0.0,0.0,-45,45,2002,606,-2.69
"{'cat': 'RB', 'resp': 'reach'}",22,18,Right,64.28758433134405,23.955830375022504,3.214379216567203,0.3762973035840696,Right,Correct,0.0,0.0,-45,45,2009,454,-0.9
"{'cat': 'RB', 'resp': 'reach'}",22,19,Left,46.368571484099995,56.46348350687354,2.3184285742049995,0.8869263249064119,Right,Incorrect,0.0,0.0,-45,45,2008,517,-0.78
"{'cat': 'RB', 'resp': 'reach'}",22,20,Left,34.66032710409803,43.1657007093111,1.7330163552049016,0.6780452411771374,Right,Incorrect,0.0,0.0,-45,45,2001,630,-0.85
"{'cat': 'RB', 'resp': 'reach'}",22,21,Left,34.120324863049404,71.24818388361952,1.7060162431524701,1.119163855351969,Left,Correct,0.0,0.0,-45,45,2012,436,-2.7
"{'cat': 'RB', 'resp': 'reach'}",22,22,Right,56.95499766107547,48.800034098755496,2.8477498830537735,0.7665491430979082,Right,Correct,0.0,0.0,-45,45,2008,520,-0.84
"{'cat': 'RB', 'resp': 'reach'}",22,23,Left,43.50854298557933,38.876507815139135,2.1754271492789665,0.6106707567463364,Left,Correct,0.0,0.0,-45,45,2007,364,-2.63
"{'cat': 'RB', 'resp': 'reach'}",22,24,Left,34.07659653845872,51.36127833170182,1.7038298269229362,0.8067810734292754,Right,Incorrect,0.0,0.0,-45,45,2004,490,-0.77
"{'cat': 'RB', 'resp': 'reach'}",22,25,Right,54.77855043041631,32.72972189751509,2.7389275215208153,0.5141172693363519,Left,Incorrect,0.0,0.0,-45,45,2007,524,-2.77
"{'cat': 'RB', 'resp': 'reach'}",22,26,Right,61.37349618007458,31.527459566465016,3.0686748090037295,0.4952321768017787,Left,Incorrect,0.0,0.0,-45,45,2008,463,-2.78
"{'cat': 'RB', 'resp': 'reach'}",22,27,Left,44.48721946161076,40.51543183601878,2.2243609730805383,0.636414915065273,Left,Correct,0.0,0.0,-45,45,2012,372,-2.85
"{'cat': 'RB', 'resp': 'reach'}",22,28,Left,30.92578664730915,42.66314334855059,1.5462893323654574,0.6701510886142739,Left,Correct,0.0,0.0,-45,45,2002,341,-2.85
"{'cat': 'RB', 'resp': 'reach'}",22,29,Left,36.06449214181769,22.682487416965326,1.8032246070908844,0.356295679171406,Right,Incorrect,0.0,0.0,-45,45,2001,368,-0.61
"{'cat': 'RB', 'resp': 'reach'}",22,30,Right,59.2564598000996,77.85292135359487,2.96282299000498,1.2229108289247879,Right,Correct,0.0,0.0,-45,45,2009,388,-0.76
"{'cat': 'RB', 'resp': 'reach'}",22,31,Right,64.57252501534377,35.28157027709712,3.2286262507671886,0.5542016099482014,Right,Correct,0.0,0.0,-45,45,2008,446,-0.72
"{'cat': 'RB', 'resp': 'reach'}",22,32,Left,35.43646533255609,30.268961646576138,1.7718232666278044,0.4754637377033741,Right,Incorrect,0.0,0.0,-45,45,2001,565,-0.89
"{'cat': 'RB', 'resp': 'reach'}",22,33,Left,43.95780448761423,30.68603245380798,2.1978902243807115,0.48201507062350557,Left,Correct,0.0,0.0,-45,45,2003,436,-2.51
"{'cat': 'RB', 'resp': 'reach'}",22,34,Left,36.502387175200674,62.979968006681965,1.8251193587600338,0.9892870240655615,Left,Correct,0.0,0.0,-45,45,2003,434,-2.71
"{'cat': 'RB', 'resp': 'reach'}",22,35,Left,33.66942663340851,41.058171641826746,1.6834713316704255,0.6449402519989584,Left,Correct,0.0,0.0,-45,45,2005,666,-2.78
"{'cat': 'RB', 'resp': 'reach'}",22,36,Left,47.03579739044833,52.87485583482227,2.3517898695224164,0.8305562932514854,Left,Correct,0.0,0.0,-45,45,2001,657,-2.76
"{'cat': 'RB', 'resp': 'reach'}",22,37,Right,66.50614293298435,22.75757274915242,3.3253071466492172,0.35747511681136257,Right,Correct,0.0,0.0,-45,45,2006,1210,-0.83
"{'cat': 'RB', 'resp': 'reach'}",22,38,Right,57.778875053022624,51.55414571087306,2.8889437526511315,0.8098106271368827,Right,Correct,0.0,0.0,-45,45,2004,1774,-0.85
"{'cat': 'RB', 'resp': 'reach'}",22,39,Left,32.81072994968859,70.69629319943412,1.6405364974844299,1.1104947767568614,Left,Correct,0.0,0.0,-45,45,2008,1363,-2.63
"{'cat': 'RB', 'resp': 'reach'}",22,40,Right,65.28176185122598,59.78232806976803,3.2640880925612987,0.9390586133923905,Right,Correct,0.0,0.0,-45,45,2013,1027,-0.86
"{'cat': 'RB', 'resp': 'reach'}",22,41,Left,36.14091459325225,75.13279659360049,1.8070457296626126,1.1801832091105575,Left,Correct,0.0,0.0,-45,45,2004,964,-2.57
"{'cat': 'RB', 'resp': 'reach'}",22,42,Left,34.37280042447995,31.395258685330603,1.7186400212239974,0.49315557021692885,Right,Incorrect,0.0,0.0,-45,45,2005,962,-0.81
"{'cat': 'RB', 'resp': 'reach'}",22,43,Left,35.12269222656662,85.44570171518728,1.756134611328331,1.3421779439462858,Left,Correct,0.0,0.0,-45,45,2002,1021,-2.62
"{'cat': 'RB', 'resp': 'reach'}",22,44,Left,45.13758519798422,17.683748269807772,2.256879259899211,0.27777566826179656,Right,Incorrect,0.0,0.0,-45,45,2003,2117,-0.59
"{'cat': 'RB', 'resp': 'reach'}",22,45,Right,66.07232640967692,31.47007815460444,3.303616320483846,0.4943308316920097,Right,Correct,0.0,0.0,-45,45,2002,1472,-0.86
"{'cat': 'RB', 'resp': 'reach'}",22,46,Left,35.828964442435904,70.81422513962863,1.791448222121795,1.1123472473415548,Left,Correct,0.0,0.0,-45,45,2007,975,-2.52
"{'cat': 'RB', 'resp': 'reach'}",22,47,Right,50.673656267037025,55.063571971168116,2.533682813351851,0.8649365659251731,Right,Correct,0.0,0.0,-45,45,2003,659,-0.64
"{'cat': 'RB', 'resp': 'reach'}",22,48,Left,40.544624668608954,38.63578922543937,2.0272312334304474,0.60688955798142,Left,Correct,0.0,0.0,-45,45,2002,1249,-2.64
"{'cat': 'RB', 'resp': 'reach'}",22,49,Right,54.27929930095469,77.88211235124368,2.7139649650477344,1.22336936004361,Right,Correct,0.0,0.0,-45,45,2012,1060,-0.62
"{'cat': 'RB', 'resp': 'reach'}",22,50,Left,34.44503458061983,60.866877756237386,1.7222517290309918,0.9560946800297169,Left,Correct,0.0,0.0,-45,45,2010,1028,-2.69
"{'cat': 'RB', 'resp': 'reach'}",22,51,Left,47.30933492305175,33.00264670207643,2.3654667461525873,0.5184043621413136,Right,Incorrect,0.0,0.0,-45,45,2003,1302,-0.87
"{'cat': 'RB', 'resp': 'reach'}",22,52,Left,33.58014331042037,37.366506359309746,1.6790071655210184,0.586951709343619,Left,Correct,0.0,0.0,-45,45,2009,1933,-2.72
"{'cat': 'RB', 'resp': 'reach'}",22,53,Left,41.58387251372168,30.940970982914568,2.079193625686084,0.48601963567429685,Right,Incorrect,0.0,0.0,-45,45,2012,1510,-0.69
"{'cat': 'RB', 'resp': 'reach'}",22,54,Left,33.44993352620813,69.7138553363263,1.6724966763104063,1.0950626788901217,Right,Incorrect,0.0,0.0,-45,45,2012,826,-0.57
"{'cat': 'RB', 'resp': 'reach'}",22,55,Right,58.27191608599218,47.347526138995235,2.913595804299609,0.7437332014195905,Right,Correct,0.0,0.0,-45,45,2009,1502,-0.69
"{'cat': 'RB', 'resp': 'reach'}",22,56,Right,63.572144634829236,54.30854676077797,3.178607231741462,0.8530766576539891,Right,Correct,0.0,0.0,-45,45,2012,974,-0.84
"{'cat': 'RB', 'resp': 'reach'}",22,57,Right,55.401578008249245,48.76574984884421,2.7700789004124626,0.7660106073596326,Right,Correct,0.0,0.0,-45,45,2008,1281,-0.85
"{'cat': 'RB', 'resp': 'reach'}",22,58,Right,51.93011522919696,64.07767723732444,2.596505761459848,1.0065298003393817,Left,Incorrect,0.0,0.0,-45,45,2004,1100,-2.74
"{'cat': 'RB', 'resp': 'reach'}",22,59,Right,53.36823428362399,31.747729672222484,2.6684117141812,0.49869217153204415,Left,Incorrect,0.0,0.0,-45,45,2004,1800,-2.75
"{'cat': 'RB', 'resp': 'reach'}",22,60,Left,43.08117289534957,80.70668977456282,2.1540586447674785,1.267737718456585,Left,Correct,0.0,0.0,-45,45,2005,1107,-2.7
"{'cat': 'RB', 'resp': 'reach'}",22,61,Left,37.40425141185671,53.23626554706928,1.8702125705928356,0.8362333037361412,Left,Correct,0.0,0.0,-45,45,2003,1907,-2.69
"{'cat': 'RB', 'resp': 'reach'}",22,62,Left,39.35034441267978,55.35290980986912,1.9675172206339893,0.8694814740675161,Left,Correct,0.0,0.0,-45,45,2001,617,-2.72
"{'cat': 'RB', 'resp': 'reach'}",22,63,Right,65.4376424133339,20.57094480005304,3.271882120666695,0.32312764530623894,Right,Correct,0.0,0.0,-45,45,2008,1547,-0.78
"{'cat': 'RB', 'resp': 'reach'}",22,64,Right,55.004890536341264,36.007136044119875,2.7502445268170628,0.5655987703650761,Right,Correct,0.0,0.0,-45,45,2001,1281,-0.94
"{'cat': 'RB', 'resp': 'reach'}",22,65,Right,62.89811403507622,11.839001722276926,3.144905701753811,0.1859666041827105,Right,Correct,0.0,0.0,-45,45,2004,1089,-0.79
"{'cat': 'RB', 'resp': 'reach'}",22,66,Right,54.00535511947153,33.22670994264272,2.7002677559735764,0.5219239392938265,Right,Correct,0.0,0.0,-45,45,2009,1943,-0.48
"{'cat': 'RB', 'resp': 'reach'}",22,67,Left,46.67980145274942,66.52074344687034,2.333990072637471,1.0449053946200961,Left,Correct,0.0,0.0,-45,45,2009,1074,-2.45
"{'cat': 'RB', 'resp': 'reach'}",22,68,Right,62.674751713646906,55.59275355119912,3.1337375856823453,0.8732489307463751,Right,Correct,0.0,0.0,-45,45,2003,1097,-0.77
"{'cat': 'RB', 'resp': 'reach'}",22,69,Left,46.25812577839527,58.57763841577856,2.312906288919763,0.9201353925582458,Right,Incorrect,0.0,0.0,-45,45,2012,1947,-0.7
"{'cat': 'RB', 'resp': 'reach'}",22,70,Left,43.34305438260329,22.34747192977378,2.1671527191301645,0.3510332682044071,Left,Correct,0.0,0.0,-45,45,2014,5103,-2.74
"{'cat': 'RB', 'resp': 'reach'}",22,71,Right,65.48806669878462,37.14987242971963,3.274403334939231,0.5835488315350259,Right,Correct,0.0,0.0,-45,45,2008,1722,-0.97
"{'cat': 'RB', 'resp': 'reach'}",22,72,Left,44.33036496391706,80.3731871679498,2.2165182481958534,1.2624990717621425,Left,Correct,0.0,0.0,-45,45,2009,1262,-2.73
"{'cat': 'RB', 'resp': 'reach'}",22,73,Right,64.6203804460169,33.35561969080452,3.2310190223008446,0.5239488488828326,Right,Correct,0.0,0.0,-45,45,2003,1758,-0.92
"{'cat': 'RB', 'resp': 'reach'}",22,74,Right,57.072368435200396,62.62528528358565,2.85361842176002,0.9837156808793883,Right,Correct,0.0,0.0,-45,45,2008,1200,-0.74
"{'cat': 'RB', 'resp': 'reach'}",22,75,Right,67.01724042039137,71.6283140495413,3.3508620210195685,1.1251349260353076,Right,Correct,0.0,0.0,-45,45,2001,765,-0.66
"{'cat': 'RB', 'resp': 'reach'}",22,76,Right,61.626468164942985,40.85157712138911,3.0813234082471492,0.6416950728605646,Right,Correct,0.0,0.0,-45,45,2007,584,-0.62
"{'cat': 'RB', 'resp': 'reach'}",22,77,Left,45.07971232120862,18.383949173960012,2.253985616060431,0.2887743983444046,Left,Correct,0.0,0.0,-45,45,2004,1659,-2.78
"{'cat': 'RB', 'resp': 'reach'}",22,78,Left,44.1307520510876,75.89562943123485,2.2065376025543797,1.1921657593037034,Right,Incorrect,0.0,0.0,-45,45,2002,1090,-0.21
"{'cat': 'RB', 'resp': 'reach'}",22,79,Right,63.138505195948234,84.71579608583319,3.156925259797412,1.3307126131313227,Right,Correct,0.0,0.0,-45,45,2011,1053,-0.75
"{'cat': 'RB', 'resp': 'reach'}",22,80,Left,33.56533438857152,57.511601208546615,1.678266719428576,0.9033901192647795,Left,Correct,0.0,0.0,-45,45,2004,1100,-2.66
"{'cat': 'RB', 'resp': 'reach'}",22,81,Right,62.2729647948338,64.28078290693935,3.11364823974169,1.009720176737205,Right,Correct,0.0,0.0,-45,45,2009,590,-0.71
"{'cat': 'RB', 'resp': 'reach'}",22,82,Right,59.33725910498452,18.395191618452394,2.966862955249226,0.2889509942495329,Right,Correct,0.0,0.0,-45,45,2008,562,-0.79
"{'cat': 'RB', 'resp': 'reach'}",22,83,Left,39.48103514445398,48.58009479187204,1.9740517572226992,0.7630943445442049,Left,Correct,0.0,0.0,-45,45,2014,1443,-2.66
"{'cat': 'RB', 'resp': 'reach'}",22,84,Right,58.001747012237736,52.79024476868384,2.900087350611887,0.8292272257325208,Right,Correct,0.0,0.0,-45,45,2005,754,-0.61
"{'cat': 'RB', 'resp': 'reach'}",22,85,Right,67.79715977549984,62.43693791572272,3.389857988774992,0.9807571273433826,Right,Correct,0.0,0.0,-45,45,2005,564,-0.59
"{'cat': 'RB', 'resp': 'reach'}",22,86,Left,44.25067905205396,57.13166142576379,2.212533952602698,0.8974220391127945,Left,Correct,0.0,0.0,-45,45,2005,1159,-2.74
"{'cat': 'RB', 'resp': 'reach'}",22,87,Right,60.9290956570481,75.1055490002477,3.0464547828524053,1.1797552049150322,Right,Correct,0.0,0.0,-45,45,2013,1022,-0.62
"{'cat': 'RB', 'resp': 'reach'}",22,88,Left,43.91014672145881,18.03418428714502,2.1955073360729402,0.28328030434989643,Left,Correct,0.0,0.0,-45,45,2013,1148,-2.73
"{'cat': 'RB', 'resp': 'reach'}",22,89,Left,41.35099172886139,87.23465635622338,2.0675495864430697,1.3702787777357077,Left,Correct,0.0,0.0,-45,45,2004,1824,-2.67
"{'cat': 'RB', 'resp': 'reach'}",22,90,Right,61.91181999819637,84.46727185394474,3.0955909999098186,1.3268088036256234,Right,Correct,0.0,0.0,-45,45,2005,683,-0.59
"{'cat': 'RB', 'resp': 'reach'}",22,91,Right,55.15579329230133,63.747579040779286,2.757789664615067,1.0013446299932345,Right,Correct,0.0,0.0,-45,45,2007,1171,-0.67
"{'cat': 'RB', 'resp': 'reach'}",22,92,Right,64.41480733793186,19.135769218530726,3.220740366896593,0.30058395998862913,Right,Correct,0.0,0.0,-45,45,2004,788,-0.66
"{'cat': 'RB', 'resp': 'reach'}",22,93,Right,68.44452657979859,65.51603669792819,3.4222263289899297,1.0291234979126522,Right,Correct,0.0,0.0,-45,45,2007,691,-0.65
"{'cat': 'RB', 'resp': 'reach'}",22,94,Right,60.64584523110399,69.94792303730463,3.0322922615551993,1.0987394057393025,Right,Correct,0.0,0.0,-45,45,2007,984,-0.61
"{'cat': 'RB', 'resp': 'reach'}",22,95,Right,63.220527946303584,73.23535854683922,3.161026397315179,1.1503783219688228,Right,Correct,0.0,0.0,-45,45,2012,1644,-0.85
"{'cat': 'RB', 'resp': 'reach'}",22,96,Right,68.03972708236336,36.63827993515128,3.4019863541181676,0.5755127554221879,Right,Correct,0.0,0.0,-45,45,2008,1243,-0.98
"{'cat': 'RB', 'resp': 'reach'}",22,97,Left,39.22090884803328,18.84854538857389,1.9610454424016641,0.2960722586179875,Left,Correct,0.0,0.0,-45,45,2008,1341,-2.68
"{'cat': 'RB', 'resp': 'reach'}",22,98,Left,43.924869613998254,13.709420647613186,2.1962434806999127,0.21534707595756902,Left,Correct,0.0,0.0,-45,45,2005,1120,-2.57
"{'cat': 'RB', 'resp': 'reach'}",22,99,Right,51.58991080056441,56.03686198840005,2.579495540028221,0.8802249697649136,Left,Incorrect,0.0,0.0,-45,45,2006,969,-2.68
"{'cat': 'RB', 'resp': 'reach'}",22,100,Right,52.31931943485445,70.81668970689623,2.6159659717427224,1.1123859606736655,Right,Correct,0.0,0.0,-45,45,2013,958,-0.63
"{'cat': 'RB', 'resp': 'reach'}",22,101,Right,58.9598451969119,64.68292492832276,2.947992259845595,1.0160370088375945,Right,Correct,0.0,0.0,-45,45,2006,662,-0.51
"{'cat': 'RB', 'resp': 'reach'}",22,102,Right,58.66599582233852,83.1075427673909,2.9332997911169265,1.305450229079674,Right,Correct,0.0,0.0,-45,45,2008,1489,-0.5
"{'cat': 'RB', 'resp': 'reach'}",22,103,Left,36.35168407904173,50.849941492076184,1.8175842039520864,0.7987490131348867,Left,Correct,0.0,0.0,-45,45,2006,1187,-2.7
"{'cat': 'RB', 'resp': 'reach'}",22,104,Right,63.83158938563531,43.476492724637836,3.1915794692817654,0.6829271507378616,Right,Correct,0.0,0.0,-45,45,2012,936,-0.69
"{'cat': 'RB', 'resp': 'reach'}",22,105,Right,58.07893949405992,68.26439591552752,2.903946974702996,1.0722946235498316,Right,Correct,0.0,0.0,-45,45,2008,806,-0.72
"{'cat': 'RB', 'resp': 'reach'}",22,106,Right,61.61832553921078,29.330412536250286,3.0809162769605387,0.46072104275320935,Right,Correct,0.0,0.0,-45,45,2005,563,-0.66
"{'cat': 'RB', 'resp': 'reach'}",22,107,Right,61.758848960757874,70.13657595711095,3.0879424480378934,1.1017027588740114,Right,Correct,0.0,0.0,-45,45,2004,683,-0.66
"{'cat': 'RB', 'resp': 'reach'}",22,108,Right,59.291259633393814,43.854061610999246,2.964562981669691,0.6888579889359471,Right,Correct,0.0,0.0,-45,45,2002,720,-0.67
"{'cat': 'RB', 'resp': 'reach'}",22,109,Left,41.46698524497176,58.491437943007654,2.073349262248588,0.9187813586982807,Left,Correct,0.0,0.0,-45,45,2008,1036,-2.54
"{'cat': 'RB', 'resp': 'reach'}",22,110,Right,56.87107289662383,62.76631965489344,2.8435536448311916,0.9859310436034093,Right,Correct,0.0,0.0,-45,45,2003,636,-0.87
"{'cat': 'RB', 'resp': 'reach'}",22,111,Right,55.32324216165249,67.00440536301582,2.7661621080826246,1.0525027382330152,Right,Correct,0.0,0.0,-45,45,2005,1364,-0.94
"{'cat': 'RB', 'resp': 'reach'}",22,112,Left,34.3647632944253,51.01368930998069,1.718238164721265,0.8013211578437375,Left,Correct,0.0,0.0,-45,45,2003,1300,-2.53
"{'cat': 'RB', 'resp': 'reach'}",22,113,Left,37.67638063443118,50.82044415773,1.883819031721559,0.7982856700904745,Left,Correct,0.0,0.0,-45,45,2006,1586,-2.67
"{'cat': 'RB', 'resp': 'reach'}",22,114,Right,63.93601342771844,56.104839054991864,3.196800671385922,0.8812927510300008,Right,Correct,0.0,0.0,-45,45,2008,1659,-0.68
"{'cat': 'RB', 'resp': 'reach'}",22,115,Right,56.01599859551982,53.25289220523194,2.800799929775991,0.8364944746718292,Right,Correct,0.0,0.0,-45,45,2006,1038,-0.71
"{'cat': 'RB', 'resp': 'reach'}",22,116,Right,65.4802977119141,74.40613441011814,3.274014885595705,1.1687688262242093,Right,Correct,0.0,0.0,-45,45,2012,902,-0.76
"{'cat': 'RB', 'resp': 'reach'}",22,117,Right,55.11607651518953,66.75781804339516,2.755803825759477,1.0486293536740718,Right,Correct,0.0,0.0,-45,45,2008,1331,-0.69
"{'cat': 'RB', 'resp': 'reach'}",22,118,Left,33.08578025796922,55.89468595395928,1.6542890128984609,0.8779916738383352,Left,Correct,0.0,0.0,-45,45,2009,1772,-2.71
"{'cat': 'RB', 'resp': 'reach'}",22,119,Right,63.85133405776239,86.50856566962733,3.1925667028881195,1.358873371901457,Right,Correct,0.0,0.0,-45,45,2001,858,-0.69
"{'cat': 'RB', 'resp': 'reach'}",22,120,Left,42.28362220374297,75.50656568878219,2.1141811101871486,1.1860543603283664,Left,Correct,0.0,0.0,-45,45,2001,1550,-2.64
"{'cat': 'RB', 'resp': 'reach'}",22,121,Left,46.245992811871886,62.08444552023917,2.312299640593594,0.9752201897428956,Right,Incorrect,0.0,0.0,-45,45,2004,912,-0.78
"{'cat': 'RB', 'resp': 'reach'}",22,122,Left,33.242881107728486,32.05805840482398,1.6621440553864244,0.5035668038647377,Left,Correct,0.0,0.0,-45,45,2006,1513,-2.72
"{'cat': 'RB', 'resp': 'reach'}",22,123,Right,59.20008422414201,68.50695121944185,2.9600042112071003,1.0761046733541642,Right,Correct,0.0,0.0,-45,45,2007,975,-0.7
"{'cat': 'RB', 'resp': 'reach'}",22,124,Left,31.123459407852902,47.73400134398698,1.5561729703926452,0.7498039397435741,Left,Correct,0.0,0.0,-45,45,2008,1121,-2.44
"{'cat': 'RB', 'resp': 'reach'}",22,125,Left,34.02801290018497,18.037803087673907,1.7014006450092483,0.2833371483356782,Right,Incorrect,0.0,0.0,-45,45,2002,2300,-0.78
"{'cat': 'RB', 'resp': 'reach'}",22,126,Right,62.8102257153901,16.944496221117895,3.1405112857695046,0.26616352423521994,Right,Correct,0.0,0.0,-45,45,2001,923,-0.73
"{'cat': 'RB', 'resp': 'reach'}",22,127,Left,41.932984312245374,23.24069345759982,2.0966492156122687,0.3650639591536398,Right,Incorrect,0.0,0.0,-45,45,2006,1591,-0.71
"{'cat': 'RB', 'resp': 'reach'}",22,128,Left,33.043078216814386,32.17131117175538,1.6521539108407195,0.5053457741676897,Left,Correct,0.0,0.0,-45,45,2014,1977,-2.56
"{'cat': 'RB', 'resp': 'reach'}",22,129,Right,65.78253893613953,42.98373695194644,3.2891269468069764,0.6751869611603554,Right,Correct,0.0,0.0,-45,45,2002,1093,-0.84
"{'cat': 'RB', 'resp': 'reach'}",22,130,Right,55.86953102756089,35.83099606855965,2.7934765513780446,0.5628319700989587,Right,Correct,0.0,0.0,-45,45,2007,1442,-0.71
"{'cat': 'RB', 'resp': 'reach'}",22,131,Right,64.20897854353969,18.361983404121972,3.210448927176984,0.28842936083863646,Right,Correct,0.0,0.0,-45,45,2012,1192,-0.63
"{'cat': 'RB', 'resp': 'reach'}",22,132,Left,37.51659053975162,38.20941468063498,1.875829526987581,0.6001920822932442,Left,Correct,0.0,0.0,-45,45,2004,1004,-2.86
"{'cat': 'RB', 'resp': 'reach'}",22,133,Left,44.0336653646305,78.71807005082204,2.201683268231525,1.236500552882146,Left,Correct,0.0,0.0,-45,45,2013,1451,-2.82
"{'cat': 'RB', 'resp': 'reach'}",22,134,Right,56.85750519559601,61.78475092384364,2.8428752597798006,0.9705125980311119,Right,Correct,0.0,0.0,-45,45,2008,1641,-0.73
"{'cat': 'RB', 'resp': 'reach'}",22,135,Left,44.351757362595855,70.13917930027239,2.217587868129793,1.1017436520927653,Left,Correct,0.0,0.0,-45,45,2006,909,-2.74
"{'cat': 'RB', 'resp': 'reach'}",22,136,Right,62.70568444351793,78.09045852390182,3.1352842221758963,1.226642054070742,Right,Correct,0.0,0.0,-45,45,2009,1241,-0.7
"{'cat': 'RB', 'resp': 'reach'}",22,137,Right,53.36810453842188,58.92029028981195,2.668405226921094,0.9255177556092563,Right,Correct,0.0,0.0,-45,45,2002,1123,-0.78
"{'cat': 'RB', 'resp': 'reach'}",22,138,Right,63.43611939532478,28.70926622539305,3.1718059697662393,0.45096409931824194,Right,Correct,0.0,0.0,-45,45,2004,867,-0.62
"{'cat': 'RB', 'resp': 'reach'}",22,139,Left,42.594106864569554,35.73076924339909,2.1297053432284776,0.5612576108108736,Left,Correct,0.0,0.0,-45,45,2012,2481,-2.94
"{'cat': 'RB', 'resp': 'reach'}",22,140,Left,43.93403115930591,31.71203245014629,2.1967015579652953,0.49813144087890354,Right,Incorrect,0.0,0.0,-45,45,2005,3172,-0.84
"{'cat': 'RB', 'resp': 'reach'}",22,141,Right,65.85806437069029,37.131546805607094,3.292903218534514,0.5832609733046039,Right,Correct,0.0,0.0,-45,45,2001,1755,-0.85
"{'cat': 'RB', 'resp': 'reach'}",22,142,Right,61.906965847392804,69.34376787826812,3.09534829236964,1.089249358693015,Right,Correct,0.0,0.0,-45,45,2004,1011,-0.69
"{'cat': 'RB', 'resp': 'reach'}",22,143,Left,41.38468009239425,77.20814334081612,2.0692340046197124,1.2127826795840781,Left,Correct,0.0,0.0,-45,45,2008,2039,-2.54
"{'cat': 'RB', 'resp': 'reach'}",22,144,Right,61.18982404916864,30.015850731080125,3.059491202458432,0.4714878807400458,Right,Correct,0.0,0.0,-45,45,2009,1315,-0.63
"{'cat': 'RB', 'resp': 'reach'}",22,145,Right,64.52646791666628,68.18490186066671,3.2263233958333135,1.0710459338560578,Right,Correct,0.0,0.0,-45,45,2002,1033,-0.72
"{'cat': 'RB', 'resp': 'reach'}",22,146,Left,33.09403572389091,35.96479677850223,1.6547017861945454,0.5649337067359624,Left,Correct,0.0,0.0,-45,45,2005,1400,-2.84
"{'cat': 'RB', 'resp': 'reach'}",22,147,Left,32.76868635555145,38.58540352398258,1.6384343177775724,0.6060981012337069,Left,Correct,0.0,0.0,-45,45,2002,1023,-2.78
"{'cat': 'RB', 'resp': 'reach'}",22,148,Right,57.95213603934421,85.10960951590778,2.8976068019672105,1.3368986200253592,Right,Correct,0.0,0.0,-45,45,2012,903,0.65
"{'cat': 'RB', 'resp': 'reach'}",22,149,Left,39.73686891834765,18.436736038660356,1.9868434459173827,0.2896035724761478,Right,Incorrect,0.0,0.0,-45,45,2010,1513,0.54
"{'cat': 'RB', 'resp': 'reach'}",22,150,Right,51.25165491346896,54.13850132400561,2.5625827456734482,0.8504055901792867,Right,Correct,0.0,0.0,-45,45,2002,1246,0.39
"{'cat': 'RB', 'resp': 'reach'}",22,151,Left,42.75422248339067,73.68320612250952,2.1377111241695332,1.1574130952370918,Left,Correct,0.0,0.0,-45,45,2002,1310,-2.93
"{'cat': 'RB', 'resp': 'reach'}",22,152,Right,54.01753624567504,48.11200585007296,2.700876812283752,0.7557416206402918,Right,Correct,0.0,0.0,-45,45,2002,2647,-0.84
"{'cat': 'RB', 'resp': 'reach'}",22,153,Left,38.93335988635257,48.36332927963346,1.9466679943176286,0.7596893998402032,Left,Correct,0.0,0.0,-45,45,2001,1408,-2.64
"{'cat': 'RB', 'resp': 'reach'}",22,154,Left,34.56947526191607,16.8792827386551,1.7284737630958034,0.2651391532481193,Left,Correct,0.0,0.0,-45,45,2006,2928,-2.73
"{'cat': 'RB', 'resp': 'reach'}",22,155,Left,39.79909098316427,35.79249644716819,1.9899545491582133,0.5622272194603118,Right,Incorrect,0.0,0.0,-45,45,2012,1258,-0.97
"{'cat': 'RB', 'resp': 'reach'}",22,156,Left,33.818052058180136,65.42108134412162,1.6909026029090068,1.0276319427029637,Left,Correct,0.0,0.0,-45,45,2008,1759,-2.67
"{'cat': 'RB', 'resp': 'reach'}",22,157,Left,35.53527390287098,26.116046080863576,1.7767636951435493,0.41022989254226755,Left,Correct,0.0,0.0,-45,45,2002,1944,-2.67
"{'cat': 'RB', 'resp': 'reach'}",22,158,Right,62.483503473466854,69.30159088832187,3.1241751736733425,1.0885868440841868,Right,Correct,0.0,0.0,-45,45,2007,724,-0.58
"{'cat': 'RB', 'resp': 'reach'}",22,159,Right,57.14746014057084,12.100274024381577,2.857373007028542,0.19007065990710284,Right,Correct,0.0,0.0,-45,45,2003,1360,-0.53
"{'cat': 'RB', 'resp': 'reach'}",22,160,Left,37.32216400155119,83.21600195889096,1.8661082000775593,1.3071539020758285,Left,Correct,0.0,0.0,-45,45,2005,2142,-2.66
"{'cat': 'RB', 'resp': 'reach'}",22,161,Right,59.093344064095675,90.99448956609777,2.954667203204784,1.4293380996900291,Right,Correct,0.0,0.0,-45,45,2004,1524,-0.57
"{'cat': 'RB', 'resp': 'reach'}",22,162,Right,56.66397273543476,52.6550201503566,2.8331986367717383,0.827103122394914,Right,Correct,0.0,0.0,-45,45,2006,711,-0.73
"{'cat': 'RB', 'resp': 'reach'}",22,163,Right,62.34592602881362,19.901830262153727,3.117296301440681,0.31261721872286585,Right,Correct,0.0,0.0,-45,45,2004,1168,-1.02
"{'cat': 'RB', 'resp': 'reach'}",22,164,Right,64.01326928955558,70.6349534279646,3.200663464477779,1.109531253879754,Right,Correct,0.0,0.0,-45,45,2008,1463,-0.67
"{'cat': 'RB', 'resp': 'reach'}",22,165,Right,67.45775493246076,66.14250750727568,3.372887746623038,1.038964078374325,Right,Correct,0.0,0.0,-45,45,2008,671,-1.13
"{'cat': 'RB', 'resp': 'reach'}",22,166,Right,51.55131020309696,50.34716296047419,2.5775655101548476,0.7908513864285693,Right,Correct,0.0,0.0,-45,45,2005,856,-0.76
"{'cat': 'RB', 'resp': 'reach'}",22,167,Left,32.719636298512015,38.18067297424042,1.6359818149256007,0.5997406086249403,Left,Correct,0.0,0.0,-45,45,2003,1040,-2.62
"{'cat': 'RB', 'resp': 'reach'}",22,168,Left,45.83478325363672,32.444565713503096,2.291739162681836,0.5096380464722631,Right,Incorrect,0.0,0.0,-45,45,2008,921,-0.66
"{'cat': 'RB', 'resp': 'reach'}",22,169,Left,40.891835108233366,35.30073173816564,2.044591755411668,0.5545025974748261,Right,Incorrect,0.0,0.0,-45,45,2002,878,-0.75
"{'cat': 'RB', 'resp': 'reach'}",22,170,Right,65.0881189442879,52.1652670347977,3.2544059472143947,0.8194100984453513,Right,Correct,0.0,0.0,-45,45,2006,855,-0.91
"{'cat': 'RB', 'resp': 'reach'}",22,171,Right,68.2216289834851,60.66995626348419,3.4110814491742554,0.9530014444548799,Right,Correct,0.0,0.0,-45,45,2007,916,-0.93
"{'cat': 'RB', 'resp': 'reach'}",22,172,Left,39.5869050651809,60.05292471110231,1.979345253259045,0.9433091354948996,Left,Correct,0.0,0.0,-45,45,2006,960,-2.76
"{'cat': 'RB', 'resp': 'reach'}",22,173,Left,42.66602226451751,24.647339987399803,2.1333011132258752,0.3871595111747259,Left,Correct,0.0,0.0,-45,45,2004,1022,-2.5
"{'cat': 'RB', 'resp': 'reach'}",22,174,Left,36.01359334411947,77.74081216860095,1.8006796672059735,1.2211498219649037,Right,Incorrect,0.0,0.0,-45,45,2006,952,-0.8
"{'cat': 'RB', 'resp': 'reach'}",22,175,Right,58.245234778262216,90.61346818193742,2.9122617389131107,1.4233530297833352,Right,Correct,0.0,0.0,-45,45,2009,930,-0.68
"{'cat': 'RB', 'resp': 'reach'}",22,176,Right,50.577261273919646,48.49443597782727,2.528863063695982,0.7617488190396136,Right,Correct,0.0,0.0,-45,45,2003,1767,-0.63
"{'cat': 'RB', 'resp': 'reach'}",22,177,Left,38.987892727115955,52.422128041780745,1.949394636355798,0.8234448617080093,Left,Correct,0.0,0.0,-45,45,2009,1676,-2.66
"{'cat': 'RB', 'resp': 'reach'}",22,178,Right,61.28493150564394,40.95984170383847,3.0642465752821972,0.643395688944899,Right,Correct,0.0,0.0,-45,45,2005,759,-0.69
"{'cat': 'RB', 'resp': 'reach'}",22,179,Right,52.14495870440052,51.13948385915754,2.6072479352200264,0.8032971340015155,Right,Correct,0.0,0.0,-45,45,2008,1392,-0.72
"{'cat': 'RB', 'resp': 'reach'}",22,180,Right,57.32080407205635,12.391158177501268,2.8660402036028176,0.19463985749953538,Right,Correct,0.0,0.0,-45,45,2008,778,-0.76
"{'cat': 'RB', 'resp': 'reach'}",22,181,Right,59.838863192491786,85.44847716007618,2.991943159624589,1.342221540532653,Right,Correct,0.0,0.0,-45,45,2009,771,-0.69
"{'cat': 'RB', 'resp': 'reach'}",22,182,Right,57.51906283358575,79.47890587949303,2.8759531416792874,1.2484517341318495,Right,Correct,0.0,0.0,-45,45,2003,1236,-0.63
"{'cat': 'RB', 'resp': 'reach'}",22,183,Right,58.79409508433389,73.59702765243895,2.9397047542166943,1.1560594069947354,Right,Correct,0.0,0.0,-45,45,2003,1203,-0.61
"{'cat': 'RB', 'resp': 'reach'}",22,184,Left,33.8221559583893,38.74676533693757,1.6911077979194653,0.6086327666644535,Left,Correct,0.0,0.0,-45,45,2006,1372,-2.56
"{'cat': 'RB', 'resp': 'reach'}",22,185,Left,41.89435525619898,10.386726329269074,2.094717762809949,0.163154315654397,Right,Incorrect,0.0,0.0,-45,45,2003,1233,-1.15
"{'cat': 'RB', 'resp': 'reach'}",22,186,Right,60.671693077920516,63.666250989476964,3.033584653896026,1.0000671319507237,Right,Correct,0.0,0.0,-45,45,2001,921,-0.67
"{'cat': 'RB', 'resp': 'reach'}",22,187,Left,40.577962538075305,50.90389763940398,2.028898126903765,0.7995965543151919,Left,Correct,0.0,0.0,-45,45,2006,2100,-2.76
"{'cat': 'RB', 'resp': 'reach'}",22,188,Right,59.54172304804529,53.22677830994867,2.9770861524022645,0.8360842785639365,Right,Correct,0.0,0.0,-45,45,2003,1083,-0.86
"{'cat': 'RB', 'resp': 'reach'}",22,189,Left,32.344957824356875,36.42953132821127,1.6172478912178436,0.5722337399721388,Left,Correct,0.0,0.0,-45,45,2008,1253,-2.54
"{'cat': 'RB', 'resp': 'reach'}",22,190,Left,34.833457361084726,24.724534566003797,1.7416728680542364,0.38837208077992214,Left,Correct,0.0,0.0,-45,45,2009,2917,-2.6
"{'cat': 'RB', 'resp': 'reach'}",22,191,Right,67.60525176990052,58.01026241865198,3.380262588495026,0.9112230712362657,Right,Correct,0.0,0.0,-45,45,2004,913,-0.74
"{'cat': 'RB', 'resp': 'reach'}",22,192,Left,37.07007996798447,72.73617928867947,1.8535039983992234,1.1425372325175274,Left,Correct,0.0,0.0,-45,45,2013,1186,-2.44
"{'cat': 'RB', 'resp': 'reach'}",22,193,Left,33.29058241106553,64.54000620208652,1.6645291205532766,1.0137920467355734,Left,Correct,0.0,0.0,-45,45,2007,1420,-2.35
"{'cat': 'RB', 'resp': 'reach'}",22,194,Left,39.45497906298902,76.91526530318455,1.972748953149451,1.2081821621269726,Left,Correct,0.0,0.0,-45,45,2006,1498,-2.63
"{'cat': 'RB', 'resp': 'reach'}",22,195,Left,39.14101061398751,31.156573769729057,1.9570505306993755,0.4894063163300463,Left,Correct,0.0,0.0,-45,45,2008,1029,-2.44
"{'cat': 'RB', 'resp': 'reach'}",22,196,Right,55.105208932356355,54.887075154322524,2.7552604466178177,0.8621641604092525,Right,Correct,0.0,0.0,-45,45,2008,1968,-0.6
"{'cat': 'RB', 'resp': 'reach'}",22,197,Left,47.159401735465224,70.19018395139057,2.3579700867732614,1.102544831279024,Left,Correct,0.0,0.0,-45,45,2007,1756,-2.57
"{'cat': 'RB', 'resp': 'reach'}",22,198,Left,42.65769657022996,60.917393790724006,2.1328848285114983,0.9568881840438751,Left,Correct,0.0,0.0,-45,45,2007,1917,-2.41
"{'cat': 'RB', 'resp': 'reach'}",22,199,Right,53.1676587754059,42.937108445605084,2.6583829387702953,0.674454522295506,Right,Correct,0.0,0.0,-45,45,2009,1641,-0.78
"{'cat': 'RB', 'resp': 'reach'}",22,200,Left,32.93935332601664,55.78449072083227,1.6469676663008317,0.8762607311640732,Left,Correct,0.0,0.0,-45,45,2003,1169,-2.54
"{'cat': 'RB', 'resp': 'reach'}",22,201,Left,41.98199388913757,84.21231835101733,2.0990996944568785,1.3228040033666049,Right,Incorrect,0.0,0.0,-45,45,2003,1133,-0.6
"{'cat': 'RB', 'resp': 'reach'}",22,202,Left,34.72606786859942,62.653471920282804,1.736303393429971,0.9841584355332742,Left,Correct,0.0,0.0,-45,45,2005,926,-2.66
"{'cat': 'RB', 'resp': 'reach'}",22,203,Right,61.06367326437155,58.61519061849777,3.0531836632185776,0.9207252611791898,Right,Correct,0.0,0.0,-45,45,2002,694,-0.76
"{'cat': 'RB', 'resp': 'reach'}",22,204,Right,69.25455976055444,57.87481216084255,3.4627279880277224,0.9090954235619608,Right,Correct,0.0,0.0,-45,45,2003,687,-0.74
"{'cat': 'RB', 'resp': 'reach'}",22,205,Left,38.90640500485434,39.599973144942304,1.9453202502427172,0.6220349235725191,Left,Correct,0.0,0.0,-45,45,2008,2186,-2.64
"{'cat': 'RB', 'resp': 'reach'}",22,206,Right,66.90842724361397,53.667572101178436,3.3454213621806987,0.8430082512453135,Right,Correct,0.0,0.0,-45,45,2004,747,-0.76
"{'cat': 'RB', 'resp': 'reach'}",22,207,Left,36.79371805365122,62.74733321462822,1.839685902682561,0.9856328052971342,Left,Correct,0.0,0.0,-45,45,2011,1729,-2.82
"{'cat': 'RB', 'resp': 'reach'}",22,208,Left,35.13969443401465,32.71613081358412,1.7569847217007324,0.5139037810891927,Right,Incorrect,0.0,0.0,-45,45,2001,1680,-0.95
"{'cat': 'RB', 'resp': 'reach'}",22,209,Left,48.730396613354095,49.1984580032382,2.4365198306677045,0.7728075711545955,Right,Incorrect,0.0,0.0,-45,45,2010,1232,-0.75
"{'cat': 'RB', 'resp': 'reach'}",22,210,Left,41.591071812770345,83.2439789241936,2.079553590638517,1.307593363219151,Left,Correct,0.0,0.0,-45,45,2001,1205,-2.72
"{'cat': 'RB', 'resp': 'reach'}",22,211,Right,62.77983801801233,26.151756116376344,3.1389919009006166,0.41079082446839926,Right,Correct,0.0,0.0,-45,45,2003,996,-0.71
"{'cat': 'RB', 'resp': 'reach'}",22,212,Left,41.42183198166408,81.52263868657167,2.071091599083204,1.2805546139949429,Left,Correct,0.0,0.0,-45,45,2001,2444,-2.54
"{'cat': 'RB', 'resp': 'reach'}",22,213,Left,45.642322675689826,58.04341711604392,2.2821161337844913,0.9117438640050581,Left,Correct,0.0,0.0,-45,45,2001,3305,-2.6
"{'cat': 'RB', 'resp': 'reach'}",22,214,Right,63.83583075371265,51.183503708869246,3.1917915376856327,0.8039885961838478,Right,Correct,0.0,0.0,-45,45,2004,1022,0.09
"{'cat': 'RB', 'resp': 'reach'}",22,215,Right,65.25132231439454,27.596220941475732,3.262566115719727,0.4334804248829048,Right,Correct,0.0,0.0,-45,45,2002,1008,-0.71
"{'cat': 'RB', 'resp': 'reach'}",22,216,Right,66.80639221713474,27.632333105793055,3.3403196108567372,0.4340476734335275,Right,Correct,0.0,0.0,-45,45,2005,1437,-0.65
"{'cat': 'RB', 'resp': 'reach'}",22,217,Left,41.03441110446392,70.57024071584232,2.051720555223196,1.1085147489747675,Right,Incorrect,0.0,0.0,-45,45,2002,1248,3.04
"{'cat': 'RB', 'resp': 'reach'}",22,218,Left,43.50801351373016,38.4469066693338,2.1754006756865083,0.6039225977281574,Left,Correct,0.0,0.0,-45,45,2002,1537,-2.72
"{'cat': 'RB', 'resp': 'reach'}",22,219,Right,55.58823662260188,58.06298383986322,2.779411831130094,0.9120512173840859,Right,Correct,0.0,0.0,-45,45,2005,1750,-0.28
"{'cat': 'RB', 'resp': 'reach'}",22,220,Left,43.94324798115068,37.33626709759645,2.1971623990575337,0.5864767121313766,Right,Incorrect,0.0,0.0,-45,45,2003,1131,-0.56
"{'cat': 'RB', 'resp': 'reach'}",22,221,Left,41.60467691485191,10.052279801692357,2.0802338457425953,0.15790084188412884,Right,Incorrect,0.0,0.0,-45,45,2014,1042,2.67
"{'cat': 'RB', 'resp': 'reach'}",22,222,Left,41.503799895651156,32.90441974470288,2.0751899947825576,0.5168614167029675,Left,Correct,0.0,0.0,-45,45,2006,1398,-2.8
"{'cat': 'RB', 'resp': 'reach'}",22,223,Left,42.60084382743364,76.67352769491475,2.130042191371682,1.2043849566557887,Left,Correct,0.0,0.0,-45,45,2009,1409,-2.53
"{'cat': 'RB', 'resp': 'reach'}",22,224,Right,60.524983285116186,89.26873357332656,3.0262491642558094,1.4022299879461362,Right,Correct,0.0,0.0,-45,45,2008,1405,-0.9
"{'cat': 'RB', 'resp': 'reach'}",22,225,Left,37.655226834110444,84.27373349169471,1.882761341705522,1.3237687101404612,Left,Correct,0.0,0.0,-45,45,2009,3224,-2.77
"{'cat': 'RB', 'resp': 'reach'}",22,226,Left,47.536080747929574,74.77421957187593,2.3768040373964787,1.1745506944245778,Left,Correct,0.0,0.0,-45,45,2012,1164,-2.78
"{'cat': 'RB', 'resp': 'reach'}",22,227,Right,57.898355634926375,33.58051683608055,2.8949177817463188,0.5274815249798951,Right,Correct,0.0,0.0,-45,45,2007,2768,-1.07
"{'cat': 'RB', 'resp': 'reach'}",22,228,Left,46.13981471326427,23.98388925210695,2.3069907356632138,0.376738051394652,Left,Correct,0.0,0.0,-45,45,2012,2062,-2.63
"{'cat': 'RB', 'resp': 'reach'}",22,229,Right,59.05662889730876,60.56497838778589,2.952831444865438,0.9513524558394637,Right,Correct,0.0,0.0,-45,45,2003,1164,-0.5
"{'cat': 'RB', 'resp': 'reach'}",22,230,Left,33.610079114663726,65.90327461083935,1.6805039557331864,1.035206216824618,Left,Correct,0.0,0.0,-45,45,2007,1125,-2.79
"{'cat': 'RB', 'resp': 'reach'}",22,231,Left,44.19027636339061,80.59940585438731,2.2095138181695306,1.2660525065792265,Left,Correct,0.0,0.0,-45,45,2004,2257,-2.51
"{'cat': 'RB', 'resp': 'reach'}",22,232,Left,42.531162099252946,39.99357803020888,2.126558104962647,0.6282176546523719,Left,Correct,0.0,0.0,-45,45,2003,967,-2.56
"{'cat': 'RB', 'resp': 'reach'}",22,233,Right,58.93313192850073,48.7903276032141,2.946656596425037,0.7663966738224837,Right,Correct,0.0,0.0,-45,45,2007,2317,-0.58
"{'cat': 'RB', 'resp': 'reach'}",22,234,Left,38.82607241173676,16.77914211903137,1.941303620586838,0.2635661480734401,Left,Correct,0.0,0.0,-45,45,2007,1342,-2.68
"{'cat': 'RB', 'resp': 'reach'}",22,235,Left,41.94018055352839,64.74604460568976,2.0970090276764197,1.01702849041116,Left,Correct,0.0,0.0,-45,45,2009,1232,-2.24
"{'cat': 'RB', 'resp': 'reach'}",22,236,Left,39.29401031909477,20.037350292149988,1.9647005159547382,0.3147459623761184,Left,Correct,0.0,0.0,-45,45,2003,744,-2.69
"{'cat': 'RB', 'resp': 'reach'}",22,237,Left,34.674281540343216,41.0086624193178,1.7337140770171606,0.6441625629503631,Left,Correct,0.0,0.0,-45,45,2002,1246,-2.56
"{'cat': 'RB', 'resp': 'reach'}",22,238,Right,68.6048712688832,54.21806280719558,3.4302435634441597,0.8516553390347781,Right,Correct,0.0,0.0,-45,45,2010,1776,-0.88
"{'cat': 'RB', 'resp': 'reach'}",22,239,Right,54.08924263928368,28.529866181486963,2.704462131964184,0.4481460900182966,Right,Correct,0.0,0.0,-45,45,2013,971,-0.71
"{'cat': 'RB', 'resp': 'reach'}",22,240,Right,56.164891376293994,55.31737464739815,2.8082445688147,0.8689232890407014,Right,Correct,0.0,0.0,-45,45,2006,1219,-0.66
"{'cat': 'RB', 'resp': 'reach'}",22,241,Left,43.717505048832386,36.10629960299028,2.1858752524416194,0.5671564279053317,Left,Correct,0.0,0.0,-45,45,2010,1350,-2.53
"{'cat': 'RB', 'resp': 'reach'}",22,242,Right,61.678628967827244,64.00973736408686,3.083931448391362,1.0054626033061367,Right,Correct,0.0,0.0,-45,45,2005,883,-0.7
"{'cat': 'RB', 'resp': 'reach'}",22,243,Left,48.49552182079544,62.061460968029145,2.4247760910397718,0.9748591492410502,Right,Incorrect,0.0,0.0,-45,45,2006,880,-0.69
"{'cat': 'RB', 'resp': 'reach'}",22,244,Right,65.20597767348973,78.40352984953051,3.260298883674486,1.2315597669539655,Right,Correct,0.0,0.0,-45,45,2007,673,-0.73
"{'cat': 'RB', 'resp': 'reach'}",22,245,Left,43.346718758599444,70.72050105942118,2.1673359379299724,1.1108750329323338,Left,Correct,0.0,0.0,-45,45,2007,1335,-2.59
"{'cat': 'RB', 'resp': 'reach'}",22,246,Left,31.841059452963258,29.63092073976095,1.592052972648163,0.4654414145756722,Left,Correct,0.0,0.0,-45,45,2002,2332,-2.56
"{'cat': 'RB', 'resp': 'reach'}",22,247,Right,68.10492468746419,47.92783591994665,3.4052462343732093,0.752848686142807,Right,Correct,0.0,0.0,-45,45,2007,1081,-0.61
"{'cat': 'RB', 'resp': 'reach'}",22,248,Left,46.82471525275108,21.684353007936384,2.341235762637554,0.34061702053790344,Left,Correct,0.0,0.0,-45,45,2013,1926,-2.71
"{'cat': 'RB', 'resp': 'reach'}",22,249,Left,38.821921713636826,75.17088841897846,1.941096085681841,1.180781554104404,Left,Correct,0.0,0.0,-45,45,2006,1254,-2.7
"{'cat': 'RB', 'resp': 'reach'}",22,250,Right,66.81327503343391,41.61042695641512,3.3406637516716957,0.6536150581950422,Right,Correct,0.0,0.0,-45,45,2001,896,-0.43
"{'cat': 'RB', 'resp': 'reach'}",22,251,Right,51.81194916442829,53.27887654466626,2.5905974582214144,0.8369026357212053,Left,Incorrect,0.0,0.0,-45,45,2006,1480,-2.81
"{'cat': 'RB', 'resp': 'reach'}",22,252,Left,44.19162843778115,76.85207250866202,2.2095814218890575,1.2071895320318136,Left,Correct,0.0,0.0,-45,45,2009,1557,-2.52
"{'cat': 'RB', 'resp': 'reach'}",22,253,Left,37.33192791266215,83.29308747871005,1.8665963956331075,1.3083647585896372,Left,Correct,0.0,0.0,-45,45,2004,1743,-2.68
"{'cat': 'RB', 'resp': 'reach'}",22,254,Right,57.745650751895894,27.307163147736407,2.8872825375947944,0.4289399156765331,Right,Correct,0.0,0.0,-45,45,2001,1768,-0.86
"{'cat': 'RB', 'resp': 'reach'}",22,255,Right,63.78526911864439,41.61560576702799,3.18926345593222,0.6536964067619209,Right,Correct,0.0,0.0,-45,45,2007,2375,-0.97
"{'cat': 'RB', 'resp': 'reach'}",22,256,Left,37.699372007086005,69.55653699641643,1.8849686003543002,1.0925915281854424,Left,Correct,0.0,0.0,-45,45,2006,956,-2.67
"{'cat': 'RB', 'resp': 'reach'}",22,257,Right,54.30899035279403,57.65428746965274,2.7154495176397013,0.9056314298130757,Right,Correct,0.0,0.0,-45,45,2003,1241,-0.56
"{'cat': 'RB', 'resp': 'reach'}",22,258,Left,46.3613725228256,80.08638038310858,2.31806862614128,1.257993921320858,Right,Incorrect,0.0,0.0,-45,45,2002,2743,-0.85
"{'cat': 'RB', 'resp': 'reach'}",22,259,Right,63.98932749220711,20.777774947677802,3.1994663746103553,0.32637652566783315,Right,Correct,0.0,0.0,-45,45,2013,1254,-0.84
"{'cat': 'RB', 'resp': 'reach'}",22,260,Left,39.52444702702049,44.08105422639832,1.9762223513510246,0.6924235806007313,Left,Correct,0.0,0.0,-45,45,2001,1688,-2.7
"{'cat': 'RB', 'resp': 'reach'}",22,261,Right,57.46601094456416,45.61995454449635,2.873300547228208,0.7165965702704502,Right,Correct,0.0,0.0,-45,45,2005,1520,-0.81
"{'cat': 'RB', 'resp': 'reach'}",22,262,Right,56.343249727938954,12.917819029950778,2.8171624863969473,0.202912626824479,Right,Correct,0.0,0.0,-45,45,2007,850,-0.63
"{'cat': 'RB', 'resp': 'reach'}",22,263,Left,33.030988273805676,33.02808443118652,1.651549413690284,0.518803937055795,Left,Correct,0.0,0.0,-45,45,2010,1714,-2.72
"{'cat': 'RB', 'resp': 'reach'}",22,264,Left,44.777338310171146,73.19275425239707,2.2388669155085577,1.1497090952766684,Left,Correct,0.0,0.0,-45,45,2006,1964,-2.62
"{'cat': 'RB', 'resp': 'reach'}",22,265,Left,44.07509576741574,43.885797663589415,2.203754788370787,0.6893564976843032,Right,Incorrect,0.0,0.0,-45,45,2014,1576,-0.59
"{'cat': 'RB', 'resp': 'reach'}",22,266,Left,46.130161820696834,69.63472626373505,2.3065080910348414,1.0938197223244313,Left,Correct,0.0,0.0,-45,45,2001,1802,-2.77
"{'cat': 'RB', 'resp': 'reach'}",22,267,Right,65.92638766007815,68.60767325300543,3.2963193830039073,1.077686811357654,Right,Correct,0.0,0.0,-45,45,2004,1950,-0.85
"{'cat': 'RB', 'resp': 'reach'}",22,268,Left,41.21297790300495,66.05695981603748,2.0606488951502473,1.0376202983826976,Left,Correct,0.0,0.0,-45,45,2008,1283,-2.69
"{'cat': 'RB', 'resp': 'reach'}",22,269,Right,55.9047910051213,55.88357172353721,2.7952395502560647,0.877817091915114,Right,Correct,0.0,0.0,-45,45,2006,3328,-0.69
"{'cat': 'RB', 'resp': 'reach'}",22,270,Left,31.466853141032303,35.666321215698524,1.573342657051615,0.5602452635590613,Left,Correct,0.0,0.0,-45,45,2008,1571,-2.82
"{'cat': 'RB', 'resp': 'reach'}",22,271,Right,67.85067649206468,44.3945189748283,3.392533824603234,0.6973474733548664,Right,Correct,0.0,0.0,-45,45,2005,904,-0.55
"{'cat': 'RB', 'resp': 'reach'}",22,272,Left,46.386920809096296,51.77552790398332,2.319346040454815,0.8132880904944367,Left,Correct,0.0,0.0,-45,45,2002,1520,-2.73
"{'cat': 'RB', 'resp': 'reach'}",22,273,Right,57.659817681532324,30.290748895547374,2.882990884076616,0.47580597100992383,Right,Correct,0.0,0.0,-45,45,2008,1768,-0.57
"{'cat': 'RB', 'resp': 'reach'}",22,274,Right,54.45176047873659,61.052891440205926,2.722588023936829,0.9590165761448304,Right,Correct,0.0,0.0,-45,45,2006,1038,-0.79
"{'cat': 'RB', 'resp': 'reach'}",22,275,Right,57.53144680539783,68.00472435483441,2.8765723402698917,1.0682157122127334,Right,Correct,0.0,0.0,-45,45,2006,900,-0.68
"{'cat': 'RB', 'resp': 'reach'}",22,276,Right,59.09214319058139,78.0173620758971,2.9546071595290693,1.2254938577504662,Right,Correct,0.0,0.0,-45,45,2006,890,-0.72
"{'cat': 'RB', 'resp': 'reach'}",22,277,Right,63.30497770975869,62.775770335974435,3.1652488854879346,0.9860794945546868,Right,Correct,0.0,0.0,-45,45,2002,786,-0.79
"{'cat': 'RB', 'resp': 'reach'}",22,278,Left,39.96765541835978,40.71161115367044,1.998382770917989,0.6394964925808767,Left,Correct,0.0,0.0,-45,45,2005,1411,-2.74
"{'cat': 'RB', 'resp': 'reach'}",22,279,Left,33.43451019623706,52.568816938248524,1.671725509811853,0.8257490455055412,Left,Correct,0.0,0.0,-45,45,2006,1077,-2.94
"{'cat': 'RB', 'resp': 'reach'}",22,280,Right,64.00578034729259,76.55960424364383,3.200289017364629,1.2025954512678672,Right,Correct,0.0,0.0,-45,45,2009,932,-0.86
"{'cat': 'RB', 'resp': 'reach'}",22,281,Left,47.5026267502023,53.49717646736909,2.375131337510115,0.8403316828884175,Right,Incorrect,0.0,0.0,-45,45,2007,1212,-0.94
"{'cat': 'RB', 'resp': 'reach'}",22,282,Left,45.43254397944878,52.219560808321646,2.271627198972439,0.8202629430455437,Right,Incorrect,0.0,0.0,-45,45,2010,1376,-1.17
"{'cat': 'RB', 'resp': 'reach'}",22,283,Right,59.10728847521352,78.53933138158888,2.955364423760676,1.2336929324312695,Right,Correct,0.0,0.0,-45,45,2003,1137,-0.89
"{'cat': 'RB', 'resp': 'reach'}",22,284,Right,58.921385969091794,87.90736582864332,2.94606929845459,1.3808456734184813,Right,Correct,0.0,0.0,-45,45,2001,1984,-0.74
"{'cat': 'RB', 'resp': 'reach'}",22,285,Right,65.53974043623623,66.6818921670237,3.2769870218118116,1.0474367127969422,Right,Correct,0.0,0.0,-45,45,2004,1218,-0.85
"{'cat': 'RB', 'resp': 'reach'}",22,286,Right,59.31879244017891,69.03917388250484,2.965939622008946,1.0844648073959275,Right,Correct,0.0,0.0,-45,45,2001,1197,-0.81
"{'cat': 'RB', 'resp': 'reach'}",22,287,Left,42.66200295302833,45.3129817312481,2.133100147651416,0.7117746525956876,Left,Correct,0.0,0.0,-45,45,2002,2040,-2.62
"{'cat': 'RB', 'resp': 'reach'}",22,288,Right,52.40704612048822,31.101905516830364,2.6203523060244107,0.48854758942159054,Right,Correct,0.0,0.0,-45,45,2006,1015,-0.8
"{'cat': 'RB', 'resp': 'reach'}",22,289,Right,52.57080819810292,44.38782887701191,2.628540409905146,0.6972423855441074,Right,Correct,0.0,0.0,-45,45,2008,975,-0.79
"{'cat': 'RB', 'resp': 'reach'}",22,290,Right,53.34771240512599,62.23880813206888,2.6673856202562995,0.9776449119794614,Right,Correct,0.0,0.0,-45,45,2014,946,-0.79
"{'cat': 'RB', 'resp': 'reach'}",22,291,Right,62.51009929033507,23.301354456011957,3.125504964516754,0.3660168198884947,Right,Correct,0.0,0.0,-45,45,2002,804,-0.8
"{'cat': 'RB', 'resp': 'reach'}",22,292,Right,56.95018081449767,66.08717856116934,2.8475090407248835,1.0380949733212324,Right,Correct,0.0,0.0,-45,45,2005,1253,-0.71
"{'cat': 'RB', 'resp': 'reach'}",22,293,Left,34.01667390725417,32.71421247181719,1.7008336953627088,0.5138736478471824,Left,Correct,0.0,0.0,-45,45,2003,766,-2.58
"{'cat': 'RB', 'resp': 'reach'}",22,294,Right,65.47239639602672,51.14072191003467,3.273619819801336,0.8033165812592175,Right,Correct,0.0,0.0,-45,45,2004,1185,-0.56
"{'cat': 'RB', 'resp': 'reach'}",22,295,Left,39.073519574927744,42.596416903317945,1.953675978746387,0.6691029520635586,Left,Correct,0.0,0.0,-45,45,2005,829,-2.71
"{'cat': 'RB', 'resp': 'reach'}",22,296,Right,54.664046145438526,66.97085665676666,2.733202307271926,1.051975756387566,Right,Correct,0.0,0.0,-45,45,2003,1118,-0.76
"{'cat': 'RB', 'resp': 'reach'}",22,297,Right,56.203726820219124,37.349571459376506,2.810186341010956,0.5866856965575212,Right,Correct,0.0,0.0,-45,45,2005,773,-0.84
"{'cat': 'RB', 'resp': 'reach'}",22,298,Left,49.44210967797432,52.04458821011544,2.472105483898716,0.8175144799000231,Right,Incorrect,0.0,0.0,-45,45,2005,1060,-0.83
"{'cat': 'RB', 'resp': 'reach'}",22,299,Right,65.42636316503601,64.11243337723567,3.2713181582518005,1.0070757485084434,Right,Correct,0.0,0.0,-45,45,2002,1363,-0.86
"{'cat': 'RB', 'resp': 'reach'}",22,300,Left,46.66542034093148,42.21261865990517,2.3332710170465742,0.6630742633537275,Left,Correct,0.0,0.0,-45,45,2006,1050,-2.63
"{'cat': 'RB', 'resp': 'reach'}",22,301,Right,57.22535270328539,12.543259255551114,2.8612676351642694,0.1970290556465578,Right,Correct,0.0,0.0,-45,45,2003,883,-0.76
"{'cat': 'RB', 'resp': 'reach'}",22,302,Left,41.5447879547918,40.13353844550105,2.0772393977395898,0.6304161477147482,Left,Correct,0.0,0.0,-45,45,2005,2915,-2.88
"{'cat': 'RB', 'resp': 'reach'}",22,303,Right,65.47361262994627,82.92554754241897,3.2736806314973137,1.302591454770873,Right,Correct,0.0,0.0,-45,45,2004,847,-0.73
"{'cat': 'RB', 'resp': 'reach'}",22,304,Right,59.73427345031915,81.11556642006411,2.9867136725159575,1.2741603377852415,Right,Correct,0.0,0.0,-45,45,2008,1520,-0.69
"{'cat': 'RB', 'resp': 'reach'}",22,305,Left,46.34029295168248,24.350946357826178,2.317014647584124,0.38250377092852933,Right,Incorrect,0.0,0.0,-45,45,2009,1204,-0.72
"{'cat': 'RB', 'resp': 'reach'}",22,306,Right,68.52273455100502,37.44040213713365,3.4261367275502503,0.5881124615073333,Right,Correct,0.0,0.0,-45,45,2007,2604,-0.81
"{'cat': 'RB', 'resp': 'reach'}",22,307,Right,65.11499542998651,29.071433314605034,3.255749771499325,0.45665300665244374,Right,Correct,0.0,0.0,-45,45,2002,862,-0.86
"{'cat': 'RB', 'resp': 'reach'}",22,308,Right,56.11293066594833,31.09340693310996,2.8056465332974163,0.4884140939806809,Right,Correct,0.0,0.0,-45,45,2002,552,-0.75
"{'cat': 'RB', 'resp': 'reach'}",22,309,Right,53.61809431359276,60.51489920469772,2.6809047156796386,0.9505658138710258,Right,Correct,0.0,0.0,-45,45,2005,1327,-0.62
"{'cat': 'RB', 'resp': 'reach'}",22,310,Left,35.43251881880403,32.150856883346165,1.7716259409402013,0.5050244789566857,Left,Correct,0.0,0.0,-45,45,2003,1906,-2.73
"{'cat': 'RB', 'resp': 'reach'}",22,311,Left,35.43411378111979,25.60869430620111,1.7717056890559895,0.40226042950194085,Left,Correct,0.0,0.0,-45,45,2002,1945,-2.67
"{'cat': 'RB', 'resp': 'reach'}",22,312,Left,34.22384565641828,28.787568296465594,1.711192282820914,0.4521940653744537,Left,Correct,0.0,0.0,-45,45,2006,1324,-2.49
"{'cat': 'RB', 'resp': 'reach'}",22,313,Right,52.09166670878209,39.122605949641326,2.6045833354391044,0.6145364572034075,Right,Correct,0.0,0.0,-45,45,2003,672,-0.68
"{'cat': 'RB', 'resp': 'reach'}",22,314,Left,41.945325432466376,72.64716691513541,2.097266271623319,1.1411390294235044,Left,Correct,0.0,0.0,-45,45,2009,1606,-2.68
"{'cat': 'RB', 'resp': 'reach'}",22,315,Right,57.65067243366058,63.56887258585493,2.882533621683029,0.9985375155635372,Right,Correct,0.0,0.0,-45,45,2013,934,-0.87
"{'cat': 'RB', 'resp': 'reach'}",22,316,Left,41.98936256568065,68.71100588011016,2.0994681282840326,1.0793099564685957,Left,Correct,0.0,0.0,-45,45,2008,1048,-2.74
"{'cat': 'RB', 'resp': 'reach'}",22,317,Left,40.81284945017419,65.92639346736188,2.0406424725087096,1.0355693669736712,Left,Correct,0.0,0.0,-45,45,2001,2007,-2.72
"{'cat': 'RB', 'resp': 'reach'}",22,318,Right,64.98123476086045,42.82122836195438,3.2490617380430225,0.672634282198034,Right,Correct,0.0,0.0,-45,45,2002,829,-0.59
"{'cat': 'RB', 'resp': 'reach'}",22,319,Right,59.630222716183766,53.17113312537631,2.981511135809188,0.8352102060486356,Right,Correct,0.0,0.0,-45,45,2011,1609,-0.62
"{'cat': 'RB', 'resp': 'reach'}",22,320,Left,39.65260315344573,45.22062964048955,1.9826301576722867,0.7103239893463341,Left,Correct,0.0,0.0,-45,45,2012,1838,-2.95
"{'cat': 'RB', 'resp': 'reach'}",22,321,Left,42.948194244128544,12.746399798866499,2.1474097122064273,0.20021997983918705,Left,Correct,0.0,0.0,-45,45,2009,1254,-2.79
"{'cat': 'RB', 'resp': 'reach'}",22,322,Left,42.663479972613615,84.51704196398433,2.133173998630681,1.3275905906859673,Left,Correct,0.0,0.0,-45,45,2008,971,-2.56
"{'cat': 'RB', 'resp': 'reach'}",22,323,Right,63.16416487691017,35.9068161976177,3.158208243845509,0.5640229499011739,Right,Correct,0.0,0.0,-45,45,2001,2286,-0.68
"{'cat': 'RB', 'resp': 'reach'}",22,324,Left,39.41650036757751,43.136553091709,1.9708250183788756,0.6775873914704953,Left,Correct,0.0,0.0,-45,45,2004,1439,-3.08
"{'cat': 'RB', 'resp': 'reach'}",22,325,Right,68.46144488981801,43.53964663093827,3.4230722444909008,0.6839191699782563,Right,Correct,0.0,0.0,-45,45,2004,868,-0.62
"{'cat': 'RB', 'resp': 'reach'}",22,326,Right,57.4231113437498,66.06001871783995,2.87115556718749,1.037668347499851,Right,Correct,0.0,0.0,-45,45,2006,3113,-0.71
"{'cat': 'RB', 'resp': 'reach'}",22,327,Left,42.54721640514373,89.0403280115176,2.1273608202571865,1.3986422017710458,Left,Correct,0.0,0.0,-45,45,2012,1480,-2.73
"{'cat': 'RB', 'resp': 'reach'}",22,328,Right,56.346053789059674,15.583888477732003,2.8173026894529833,0.24479114778002745,Right,Correct,0.0,0.0,-45,45,2013,1595,-0.54
"{'cat': 'RB', 'resp': 'reach'}",22,329,Left,43.92860842790192,80.78244805095116,2.196430421395096,1.2689277266793362,Left,Correct,0.0,0.0,-45,45,2003,2506,-2.78
"{'cat': 'RB', 'resp': 'reach'}",22,330,Left,34.85569168323886,35.625944674755495,1.742784584161943,0.5596110303370414,Left,Correct,0.0,0.0,-45,45,2004,2477,-2.86
"{'cat': 'RB', 'resp': 'reach'}",22,331,Left,34.542175971919626,46.55259330224337,1.7271087985959812,0.7312464256194059,Left,Correct,0.0,0.0,-45,45,2009,2009,-2.55
"{'cat': 'RB', 'resp': 'reach'}",22,332,Left,40.38163079070852,56.180646165331375,2.019081539535426,0.8824835263346631,Left,Correct,0.0,0.0,-45,45,2011,1467,-2.7
"{'cat': 'RB', 'resp': 'reach'}",22,333,Left,35.479324971478334,56.525429631376035,1.7739662485739165,0.8878993723546889,Left,Correct,0.0,0.0,-45,45,2004,1220,-2.75
"{'cat': 'RB', 'resp': 'reach'}",22,334,Left,42.33023774673765,19.573251312150667,2.1165118873368827,0.3074559126455966,Left,Correct,0.0,0.0,-45,45,2007,2315,-2.46
"{'cat': 'RB', 'resp': 'reach'}",22,335,Right,61.37464062928856,60.26225715038354,3.0687320314644277,0.9465973217619196,Right,Correct,0.0,0.0,-45,45,2001,1420,-1.48
"{'cat': 'RB', 'resp': 'reach'}",22,336,Left,41.39592169684794,66.47700579312976,2.0697960848423973,1.044218365161713,Left,Correct,0.0,0.0,-45,45,2004,1795,-2.73
"{'cat': 'RB', 'resp': 'reach'}",22,337,Right,59.53207877369777,34.004911834857175,2.9766039386848884,0.5341479060317795,Right,Correct,0.0,0.0,-45,45,2003,762,-0.75
"{'cat': 'RB', 'resp': 'reach'}",22,338,Right,51.49640314927271,44.94674104845389,2.574820157463636,0.7060217574031277,Right,Correct,0.0,0.0,-45,45,2014,901,-0.87
"{'cat': 'RB', 'resp': 'reach'}",22,339,Right,62.680273081879506,15.761671170968832,3.134013654093975,0.24758375179506859,Right,Correct,0.0,0.0,-45,45,2009,1101,-0.66
"{'cat': 'RB', 'resp': 'reach'}",22,340,Right,61.52983117677804,42.37389545915049,3.076491558838902,0.6656075933922453,Right,Correct,0.0,0.0,-45,45,2002,753,-0.58
"{'cat': 'RB', 'resp': 'reach'}",22,341,Right,60.46102884703572,71.80496242419119,3.023051442351786,1.1279097122156507,Right,Correct,0.0,0.0,-45,45,2013,748,-0.67
"{'cat': 'RB', 'resp': 'reach'}",22,342,Right,66.95134129768059,37.547585734683956,3.3475670648840294,0.5897960975205803,Right,Correct,0.0,0.0,-45,45,2003,718,-0.63
"{'cat': 'RB', 'resp': 'reach'}",22,343,Left,37.65177925247424,86.60950718202932,1.882588962623712,1.3604589574704788,Left,Correct,0.0,0.0,-45,45,2001,1159,-2.79
"{'cat': 'RB', 'resp': 'reach'}",22,344,Left,46.731771128061425,78.62418442406243,2.3365885564030715,1.2350258009056179,Right,Incorrect,0.0,0.0,-45,45,2006,1025,-0.83
"{'cat': 'RB', 'resp': 'reach'}",22,345,Left,43.233592450693656,79.40952155665661,2.161679622534683,1.2473618477373638,Right,Incorrect,0.0,0.0,-45,45,2001,931,1.49
"{'cat': 'RB', 'resp': 'reach'}",22,346,Right,67.23402693510576,29.00640083552332,3.361701346755288,0.4556314788598045,Right,Correct,0.0,0.0,-45,45,2003,819,-0.94
"{'cat': 'RB', 'resp': 'reach'}",22,347,Right,62.37515716419539,57.778869189153305,3.1187578582097695,0.9075883548868483,Right,Correct,0.0,0.0,-45,45,2004,1046,-0.75
"{'cat': 'RB', 'resp': 'reach'}",22,348,Right,61.59582872085375,45.477364854764325,3.0797914360426875,0.7143567766617512,Right,Correct,0.0,0.0,-45,45,2002,1026,-0.91
"{'cat': 'RB', 'resp': 'reach'}",22,349,Left,40.69581518464724,53.45891150102006,2.034790759232362,0.8397306182025577,Left,Correct,0.0,0.0,-45,45,2010,1221,-2.58
"{'cat': 'RB', 'resp': 'reach'}",22,350,Right,55.41279801068731,36.348721523286045,2.7706399005343654,0.5709643825246832,Right,Correct,0.0,0.0,-45,45,2001,855,-0.73
"{'cat': 'RB', 'resp': 'reach'}",22,351,Right,59.534671250312655,57.89748868092947,2.976733562515633,0.9094516255065312,Right,Correct,0.0,0.0,-45,45,2012,747,-0.57
"{'cat': 'RB', 'resp': 'reach'}",22,352,Right,52.138006424929685,53.038928903378874,2.6069003212464845,0.8331335469856321,Right,Correct,0.0,0.0,-45,45,2002,627,-0.7
"{'cat': 'RB', 'resp': 'reach'}",22,353,Left,46.874235053367066,40.66299902714196,2.3437117526683533,0.6387328950829902,Right,Incorrect,0.0,0.0,-45,45,2014,1187,-0.52
"{'cat': 'RB', 'resp': 'reach'}",22,354,Left,30.748380151328895,57.77132957724562,1.5374190075664447,0.9074699229399479,Left,Correct,0.0,0.0,-45,45,2003,1820,-2.58
"{'cat': 'RB', 'resp': 'reach'}",22,355,Right,64.43415773548287,28.323195897358953,3.2217078867741433,0.4448997207866373,Right,Correct,0.0,0.0,-45,45,2006,1290,-0.76
"{'cat': 'RB', 'resp': 'reach'}",22,356,Right,53.149195969331316,22.22110049068283,2.657459798466566,0.3490482302810486,Right,Correct,0.0,0.0,-45,45,2013,828,-0.91
"{'cat': 'RB', 'resp': 'reach'}",22,357,Left,47.0929307420418,53.53339447227965,2.35464653710209,0.8409005939791909,Left,Correct,0.0,0.0,-45,45,2003,1411,-2.56
"{'cat': 'RB', 'resp': 'reach'}",22,358,Right,65.57930720125142,77.59341236272608,3.278965360062571,1.2188344712285184,Right,Correct,0.0,0.0,-45,45,2003,892,-0.62
"{'cat': 'RB', 'resp': 'reach'}",22,359,Left,48.58327554777128,43.58524384731893,2.429163777388564,0.6846354093782844,Left,Correct,0.0,0.0,-45,45,2004,1252,-2.57
"{'cat': 'RB', 'resp': 'reach'}",22,360,Right,64.60845402244601,69.27040948972186,3.230422701122301,1.0880970478203345,Right,Correct,0.0,0.0,-45,45,2001,691,-0.92
"{'cat': 'RB', 'resp': 'reach'}",22,361,Right,58.23589353180447,68.36307678799736,2.9117946765902234,1.073844699069837,Right,Correct,0.0,0.0,-45,45,2001,1148,-0.62
"{'cat': 'RB', 'resp': 'reach'}",22,362,Right,53.6963445928402,38.62269912830005,2.6848172296420096,0.6066839392163818,Right,Correct,0.0,0.0,-45,45,2013,742,-0.66
"{'cat': 'RB', 'resp': 'reach'}",22,363,Right,52.40543817797678,57.117467689138294,2.6202719088988387,0.8971990844192463,Right,Correct,0.0,0.0,-45,45,2003,759,-1.01
"{'cat': 'RB', 'resp': 'reach'}",22,364,Right,64.37044073933549,17.983847195098505,3.2185220369667746,0.2824896111570143,Right,Correct,0.0,0.0,-45,45,2001,852,-0.89
"{'cat': 'RB', 'resp': 'reach'}",22,365,Left,45.37042979364076,76.42396359239007,2.2685214896820383,1.2004648129003324,Left,Correct,0.0,0.0,-45,45,2012,1157,-2.72
"{'cat': 'RB', 'resp': 'reach'}",22,366,Left,44.805072592779744,55.60837467943238,2.240253629638987,0.8734943068548672,Left,Correct,0.0,0.0,-45,45,2003,1105,-2.47
"{'cat': 'RB', 'resp': 'reach'}",22,367,Right,67.546961367713,33.671277445388455,3.3773480683856496,0.5289071892970804,Right,Correct,0.0,0.0,-45,45,2014,903,-0.85
"{'cat': 'RB', 'resp': 'reach'}",22,368,Left,44.79882145817403,63.19058673448414,2.2399410729087013,0.9925954153054201,Left,Correct,0.0,0.0,-45,45,2006,1758,-2.56
"{'cat': 'RB', 'resp': 'reach'}",22,369,Right,61.936014836567864,23.842510824960296,3.0968007418283934,0.37451728425415187,Right,Correct,0.0,0.0,-45,45,2007,1073,2.94
"{'cat': 'RB', 'resp': 'reach'}",22,370,Left,36.047043202885376,83.44327036650732,1.802352160144269,1.3107238258746314,Left,Correct,0.0,0.0,-45,45,2010,1655,-2.54
"{'cat': 'RB', 'resp': 'reach'}",22,371,Right,56.73118150015992,42.81146288836069,2.8365590750079956,0.67248088649753,Right,Correct,0.0,0.0,-45,45,2008,840,-0.75
"{'cat': 'RB', 'resp': 'reach'}",22,372,Left,42.68520674883688,71.9598834094365,2.134260337441844,1.1303432053613187,Left,Correct,0.0,0.0,-45,45,2001,1604,-2.63
"{'cat': 'RB', 'resp': 'reach'}",22,373,Left,40.31992950475463,46.781445248913876,2.0159964752377317,0.7348412235915049,Right,Incorrect,0.0,0.0,-45,45,2006,677,-0.69
"{'cat': 'RB', 'resp': 'reach'}",22,374,Right,66.58678392251795,33.071762320523305,3.329339196125898,0.5194900277371187,Right,Correct,0.0,0.0,-45,45,2006,840,-0.74
"{'cat': 'RB', 'resp': 'reach'}",22,375,Right,67.8402983964375,29.84618013232067,3.392014919821875,0.4688227012070813,Right,Correct,0.0,0.0,-45,45,2008,896,-1.05
"{'cat': 'RB', 'resp': 'reach'}",22,376,Left,38.543615100952735,66.74186914270926,1.9271807550476368,1.0483788289279337,Left,Correct,0.0,0.0,-45,45,2004,1368,-2.55
"{'cat': 'RB', 'resp': 'reach'}",22,377,Left,33.19639823533487,45.742461542547915,1.6598199117667434,0.7185209056959109,Left,Correct,0.0,0.0,-45,45,2009,751,-2.59
"{'cat': 'RB', 'resp': 'reach'}",22,378,Left,46.755137085929746,64.06638019817987,2.337756854296487,1.0063523468634623,Left,Correct,0.0,0.0,-45,45,2010,1891,-2.6
"{'cat': 'RB', 'resp': 'reach'}",22,379,Right,63.147183924916334,24.514993322459024,3.157359196245817,0.3850806146232004,Right,Correct,0.0,0.0,-45,45,2003,1743,-0.48
"{'cat': 'RB', 'resp': 'reach'}",22,380,Left,41.08733032110129,46.887260028532786,2.0543665160550644,0.7365033582629649,Left,Correct,0.0,0.0,-45,45,2012,907,-2.42
"{'cat': 'RB', 'resp': 'reach'}",22,381,Left,36.52683806500471,30.731017665685762,1.8263419032502355,0.4827216966792828,Left,Correct,0.0,0.0,-45,45,2001,766,-2.39
"{'cat': 'RB', 'resp': 'reach'}",22,382,Right,61.655108338254486,47.37752657065899,3.0827554169127245,0.7442044470981874,Right,Correct,0.0,0.0,-45,45,2006,784,-0.81
"{'cat': 'RB', 'resp': 'reach'}",22,383,Right,58.52890659563421,33.82901442067208,2.9264453297817106,0.5313849159108329,Right,Correct,0.0,0.0,-45,45,2003,730,-0.94
"{'cat': 'RB', 'resp': 'reach'}",22,384,Left,43.21464827283123,44.03354168759708,2.1607324136415613,0.6916772553864744,Left,Correct,0.0,0.0,-45,45,2011,1113,-2.67
"{'cat': 'RB', 'resp': 'reach'}",22,385,Right,63.79204633127172,17.49462452310165,3.189602316563586,0.2748049193954399,Right,Correct,0.0,0.0,-45,45,2014,543,-0.87
"{'cat': 'RB', 'resp': 'reach'}",22,386,Left,37.63142075061734,35.910472820546744,1.881571037530867,0.564080387999828,Left,Correct,0.0,0.0,-45,45,2006,882,-2.67
"{'cat': 'RB', 'resp': 'reach'}",22,387,Left,33.61763365209052,43.49660920479337,1.6808816826045259,0.6832431396692252,Left,Correct,0.0,0.0,-45,45,2006,1945,-2.76
"{'cat': 'RB', 'resp': 'reach'}",22,388,Left,32.45764264793833,45.39695705694607,1.6228821323969163,0.7130937339271656,Right,Incorrect,0.0,0.0,-45,45,2008,1110,-0.83
"{'cat': 'RB', 'resp': 'reach'}",22,389,Right,55.41884763898189,63.037565853765884,2.7709423819490944,0.9901917689318684,Right,Correct,0.0,0.0,-45,45,2007,913,-0.75
"{'cat': 'RB', 'resp': 'reach'}",22,390,Left,47.82394825745069,70.11897247663507,2.3911974128725344,1.1014262440493081,Right,Incorrect,0.0,0.0,-45,45,2003,904,-0.66
"{'cat': 'RB', 'resp': 'reach'}",22,391,Right,64.63091281760595,31.013697905451014,3.231545640880297,0.48716202750209037,Right,Correct,0.0,0.0,-45,45,2006,633,-0.96
"{'cat': 'RB', 'resp': 'reach'}",22,392,Right,65.59902741342533,36.33038827375657,3.2799513706712666,0.570676404514492,Right,Correct,0.0,0.0,-45,45,2005,792,-0.61
"{'cat': 'RB', 'resp': 'reach'}",22,393,Right,62.321863145436446,37.891424558790526,3.116093157271822,0.5951971051397409,Right,Correct,0.0,0.0,-45,45,2001,658,-0.68
"{'cat': 'RB', 'resp': 'reach'}",22,394,Right,57.80129167135467,12.268590890421947,2.8900645835677334,0.19271457505624126,Right,Correct,0.0,0.0,-45,45,2006,679,-0.7
"{'cat': 'RB', 'resp': 'reach'}",22,395,Right,56.85074715994313,70.38226644265117,2.842537357997157,1.1055620559961616,Right,Correct,0.0,0.0,-45,45,2006,620,-0.75
"{'cat': 'RB', 'resp': 'reach'}",22,396,Left,42.30063451102036,77.16655939987805,2.115031725551018,1.2121294805672866,Left,Correct,0.0,0.0,-45,45,2009,786,-2.89
"{'cat': 'RB', 'resp': 'reach'}",22,397,Left,38.343571649124065,40.25083773790824,1.9171785824562033,0.6322586806912367,Left,Correct,0.0,0.0,-45,45,2012,1271,-2.5
"{'cat': 'RB', 'resp': 'reach'}",22,398,Left,38.760471437742964,62.063230764960586,1.9380235718871484,0.974886949146241,Left,Correct,0.0,0.0,-45,45,2002,859,-2.64
"{'cat': 'RB', 'resp': 'reach'}",22,399,Left,39.55488286163799,35.353592372086716,1.9777441430818996,0.5553329303707789,Left,Correct,0.0,0.0,-45,45,2006,900,-2.42
