condition,subject,trial,cat,x,y,xt,yt,resp,fb,rotation,su,target_angle_left,target_angle_right,rt,mt,ep
"{'cat': 'II', 'resp': 'button'}",19,0,Right,53.85008583688365,40.12654914687141,2.692504291844182,0.6303063600686051,Left,Incorrect,0.0,0.0,-45,45,4705,-1,-1
"{'cat': 'II', 'resp': 'button'}",19,1,Right,51.864086332168455,29.427023116637475,2.5932043166084227,0.46223859820122654,Right,Correct,0.0,0.0,-45,45,2409,-1,-1
"{'cat': 'II', 'resp': 'button'}",19,2,Left,38.63097211687982,55.38406087442992,1.931548605843991,0.8699707938453947,Right,Incorrect,0.0,0.0,-45,45,1727,-1,-1
"{'cat': 'II', 'resp': 'button'}",19,3,Right,38.84830269850621,12.350402435957676,1.9424151349253105,0.1939996678084106,Right,Correct,0.0,0.0,-45,45,1447,-1,-1
"{'cat': 'II', 'resp': 'button'}",19,4,Right,69.51430988096268,41.49661949619964,3.475715494048134,0.6518273747903589,Left,Incorrect,0.0,0.0,-45,45,1827,-1,-1
"{'cat': 'II', 'resp': 'button'}",19,5,Left,20.251253246434086,41.13009826162603,1.0125626623217043,0.6460700727007532,Left,Correct,0.0,0.0,-45,45,1058,-1,-1
"{'cat': 'II', 'resp': 'button'}",19,6,Right,35.45941007892105,25.234728904632423,1.7729705039460526,0.3963861947106161,Right,Correct,0.0,0.0,-45,45,1066,-1,-1
"{'cat': 'II', 'resp': 'button'}",19,7,Right,49.030261156710154,28.26729382844021,2.4515130578355073,0.44402161314145927,Right,Correct,0.0,0.0,-45,45,693,-1,-1
"{'cat': 'II', 'resp': 'button'}",19,8,Right,39.04060764370696,24.850703732144556,1.952030382185348,0.3903539414072089,Right,Correct,0.0,0.0,-45,45,901,-1,-1
"{'cat': 'II', 'resp': 'button'}",19,9,Left,38.16944381798524,46.31840244559827,1.908472190899262,0.727567764245535,Left,Correct,0.0,0.0,-45,45,1410,-1,-1
"{'cat': 'II', 'resp': 'button'}",19,10,Left,45.731189738285885,70.08790831902061,2.2865594869142942,1.1009382894025506,Right,Incorrect,0.0,0.0,-45,45,1269,-1,-1
"{'cat': 'II', 'resp': 'button'}",19,11,Right,67.9294005756159,40.67325996551926,3.396470028780795,0.6388940735261157,Right,Correct,0.0,0.0,-45,45,1157,-1,-1
"{'cat': 'II', 'resp': 'button'}",19,12,Right,59.53615186790803,27.375821679551926,2.9768075933954012,0.43001840137232256,Right,Correct,0.0,0.0,-45,45,1508,-1,-1
"{'cat': 'II', 'resp': 'button'}",19,13,Left,25.200859597933743,38.30983480534192,1.2600429798966872,0.6017694779235037,Left,Correct,0.0,0.0,-45,45,930,-1,-1
"{'cat': 'II', 'resp': 'button'}",19,14,Right,70.02366116396226,50.65859477504273,3.501183058198113,0.7957433459322826,Right,Correct,0.0,0.0,-45,45,875,-1,-1
"{'cat': 'II', 'resp': 'button'}",19,15,Left,49.908386675127026,61.96500404189246,2.495419333756351,0.973344007388356,Left,Correct,0.0,0.0,-45,45,1125,-1,-1
"{'cat': 'II', 'resp': 'button'}",19,16,Left,55.28369900831363,63.3837484914104,2.764184950415682,0.9956295930879903,Left,Correct,0.0,0.0,-45,45,1984,-1,-1
"{'cat': 'II', 'resp': 'button'}",19,17,Right,82.59980285360642,53.973392346679695,4.129990142680321,0.8478120644282424,Left,Incorrect,0.0,0.0,-45,45,2547,-1,-1
"{'cat': 'II', 'resp': 'button'}",19,18,Right,41.54036883211529,16.44056680033999,2.0770184416057647,0.2582478194040018,Right,Correct,0.0,0.0,-45,45,1247,-1,-1
"{'cat': 'II', 'resp': 'button'}",19,19,Right,45.29021787547424,16.174845237485425,2.264510893773712,0.2540738748551803,Right,Correct,0.0,0.0,-45,45,8264,-1,-1
"{'cat': 'II', 'resp': 'button'}",19,20,Left,55.32381585749553,65.12701798606395,2.766190792874777,1.023012806276144,Left,Correct,0.0,0.0,-45,45,1107,-1,-1
"{'cat': 'II', 'resp': 'button'}",19,21,Left,35.31317327193527,67.79219188329563,1.7656586635967637,1.0648772599565557,Left,Correct,0.0,0.0,-45,45,1019,-1,-1
"{'cat': 'II', 'resp': 'button'}",19,22,Right,54.597963355149815,40.92827005075669,2.729898167757491,0.6428997625779818,Right,Correct,0.0,0.0,-45,45,2312,-1,-1
"{'cat': 'II', 'resp': 'button'}",19,23,Right,59.75303764985256,36.12625924841022,2.987651882492628,0.5674699532824292,Right,Correct,0.0,0.0,-45,45,1024,-1,-1
"{'cat': 'II', 'resp': 'button'}",19,24,Right,34.42870111911236,12.430058019755673,1.721435055955618,0.1952508947927966,Right,Correct,0.0,0.0,-45,45,787,-1,-1
"{'cat': 'II', 'resp': 'button'}",19,25,Left,36.53853868197915,47.84700262181399,1.8269269340989576,0.7515789596649121,Left,Correct,0.0,0.0,-45,45,728,-1,-1
"{'cat': 'II', 'resp': 'button'}",19,26,Left,26.462887571413304,48.55074611383133,1.3231443785706654,0.7626333365875785,Left,Correct,0.0,0.0,-45,45,803,-1,-1
"{'cat': 'II', 'resp': 'button'}",19,27,Right,64.4137386605528,33.43738928443325,3.2206869330276398,0.5252332826559878,Right,Correct,0.0,0.0,-45,45,722,-1,-1
"{'cat': 'II', 'resp': 'button'}",19,28,Left,49.216810347571986,66.27460240901189,2.460840517378599,1.041039020238681,Left,Correct,0.0,0.0,-45,45,1020,-1,-1
"{'cat': 'II', 'resp': 'button'}",19,29,Left,48.76816864607436,79.86873597482692,2.4384084323037176,1.2545751709500952,100,Incorrect,0.0,0.0,-45,45,583,-1,-1
"{'cat': 'II', 'resp': 'button'}",19,30,Right,75.82058968604117,53.700671600759584,3.7910294843020584,0.8435281769689218,Right,Correct,0.0,0.0,-45,45,989,-1,-1
"{'cat': 'II', 'resp': 'button'}",19,31,Right,72.75686491787721,47.43979104170419,3.6378432458938605,0.7451824951222638,Right,Correct,0.0,0.0,-45,45,2479,-1,-1
"{'cat': 'II', 'resp': 'button'}",19,32,Left,45.10907513050665,76.44204140636288,2.2554537565253328,1.2007487785381818,Left,Correct,0.0,0.0,-45,45,605,-1,-1
"{'cat': 'II', 'resp': 'button'}",19,33,Left,41.848189072385914,53.81216298651327,2.0924094536192954,0.8452794795610333,100,Incorrect,0.0,0.0,-45,45,51,-1,-1
"{'cat': 'II', 'resp': 'button'}",19,34,Left,50.677603357520105,81.18646205806357,2.533880167876005,1.275273963862795,Left,Correct,0.0,0.0,-45,45,55,-1,-1
"{'cat': 'II', 'resp': 'button'}",19,35,Left,48.67731297993488,55.400318693133976,2.433865648996744,0.870226171064415,Right,Incorrect,0.0,0.0,-45,45,798,-1,-1
"{'cat': 'II', 'resp': 'button'}",19,36,Right,65.23453607385173,34.80603731954826,3.261726803692586,0.5467319557183249,Right,Correct,0.0,0.0,-45,45,2825,-1,-1
"{'cat': 'II', 'resp': 'button'}",19,37,Left,38.759715607092495,53.937737687756496,1.9379857803546248,0.8472520023555457,Left,Correct,0.0,0.0,-45,45,3902,-1,-1
"{'cat': 'II', 'resp': 'button'}",19,38,Right,77.56244407560122,60.50942261505074,3.8781222037800607,0.9504797878020175,Right,Correct,0.0,0.0,-45,45,986,-1,-1
"{'cat': 'II', 'resp': 'button'}",19,39,Left,17.866012890429843,41.28860036764725,0.8933006445214922,0.648559817960027,Left,Correct,0.0,0.0,-45,45,5742,-1,-1
"{'cat': 'II', 'resp': 'button'}",19,40,Right,75.6006786050892,49.1331957426275,3.78003393025446,0.7717824339621393,Right,Correct,0.0,0.0,-45,45,618,-1,-1
"{'cat': 'II', 'resp': 'button'}",19,41,Right,64.33577132826535,46.39456508548826,3.2167885664132676,0.7287641241953172,Right,Correct,0.0,0.0,-45,45,725,-1,-1
"{'cat': 'II', 'resp': 'button'}",19,42,Left,42.715615732714475,65.50157090727825,2.1357807866357237,1.0288962698044812,100,Correct,0.0,0.0,-45,45,782,-1,-1
"{'cat': 'II', 'resp': 'button'}",19,43,Right,52.24306567515531,32.30082648944441,2.6121532837577655,0.5073801960205858,Right,Correct,0.0,0.0,-45,45,475,-1,-1
"{'cat': 'II', 'resp': 'button'}",19,44,Right,82.04220408722435,59.10337793910665,4.102110204361217,0.9283936896791923,Right,Correct,0.0,0.0,-45,45,982,-1,-1
"{'cat': 'II', 'resp': 'button'}",19,45,Right,65.32131649721322,41.92605932728692,3.266065824860661,0.658572999882872,Right,Correct,0.0,0.0,-45,45,2289,-1,-1
"{'cat': 'II', 'resp': 'button'}",19,46,Right,68.118948575276,54.020661665461816,3.4059474287638,0.8485545691513731,Right,Correct,0.0,0.0,-45,45,945,-1,-1
"{'cat': 'II', 'resp': 'button'}",19,47,Right,36.34587096694749,20.42100035927861,1.8172935483473742,0.3207723235383211,Right,Correct,0.0,0.0,-45,45,6583,-1,-1
"{'cat': 'II', 'resp': 'button'}",19,48,Right,33.48072593172348,20.472659436141946,1.6740362965861737,0.32158378242014646,Right,Correct,0.0,0.0,-45,45,1468,-1,-1
"{'cat': 'II', 'resp': 'button'}",19,49,Left,63.70761710558425,87.56334914917875,3.185380855279212,1.3754418720538901,Left,Correct,0.0,0.0,-45,45,2828,-1,-1
"{'cat': 'II', 'resp': 'button'}",19,50,Right,64.62363579556862,52.571341414140456,3.2311817897784305,0.8257886998801224,Right,Correct,0.0,0.0,-45,45,1153,-1,-1
"{'cat': 'II', 'resp': 'button'}",19,51,Left,58.020110390194645,77.90912096675204,2.901005519509732,1.2237936103839337,Left,Correct,0.0,0.0,-45,45,3703,-1,-1
"{'cat': 'II', 'resp': 'button'}",19,52,Left,25.090854835791724,57.074272403123906,1.2545427417895862,0.8965205744531837,Left,Correct,0.0,0.0,-45,45,1283,-1,-1
"{'cat': 'II', 'resp': 'button'}",19,53,Left,50.69771073168154,63.3422453697356,2.534885536584077,0.9949776635772174,Right,Incorrect,0.0,0.0,-45,45,1104,-1,-1
"{'cat': 'II', 'resp': 'button'}",19,54,Right,42.87922831814632,23.913659964963838,2.1439614159073157,0.37563489233187364,Right,Correct,0.0,0.0,-45,45,753,-1,-1
"{'cat': 'II', 'resp': 'button'}",19,55,Right,66.85508098302327,51.75694829946702,3.342754049151164,0.8129962427491615,Left,Incorrect,0.0,0.0,-45,45,813,-1,-1
"{'cat': 'II', 'resp': 'button'}",19,56,Right,37.54817757680678,24.51503144630008,1.877408878840339,0.3850812134710955,Right,Correct,0.0,0.0,-45,45,1443,-1,-1
"{'cat': 'II', 'resp': 'button'}",19,57,Right,76.17036731233335,46.74424447964212,3.808518365616668,0.7342568752742447,Right,Correct,0.0,0.0,-45,45,801,-1,-1
"{'cat': 'II', 'resp': 'button'}",19,58,Left,28.39415437805632,50.915156756373094,1.4197077189028162,0.7997734121109722,Right,Incorrect,0.0,0.0,-45,45,1306,-1,-1
"{'cat': 'II', 'resp': 'button'}",19,59,Right,73.10944870523639,56.34136270962631,3.6554724352618195,0.8850080559089997,Right,Correct,0.0,0.0,-45,45,583,-1,-1
"{'cat': 'II', 'resp': 'button'}",19,60,Left,10.687952322252826,32.074021166550374,0.5343976161126414,0.5038175463395909,Left,Correct,0.0,0.0,-45,45,894,-1,-1
"{'cat': 'II', 'resp': 'button'}",19,61,Right,79.82119902857445,63.21826067495487,3.991059951428723,0.9930301165458137,Right,Correct,0.0,0.0,-45,45,1248,-1,-1
"{'cat': 'II', 'resp': 'button'}",19,62,Left,39.59789973398072,52.737927635988896,1.9798949866990359,0.8284054301338643,Left,Correct,0.0,0.0,-45,45,6529,-1,-1
"{'cat': 'II', 'resp': 'button'}",19,63,Left,26.74494248546938,54.571474163284556,1.337247124273469,0.8572067116346999,Left,Correct,0.0,0.0,-45,45,10283,-1,-1
"{'cat': 'II', 'resp': 'button'}",19,64,Right,60.411918817273,38.426537889363836,3.02059594086365,0.6036026456805763,Right,Correct,0.0,0.0,-45,45,627,-1,-1
"{'cat': 'II', 'resp': 'button'}",19,65,Left,30.70281552893268,60.05844836018223,1.5351407764466338,0.9433959007717522,Left,Correct,0.0,0.0,-45,45,4721,-1,-1
"{'cat': 'II', 'resp': 'button'}",19,66,Right,54.87274224258753,34.34604445651045,2.743637112129376,0.5395064047222083,Right,Correct,0.0,0.0,-45,45,674,-1,-1
"{'cat': 'II', 'resp': 'button'}",19,67,Right,78.98396407108737,47.36565717965797,3.9491982035543685,0.7440180031403306,Right,Correct,0.0,0.0,-45,45,1067,-1,-1
"{'cat': 'II', 'resp': 'button'}",19,68,Left,61.015436647512736,88.0931882391145,3.050771832375637,1.3837645650165242,Left,Correct,0.0,0.0,-45,45,1090,-1,-1
"{'cat': 'II', 'resp': 'button'}",19,69,Left,40.23850998181448,56.24330515013122,2.011925499090724,0.8834677713663062,Right,Incorrect,0.0,0.0,-45,45,985,-1,-1
"{'cat': 'II', 'resp': 'button'}",19,70,Left,43.82494280273302,60.92045532817492,2.191247140136651,0.9569362745616975,Right,Incorrect,0.0,0.0,-45,45,504,-1,-1
"{'cat': 'II', 'resp': 'button'}",19,71,Right,47.37512421703383,23.37902329498863,2.3687562108516915,0.3672368391582046,Right,Correct,0.0,0.0,-45,45,1159,-1,-1
"{'cat': 'II', 'resp': 'button'}",19,72,Left,16.947461745435646,43.032715720515306,0.8473730872717823,0.6759563178579445,Left,Correct,0.0,0.0,-45,45,608,-1,-1
"{'cat': 'II', 'resp': 'button'}",19,73,Right,50.089649079784955,30.25090547492939,2.504482453989248,0.4751801120223871,Right,Correct,0.0,0.0,-45,45,380,-1,-1
"{'cat': 'II', 'resp': 'button'}",19,74,Left,26.966505144497155,54.94054697519373,1.3483252572248576,0.8630040938073679,Left,Correct,0.0,0.0,-45,45,344,-1,-1
"{'cat': 'II', 'resp': 'button'}",19,75,Left,17.99829704232054,41.47779622312906,0.8999148521160271,0.6515316995083837,Right,Incorrect,0.0,0.0,-45,45,549,-1,-1
"{'cat': 'II', 'resp': 'button'}",19,76,Right,49.35588231600633,18.683152589581347,2.4677941158003165,0.2934742746066294,Right,Correct,0.0,0.0,-45,45,511,-1,-1
"{'cat': 'II', 'resp': 'button'}",19,77,Right,60.19399449502521,51.76208480690741,3.0096997247512602,0.8130769268193608,Right,Correct,0.0,0.0,-45,45,673,-1,-1
"{'cat': 'II', 'resp': 'button'}",19,78,Left,69.41593358553713,85.20708000815412,3.4707966792768565,1.3384296829372737,Left,Correct,0.0,0.0,-45,45,821,-1,-1
"{'cat': 'II', 'resp': 'button'}",19,79,Left,45.625024604552834,72.68672530319988,2.2812512302276415,1.1417604111301602,Right,Incorrect,0.0,0.0,-45,45,320,-1,-1
"{'cat': 'II', 'resp': 'button'}",19,80,Right,74.91658421560356,62.43613839828744,3.7458292107801783,0.9807445685528772,Right,Correct,0.0,0.0,-45,45,357,-1,-1
"{'cat': 'II', 'resp': 'button'}",19,81,Right,55.15024575896287,42.55666423911414,2.7575122879481433,0.6684785186744422,Left,Incorrect,0.0,0.0,-45,45,679,-1,-1
"{'cat': 'II', 'resp': 'button'}",19,82,Left,38.7603907011249,62.34180406273843,1.9380195350562448,0.979262768275167,Right,Incorrect,0.0,0.0,-45,45,549,-1,-1
"{'cat': 'II', 'resp': 'button'}",19,83,Right,86.92659841160948,68.78132346981155,4.346329920580474,1.0804145025847158,Right,Correct,0.0,0.0,-45,45,449,-1,-1
"{'cat': 'II', 'resp': 'button'}",19,84,Left,47.9192826093308,54.62754520399112,2.39596413046654,0.8580874734825142,Right,Incorrect,0.0,0.0,-45,45,650,-1,-1
"{'cat': 'II', 'resp': 'button'}",19,85,Right,54.80160598029383,27.18464143724499,2.7400802990146915,0.4270153491486077,Right,Correct,0.0,0.0,-45,45,485,-1,-1
"{'cat': 'II', 'resp': 'button'}",19,86,Right,56.141306764548645,34.47473980717633,2.807065338227432,0.5415279465632237,Right,Correct,0.0,0.0,-45,45,600,-1,-1
"{'cat': 'II', 'resp': 'button'}",19,87,Right,66.21020095251546,49.83979002244493,3.3105100476257734,0.7828815909548543,Left,Incorrect,0.0,0.0,-45,45,543,-1,-1
"{'cat': 'II', 'resp': 'button'}",19,88,Right,74.1831441694886,44.764091457848814,3.7091572084744304,0.7031527043429971,Right,Correct,0.0,0.0,-45,45,835,-1,-1
"{'cat': 'II', 'resp': 'button'}",19,89,Left,29.149796981224213,44.65994242126469,1.4574898490612105,0.7015167351019416,Right,Incorrect,0.0,0.0,-45,45,524,-1,-1
"{'cat': 'II', 'resp': 'button'}",19,90,Left,37.12168714628641,49.97485294611667,1.8560843573143204,0.7850031543987517,Left,Correct,0.0,0.0,-45,45,672,-1,-1
"{'cat': 'II', 'resp': 'button'}",19,91,Right,57.35093680861032,26.050435181032412,2.867546840430516,0.40919927893774255,Right,Correct,0.0,0.0,-45,45,1305,-1,-1
"{'cat': 'II', 'resp': 'button'}",19,92,Right,42.30368226250445,13.618904236038315,2.1151841131252227,0.21392524748940442,Right,Correct,0.0,0.0,-45,45,880,-1,-1
"{'cat': 'II', 'resp': 'button'}",19,93,Left,60.08303696980816,80.72749100064051,3.0041518484904084,1.268064463351742,Left,Correct,0.0,0.0,-45,45,931,-1,-1
"{'cat': 'II', 'resp': 'button'}",19,94,Right,84.25722783915072,54.54588432736092,4.212861391957535,0.8568047474319785,Right,Correct,0.0,0.0,-45,45,520,-1,-1
"{'cat': 'II', 'resp': 'button'}",19,95,Right,71.49308583818474,48.423726874110756,3.574654291909237,0.760638123035725,107,Correct,0.0,0.0,-45,45,568,-1,-1
"{'cat': 'II', 'resp': 'button'}",19,96,Right,39.056998178937626,12.494918454713662,1.9528499089468812,0.1962697201226599,Right,Correct,0.0,0.0,-45,45,475,-1,-1
"{'cat': 'II', 'resp': 'button'}",19,97,Right,63.80537474301837,34.06565368153541,3.190268737150918,0.5351020367282286,Right,Correct,0.0,0.0,-45,45,925,-1,-1
"{'cat': 'II', 'resp': 'button'}",19,98,Right,44.979021933055606,24.196422011317004,2.2489510966527804,0.3800765081695593,Right,Correct,0.0,0.0,-45,45,558,-1,-1
"{'cat': 'II', 'resp': 'button'}",19,99,Left,51.442259567546515,73.68900943975603,2.5721129783773256,1.1575042535312323,Right,Incorrect,0.0,0.0,-45,45,731,-1,-1
"{'cat': 'II', 'resp': 'button'}",19,100,Left,35.48050408409798,62.240394147531255,1.7740252042048992,0.9776698250520865,Left,Correct,0.0,0.0,-45,45,587,-1,-1
"{'cat': 'II', 'resp': 'button'}",19,101,Left,49.290907681195414,61.44483168461966,2.464545384059771,0.9651731591073124,Left,Correct,0.0,0.0,-45,45,553,-1,-1
"{'cat': 'II', 'resp': 'button'}",19,102,Left,30.28106335524733,55.065496849888426,1.5140531677623665,0.8649668018494069,Right,Incorrect,0.0,0.0,-45,45,448,-1,-1
"{'cat': 'II', 'resp': 'button'}",19,103,Right,73.77484419428812,47.49567692846612,3.688742209714406,0.7460603485787171,Right,Correct,0.0,0.0,-45,45,470,-1,-1
"{'cat': 'II', 'resp': 'button'}",19,104,Right,80.38360730929753,64.41717881098945,4.019180365464877,1.0118626785879226,Right,Correct,0.0,0.0,-45,45,505,-1,-1
"{'cat': 'II', 'resp': 'button'}",19,105,Left,49.92072969960524,64.48226615514929,2.496036484980262,1.0128850681991939,Left,Correct,0.0,0.0,-45,45,1593,-1,-1
"{'cat': 'II', 'resp': 'button'}",19,106,Right,81.73731358873637,54.584227637864736,4.086865679436818,0.8574070427449438,Right,Correct,0.0,0.0,-45,45,804,-1,-1
"{'cat': 'II', 'resp': 'button'}",19,107,Left,19.12084330839334,35.94067450172639,0.956042165419667,0.5645547948984282,Left,Correct,0.0,0.0,-45,45,668,-1,-1
"{'cat': 'II', 'resp': 'button'}",19,108,Left,30.992571850601337,43.62351661273351,1.5496285925300668,0.6852365965715794,Right,Incorrect,0.0,0.0,-45,45,1181,-1,-1
"{'cat': 'II', 'resp': 'button'}",19,109,Left,48.64793464151481,58.555288812422575,2.4323967320757403,0.9197843258096767,Right,Incorrect,0.0,0.0,-45,45,500,-1,-1
"{'cat': 'II', 'resp': 'button'}",19,110,Right,89.43439462476618,65.56217340792878,4.471719731238309,1.0298482116586458,Right,Correct,0.0,0.0,-45,45,486,-1,-1
"{'cat': 'II', 'resp': 'button'}",19,111,Right,36.476032457146545,23.459263496489946,1.8238016228573273,0.36849724929600003,Left,Incorrect,0.0,0.0,-45,45,922,-1,-1
"{'cat': 'II', 'resp': 'button'}",19,112,Right,59.44548992522254,43.37032238534143,2.972274496261127,0.681259430948048,Right,Correct,0.0,0.0,-45,45,661,-1,-1
"{'cat': 'II', 'resp': 'button'}",19,113,Left,53.83616303600542,60.89153280227166,2.6918081518002714,0.9564819605871929,Right,Incorrect,0.0,0.0,-45,45,1268,-1,-1
"{'cat': 'II', 'resp': 'button'}",19,114,Right,60.24723189259528,34.547619080059135,3.012361594629764,0.5426727315046617,Right,Correct,0.0,0.0,-45,45,684,-1,-1
"{'cat': 'II', 'resp': 'button'}",19,115,Right,37.03594373572086,23.632971646959497,1.8517971867860432,0.3712258505429192,Left,Incorrect,0.0,0.0,-45,45,864,-1,-1
"{'cat': 'II', 'resp': 'button'}",19,116,Right,49.10845250609068,35.05504042916432,2.455422625304534,0.5506432874177791,Right,Correct,0.0,0.0,-45,45,843,-1,-1
"{'cat': 'II', 'resp': 'button'}",19,117,Right,56.09705287508232,38.66767960811179,2.8048526437541157,0.6073904909410393,Right,Correct,0.0,0.0,-45,45,761,-1,-1
"{'cat': 'II', 'resp': 'button'}",19,118,Left,18.406458194349323,48.44647141357352,0.9203229097174662,0.7609953934261524,Right,Incorrect,0.0,0.0,-45,45,1983,-1,-1
"{'cat': 'II', 'resp': 'button'}",19,119,Left,23.63866069094354,40.899621985019486,1.181933034547177,0.642449759813684,Left,Correct,0.0,0.0,-45,45,853,-1,-1
"{'cat': 'II', 'resp': 'button'}",19,120,Left,35.13995746548995,62.905993724580405,1.7569978732744973,0.988125038759537,Right,Incorrect,0.0,0.0,-45,45,858,-1,-1
"{'cat': 'II', 'resp': 'button'}",19,121,Right,47.30899080877048,23.614120757450465,2.365449540438524,0.3709297414629431,Right,Correct,0.0,0.0,-45,45,826,-1,-1
"{'cat': 'II', 'resp': 'button'}",19,122,Right,85.4838662617093,58.854208642866936,4.274193313085465,0.9244797475263583,Right,Correct,0.0,0.0,-45,45,2148,-1,-1
"{'cat': 'II', 'resp': 'button'}",19,123,Left,51.94454508644589,72.74518030677986,2.597227254322295,1.1426786201792225,Right,Incorrect,0.0,0.0,-45,45,899,-1,-1
"{'cat': 'II', 'resp': 'button'}",19,124,Left,55.88244043822693,75.5608825591975,2.7941220219113467,1.18690756773368,Right,Incorrect,0.0,0.0,-45,45,506,-1,-1
"{'cat': 'II', 'resp': 'button'}",19,125,Left,43.35785807661768,71.38225730629253,2.167892903830884,1.1212698757505246,Right,Incorrect,0.0,0.0,-45,45,503,-1,-1
"{'cat': 'II', 'resp': 'button'}",19,126,Right,67.29952257765942,37.119777980175314,3.364976128882971,0.5830761090270147,Right,Correct,0.0,0.0,-45,45,562,-1,-1
"{'cat': 'II', 'resp': 'button'}",19,127,Right,48.63999642963073,37.67105509194982,2.4319998214815364,0.5917355496492296,Right,Correct,0.0,0.0,-45,45,969,-1,-1
"{'cat': 'II', 'resp': 'button'}",19,128,Left,45.261785393428006,68.17205190223534,2.2630892696714002,1.0708440871810232,Left,Correct,0.0,0.0,-45,45,891,-1,-1
"{'cat': 'II', 'resp': 'button'}",19,129,Right,74.01298712003091,41.32491840679417,3.700649356001546,0.6491303003849108,Right,Correct,0.0,0.0,-45,45,660,-1,-1
"{'cat': 'II', 'resp': 'button'}",19,130,Right,83.17533905212258,53.39543538901242,4.158766952606129,0.8387335377667493,Right,Correct,0.0,0.0,-45,45,1136,-1,-1
"{'cat': 'II', 'resp': 'button'}",19,131,Left,49.08569200242111,69.53893808247868,2.454284600121056,1.0923150850917527,Left,Correct,0.0,0.0,-45,45,1097,-1,-1
"{'cat': 'II', 'resp': 'button'}",19,132,Right,60.49672385384401,51.27900212545104,3.0248361926922005,0.805488681803662,Right,Correct,0.0,0.0,-45,45,1922,-1,-1
"{'cat': 'II', 'resp': 'button'}",19,133,Right,32.90291865717514,18.5039204637838,1.6451459328587572,0.2906589029581651,Right,Correct,0.0,0.0,-45,45,1041,-1,-1
"{'cat': 'II', 'resp': 'button'}",19,134,Right,38.115158884468514,20.4087048578895,1.9057579442234256,0.3205791862541399,Right,Correct,0.0,0.0,-45,45,2940,-1,-1
"{'cat': 'II', 'resp': 'button'}",19,135,Left,48.22237273111459,74.83269576703717,2.4111186365557296,1.1754692363502197,Left,Correct,0.0,0.0,-45,45,898,-1,-1
"{'cat': 'II', 'resp': 'button'}",19,136,Right,51.00649980424859,32.066158333656425,2.5503249902124296,0.5036940372493107,Right,Correct,0.0,0.0,-45,45,1024,-1,-1
"{'cat': 'II', 'resp': 'button'}",19,137,Left,25.107392093978426,39.9718178018924,1.2553696046989213,0.6278758457852744,Right,Incorrect,0.0,0.0,-45,45,1230,-1,-1
"{'cat': 'II', 'resp': 'button'}",19,138,Left,64.58202734239318,75.11236774908956,3.229101367119659,1.1798623135713733,Right,Incorrect,0.0,0.0,-45,45,2014,-1,-1
"{'cat': 'II', 'resp': 'button'}",19,139,Left,41.34250829684974,61.51882531496821,2.0671254148424874,0.9663354483348895,Left,Correct,0.0,0.0,-45,45,1259,-1,-1
"{'cat': 'II', 'resp': 'button'}",19,140,Left,22.75031861045808,45.74168523699297,1.1375159305229041,0.718508711516769,Right,Incorrect,0.0,0.0,-45,45,1669,-1,-1
"{'cat': 'II', 'resp': 'button'}",19,141,Left,22.714076202756683,44.243454682739824,1.1357038101378343,0.6949745610036417,Left,Correct,0.0,0.0,-45,45,598,-1,-1
"{'cat': 'II', 'resp': 'button'}",19,142,Right,42.75648474827235,25.663599427935047,2.1378242374136174,0.4031228771373598,Right,Correct,0.0,0.0,-45,45,624,-1,-1
"{'cat': 'II', 'resp': 'button'}",19,143,Left,44.18126058200653,55.196733259929296,2.2090630291003266,0.8670282585577465,Left,Correct,0.0,0.0,-45,45,666,-1,-1
"{'cat': 'II', 'resp': 'button'}",19,144,Left,35.942715086939884,59.86093643291245,1.7971357543469941,0.9402933906732168,Left,Correct,0.0,0.0,-45,45,1200,-1,-1
"{'cat': 'II', 'resp': 'button'}",19,145,Right,53.78601217662905,30.30088016178305,2.6893006088314526,0.4759651125678116,Right,Correct,0.0,0.0,-45,45,955,-1,-1
"{'cat': 'II', 'resp': 'button'}",19,146,Left,60.9757065794675,78.61777392373006,3.048785328973375,1.2349251050018677,Left,Correct,0.0,0.0,-45,45,549,-1,-1
"{'cat': 'II', 'resp': 'button'}",19,147,Left,63.72437577562346,77.11488640440884,3.186218788781173,1.211317803052511,Left,Correct,0.0,0.0,-45,45,552,-1,-1
"{'cat': 'II', 'resp': 'button'}",19,148,Left,41.37419072342432,57.95515040173865,2.068709536171216,0.9103573736989685,Left,Correct,0.0,0.0,-45,45,756,-1,-1
"{'cat': 'II', 'resp': 'button'}",19,149,Right,46.688881949948474,18.133707472599422,2.3344440974974234,0.2848436108913234,Right,Correct,0.0,0.0,-45,45,559,-1,-1
"{'cat': 'II', 'resp': 'button'}",19,150,Left,62.670624993056535,79.02530724667864,3.133531249652827,1.241326623469209,Left,Correct,0.0,0.0,-45,45,585,-1,-1
"{'cat': 'II', 'resp': 'button'}",19,151,Right,46.979217571808846,33.264086843016976,2.348960878590442,0.5225110542719751,Right,Correct,0.0,0.0,-45,45,632,-1,-1
"{'cat': 'II', 'resp': 'button'}",19,152,Right,62.522387460696166,39.222869248325885,3.1261193730348085,0.6161113894162681,Right,Correct,0.0,0.0,-45,45,623,-1,-1
"{'cat': 'II', 'resp': 'button'}",19,153,Right,56.67253563600406,37.087847230095235,2.8336267818002034,0.5825745419776387,Right,Correct,0.0,0.0,-45,45,575,-1,-1
"{'cat': 'II', 'resp': 'button'}",19,154,Left,42.44146926016984,69.94586884619002,2.122073463008492,1.0987071385807288,Left,Correct,0.0,0.0,-45,45,628,-1,-1
"{'cat': 'II', 'resp': 'button'}",19,155,Left,58.11297010364017,73.0487425917643,2.9056485051820085,1.1474469654012927,Left,Correct,0.0,0.0,-45,45,1257,-1,-1
"{'cat': 'II', 'resp': 'button'}",19,156,Left,36.594849289732416,57.40420167068771,1.829742464486621,0.9017030912690972,Right,Incorrect,0.0,0.0,-45,45,805,-1,-1
"{'cat': 'II', 'resp': 'button'}",19,157,Right,79.3525304260311,51.479692569456915,3.9676265213015545,0.8086411199263345,Right,Correct,0.0,0.0,-45,45,861,-1,-1
"{'cat': 'II', 'resp': 'button'}",19,158,Left,20.534270515566735,46.39506001943621,1.0267135257783366,0.7287718985995915,Left,Correct,0.0,0.0,-45,45,689,-1,-1
"{'cat': 'II', 'resp': 'button'}",19,159,Right,41.43912285486956,24.764086582524676,2.071956142743478,0.38899336240260546,Right,Correct,0.0,0.0,-45,45,823,-1,-1
"{'cat': 'II', 'resp': 'button'}",19,160,Left,16.53056550820588,39.617843254760885,0.8265282754102939,0.6223156266011436,Left,Correct,0.0,0.0,-45,45,529,-1,-1
"{'cat': 'II', 'resp': 'button'}",19,161,Right,66.44439929586892,39.50691189606069,3.322219964793446,0.6205731208934174,Right,Correct,0.0,0.0,-45,45,723,-1,-1
"{'cat': 'II', 'resp': 'button'}",19,162,Left,44.637822378058786,55.389190616448495,2.231891118902939,0.8700513716445966,Left,Correct,0.0,0.0,-45,45,1195,-1,-1
"{'cat': 'II', 'resp': 'button'}",19,163,Left,47.84521500058574,68.22990297488047,2.392260750029287,1.0717528097051443,Left,Correct,0.0,0.0,-45,45,1132,-1,-1
"{'cat': 'II', 'resp': 'button'}",19,164,Right,57.97172996265685,48.03627836685174,2.898586498132843,0.7545520961154787,Right,Correct,0.0,0.0,-45,45,1188,-1,-1
"{'cat': 'II', 'resp': 'button'}",19,165,Right,59.713026244549155,51.43945054682086,2.985651312227458,0.8080089997129393,Right,Correct,0.0,0.0,-45,45,539,-1,-1
"{'cat': 'II', 'resp': 'button'}",19,166,Right,67.90309307679381,42.83054641348979,3.3951546538396906,0.6727806498092809,Right,Correct,0.0,0.0,-45,45,587,-1,-1
"{'cat': 'II', 'resp': 'button'}",19,167,Left,33.757796847320016,44.404108060566045,1.6878898423660007,0.6974980983614081,Left,Correct,0.0,0.0,-45,45,496,-1,-1
"{'cat': 'II', 'resp': 'button'}",19,168,Right,88.4122564742287,62.45063172957096,4.420612823711434,0.9809722292683087,Right,Correct,0.0,0.0,-45,45,698,-1,-1
"{'cat': 'II', 'resp': 'button'}",19,169,Right,65.52159184641073,40.011139582252135,3.2760795923205364,0.6284935108667955,Right,Correct,0.0,0.0,-45,45,1165,-1,-1
"{'cat': 'II', 'resp': 'button'}",19,170,Left,25.96942963935121,40.28372729710313,1.2984714819675605,0.632775308678969,Left,Correct,0.0,0.0,-45,45,785,-1,-1
"{'cat': 'II', 'resp': 'button'}",19,171,Left,18.425431678386857,36.42772650535035,0.9212715839193428,0.5722053898809343,Left,Correct,0.0,0.0,-45,45,356,-1,-1
"{'cat': 'II', 'resp': 'button'}",19,172,Left,27.532575682836104,40.524089477081745,1.376628784141805,0.6365509089730773,Left,Correct,0.0,0.0,-45,45,592,-1,-1
"{'cat': 'II', 'resp': 'button'}",19,173,Left,60.86114015624959,81.9798639084546,3.0430570078124792,1.2877366909854602,Left,Correct,0.0,0.0,-45,45,953,-1,-1
"{'cat': 'II', 'resp': 'button'}",19,174,Left,50.5278539919633,78.14874975110585,2.5263926995981647,1.2275576905265067,Left,Correct,0.0,0.0,-45,45,749,-1,-1
"{'cat': 'II', 'resp': 'button'}",19,175,Right,50.08495637981204,37.014343058571306,2.504247818990602,0.5814199411512998,Right,Correct,0.0,0.0,-45,45,1343,-1,-1
"{'cat': 'II', 'resp': 'button'}",19,176,Right,47.91245917567686,19.9880511197758,2.395622958783843,0.3139715727873244,Right,Correct,0.0,0.0,-45,45,1060,-1,-1
"{'cat': 'II', 'resp': 'button'}",19,177,Right,43.42701338502238,15.412618832274507,2.171350669251119,0.24210085048026644,Right,Correct,0.0,0.0,-45,45,670,-1,-1
"{'cat': 'II', 'resp': 'button'}",19,178,Left,19.947806513585896,48.44459937501922,0.9973903256792949,0.7609659875133054,Left,Correct,0.0,0.0,-45,45,558,-1,-1
"{'cat': 'II', 'resp': 'button'}",19,179,Left,28.748959702374833,46.98886916605935,1.4374479851187416,0.73809943086292,Left,Correct,0.0,0.0,-45,45,592,-1,-1
"{'cat': 'II', 'resp': 'button'}",19,180,Left,48.8044822651213,73.20324669184512,2.440224113256065,1.1498739101301099,Left,Correct,0.0,0.0,-45,45,817,-1,-1
"{'cat': 'II', 'resp': 'button'}",19,181,Right,40.359255400445605,30.848280731886575,2.01796277002228,0.48456366061585215,Right,Correct,0.0,0.0,-45,45,1218,-1,-1
"{'cat': 'II', 'resp': 'button'}",19,182,Left,23.933452191917016,36.913399683537776,1.1966726095958509,0.5798343263241305,Left,Correct,0.0,0.0,-45,45,705,-1,-1
"{'cat': 'II', 'resp': 'button'}",19,183,Left,51.39797416327946,78.80489249866486,2.569898708163973,1.2378643567036947,Left,Correct,0.0,0.0,-45,45,1175,-1,-1
"{'cat': 'II', 'resp': 'button'}",19,184,Left,31.444659851718697,62.04897576966216,1.572232992585935,0.9746630322037088,Left,Correct,0.0,0.0,-45,45,996,-1,-1
"{'cat': 'II', 'resp': 'button'}",19,185,Right,31.31125930344357,12.270889690411693,1.5655629651721785,0.19275068452204053,Right,Correct,0.0,0.0,-45,45,1216,-1,-1
"{'cat': 'II', 'resp': 'button'}",19,186,Right,38.83162318341268,26.838351782729106,1.9415811591706342,0.42157584397540143,Left,Incorrect,0.0,0.0,-45,45,1428,-1,-1
"{'cat': 'II', 'resp': 'button'}",19,187,Right,77.67491207114881,55.43947061131223,3.8837456035574407,0.8708411679570287,Right,Correct,0.0,0.0,-45,45,766,-1,-1
"{'cat': 'II', 'resp': 'button'}",19,188,Right,52.808546236274395,38.07008321194989,2.64042731181372,0.5980034687010695,Right,Correct,0.0,0.0,-45,45,1456,-1,-1
"{'cat': 'II', 'resp': 'button'}",19,189,Right,45.53533826300565,37.572317502008914,2.2767669131502823,0.5901845832132722,Left,Incorrect,0.0,0.0,-45,45,728,-1,-1
"{'cat': 'II', 'resp': 'button'}",19,190,Left,25.067816380497852,52.93060334118251,1.2533908190248926,0.8314319730336717,Right,Incorrect,0.0,0.0,-45,45,552,-1,-1
"{'cat': 'II', 'resp': 'button'}",19,191,Right,67.46855708403093,54.341966254377226,3.3734278542015463,0.8536016098318797,Right,Correct,0.0,0.0,-45,45,658,-1,-1
"{'cat': 'II', 'resp': 'button'}",19,192,Left,42.35582656457804,61.1830435744699,2.117791328228902,0.9610610010890941,Left,Correct,0.0,0.0,-45,45,2835,-1,-1
"{'cat': 'II', 'resp': 'button'}",19,193,Left,58.73562079227717,80.90549954787144,2.9367810396138583,1.2708606150730264,Left,Correct,0.0,0.0,-45,45,745,-1,-1
"{'cat': 'II', 'resp': 'button'}",19,194,Left,15.878102159052837,31.682516939686586,0.7939051079526419,0.4976678123247678,Left,Correct,0.0,0.0,-45,45,1076,-1,-1
"{'cat': 'II', 'resp': 'button'}",19,195,Right,55.89988105471575,37.88836665106271,2.7949940527357877,0.5951490716374758,Right,Correct,0.0,0.0,-45,45,864,-1,-1
"{'cat': 'II', 'resp': 'button'}",19,196,Left,48.34756792999034,66.65439679665707,2.417378396499517,1.0470048165291845,Left,Correct,0.0,0.0,-45,45,466,-1,-1
"{'cat': 'II', 'resp': 'button'}",19,197,Left,62.867988625953295,87.04977116858375,3.1433994312976647,1.3673746079994764,Left,Correct,0.0,0.0,-45,45,788,-1,-1
"{'cat': 'II', 'resp': 'button'}",19,198,Right,43.13141431713685,16.282915070137875,2.1565707158568426,0.2557714318168584,Right,Correct,0.0,0.0,-45,45,1040,-1,-1
"{'cat': 'II', 'resp': 'button'}",19,199,Left,48.231256085213175,61.554308186509004,2.411562804260659,0.9668928119776937,Right,Incorrect,0.0,0.0,-45,45,992,-1,-1
"{'cat': 'II', 'resp': 'button'}",19,200,Left,30.73528907238181,62.841820463768656,1.5367644536190905,0.9871170075359217,Left,Correct,0.0,0.0,-45,45,653,-1,-1
"{'cat': 'II', 'resp': 'button'}",19,201,Left,65.3256971715991,85.44017795416573,3.2662848585799553,1.3420911769110586,Right,Incorrect,0.0,0.0,-45,45,572,-1,-1
"{'cat': 'II', 'resp': 'button'}",19,202,Right,34.33522338620281,13.513594186356297,1.7167611693101406,0.2122710410972534,Right,Correct,0.0,0.0,-45,45,654,-1,-1
"{'cat': 'II', 'resp': 'button'}",19,203,Right,38.97718852589035,23.27910653005403,1.9488594262945174,0.3656673502847596,Right,Correct,0.0,0.0,-45,45,705,-1,-1
"{'cat': 'II', 'resp': 'button'}",19,204,Left,30.941596848251905,46.736428706240595,1.547079842412595,0.7341341053927427,Left,Correct,0.0,0.0,-45,45,863,-1,-1
"{'cat': 'II', 'resp': 'button'}",19,205,Left,34.13394569051945,51.520808695436244,1.7066972845259725,0.8092869705229382,Left,Correct,0.0,0.0,-45,45,709,-1,-1
"{'cat': 'II', 'resp': 'button'}",19,206,Right,54.431278596123924,39.47370758184904,2.721563929806196,0.6200515487454433,Right,Correct,0.0,0.0,-45,45,1354,-1,-1
"{'cat': 'II', 'resp': 'button'}",19,207,Right,60.92839788945842,38.15624714167252,3.046419894472921,0.5993569285441748,Right,Correct,0.0,0.0,-45,45,928,-1,-1
"{'cat': 'II', 'resp': 'button'}",19,208,Right,76.33504183989278,46.777756776946404,3.8167520919946387,0.7347832852093249,Right,Correct,0.0,0.0,-45,45,1623,-1,-1
"{'cat': 'II', 'resp': 'button'}",19,209,Left,22.833530911226497,50.53588451571665,1.1416765455613247,0.793815817686188,Left,Correct,0.0,0.0,-45,45,575,-1,-1
"{'cat': 'II', 'resp': 'button'}",19,210,Left,22.59852345746586,34.1253799778568,1.129926172873293,0.5360402151969758,Left,Correct,0.0,0.0,-45,45,672,-1,-1
"{'cat': 'II', 'resp': 'button'}",19,211,Right,72.81030841713763,53.6169631556823,3.640515420856882,0.8422132877884307,Right,Correct,0.0,0.0,-45,45,659,-1,-1
"{'cat': 'II', 'resp': 'button'}",19,212,Right,88.25096419786544,68.57747627056327,4.412548209893272,1.0772124782666497,Left,Incorrect,0.0,0.0,-45,45,764,-1,-1
"{'cat': 'II', 'resp': 'button'}",19,213,Left,14.62531325957853,33.33461536297969,0.7312656629789265,0.5236189136728923,Left,Correct,0.0,0.0,-45,45,599,-1,-1
"{'cat': 'II', 'resp': 'button'}",19,214,Right,47.78402296910508,36.65239441775991,2.389201148455254,0.5757344651965504,Right,Correct,0.0,0.0,-45,45,1629,-1,-1
"{'cat': 'II', 'resp': 'button'}",19,215,Right,55.362046088065355,27.448163718528654,2.7681023044032678,0.4311547474632975,Right,Correct,0.0,0.0,-45,45,683,-1,-1
"{'cat': 'II', 'resp': 'button'}",19,216,Right,50.707299984416046,38.11580344205658,2.535364999220802,0.5987216403961876,Right,Correct,0.0,0.0,-45,45,1241,-1,-1
"{'cat': 'II', 'resp': 'button'}",19,217,Left,52.822764842473404,64.85592018460974,2.64113824212367,1.0187544119688796,Left,Correct,0.0,0.0,-45,45,729,-1,-1
"{'cat': 'II', 'resp': 'button'}",19,218,Right,46.511521014922955,35.695050520121434,2.3255760507461476,0.5606965424176501,Right,Correct,0.0,0.0,-45,45,1396,-1,-1
"{'cat': 'II', 'resp': 'button'}",19,219,Left,67.8625675216033,81.74441553248784,3.3931283760801647,1.2840382765442757,Left,Correct,0.0,0.0,-45,45,758,-1,-1
"{'cat': 'II', 'resp': 'button'}",19,220,Right,85.36667672491615,61.51643349756593,4.268333836245807,0.966297877754991,Left,Incorrect,0.0,0.0,-45,45,1123,-1,-1
"{'cat': 'II', 'resp': 'button'}",19,221,Left,24.96517975149146,38.30754656477349,1.2482589875745729,0.6017335343247066,Left,Correct,0.0,0.0,-45,45,705,-1,-1
"{'cat': 'II', 'resp': 'button'}",19,222,Left,47.74213666406796,67.72642771419818,2.387106833203398,1.063844238804026,Left,Correct,0.0,0.0,-45,45,1158,-1,-1
"{'cat': 'II', 'resp': 'button'}",19,223,Right,61.11443886470217,41.95099160432997,3.055721943235109,0.6589646351748507,Right,Correct,0.0,0.0,-45,45,689,-1,-1
"{'cat': 'II', 'resp': 'button'}",19,224,Right,67.45055328311977,39.10400110270543,3.372527664155989,0.6142442129511327,Right,Correct,0.0,0.0,-45,45,772,-1,-1
"{'cat': 'II', 'resp': 'button'}",19,225,Left,39.913008141216224,57.561154405207155,1.995650407060811,0.9041684990577328,Left,Correct,0.0,0.0,-45,45,704,-1,-1
"{'cat': 'II', 'resp': 'button'}",19,226,Left,56.10418482633905,76.35797894472472,2.8052092413169527,1.1994283284785563,Left,Correct,0.0,0.0,-45,45,465,-1,-1
"{'cat': 'II', 'resp': 'button'}",19,227,Left,38.198188328954856,63.698795530265315,1.909909416447743,1.0005783404019994,Left,Correct,0.0,0.0,-45,45,741,-1,-1
"{'cat': 'II', 'resp': 'button'}",19,228,Left,57.81185566159385,77.04047092576413,2.890592783079693,1.2101488874473931,Left,Correct,0.0,0.0,-45,45,861,-1,-1
"{'cat': 'II', 'resp': 'button'}",19,229,Right,38.74971425624371,13.149974796627014,1.9374857128121858,0.20655932107987177,Right,Correct,0.0,0.0,-45,45,628,-1,-1
"{'cat': 'II', 'resp': 'button'}",19,230,Left,44.708542169077276,55.596409570553824,2.2354271084538637,0.8733063593641058,Left,Correct,0.0,0.0,-45,45,784,-1,-1
"{'cat': 'II', 'resp': 'button'}",19,231,Right,36.60348330310576,23.86463830101654,1.8301741651552879,0.3748648618352558,Right,Correct,0.0,0.0,-45,45,815,-1,-1
"{'cat': 'II', 'resp': 'button'}",19,232,Left,36.02773306400462,44.65813366066706,1.8013866532002312,0.7014883231569135,Left,Correct,0.0,0.0,-45,45,599,-1,-1
"{'cat': 'II', 'resp': 'button'}",19,233,Right,41.846267697954275,29.898081992235422,2.0923133848977136,0.46963797371616045,Right,Correct,0.0,0.0,-45,45,743,-1,-1
"{'cat': 'II', 'resp': 'button'}",19,234,Right,30.503693018301927,11.11953020022619,1.5251846509150964,0.1746651719420022,Right,Correct,0.0,0.0,-45,45,1291,-1,-1
"{'cat': 'II', 'resp': 'button'}",19,235,Right,59.865415473052366,48.45911516972604,2.9932707736526187,0.7611940010833651,Right,Correct,0.0,0.0,-45,45,1053,-1,-1
"{'cat': 'II', 'resp': 'button'}",19,236,Right,43.25274791663263,28.115348283322167,2.1626373958316316,0.4416348581000166,Left,Incorrect,0.0,0.0,-45,45,1588,-1,-1
"{'cat': 'II', 'resp': 'button'}",19,237,Left,43.90567492144987,61.23231892557367,2.1952837460724934,0.9618350164942474,Right,Incorrect,0.0,0.0,-45,45,558,-1,-1
"{'cat': 'II', 'resp': 'button'}",19,238,Right,74.3909254498104,48.94641925777897,3.71954627249052,0.7688485557988218,Right,Correct,0.0,0.0,-45,45,505,-1,-1
"{'cat': 'II', 'resp': 'button'}",19,239,Left,20.59354467252292,42.15717308297704,1.0296772336261462,0.6622033262679702,Left,Correct,0.0,0.0,-45,45,726,-1,-1
"{'cat': 'II', 'resp': 'button'}",19,240,Right,69.13963780803434,56.49180716271613,3.4569818904017167,0.8873712318520013,Right,Correct,0.0,0.0,-45,45,690,-1,-1
"{'cat': 'II', 'resp': 'button'}",19,241,Left,13.508034380933825,33.71799152986344,0.6754017190466912,0.5296409724201093,Left,Correct,0.0,0.0,-45,45,868,-1,-1
"{'cat': 'II', 'resp': 'button'}",19,242,Left,60.230593765476314,69.15355913375863,3.011529688273816,1.0862615667210174,Right,Incorrect,0.0,0.0,-45,45,696,-1,-1
"{'cat': 'II', 'resp': 'button'}",19,243,Left,59.42450991593343,78.85298555529039,2.9712254957966713,1.238619800670612,Right,Incorrect,0.0,0.0,-45,45,611,-1,-1
"{'cat': 'II', 'resp': 'button'}",19,244,Left,42.9877079992253,55.92774897771537,2.149385399961265,0.8785110266010234,Left,Correct,0.0,0.0,-45,45,556,-1,-1
"{'cat': 'II', 'resp': 'button'}",19,245,Right,61.17346699049449,40.58631926890613,3.0586733495247245,0.6375284122572269,Right,Correct,0.0,0.0,-45,45,495,-1,-1
"{'cat': 'II', 'resp': 'button'}",19,246,Right,61.39086218123301,41.13595939981203,3.0695431090616507,0.6461621392440874,Right,Correct,0.0,0.0,-45,45,548,-1,-1
"{'cat': 'II', 'resp': 'button'}",19,247,Left,59.267934042970694,87.10289275304035,2.963396702148535,1.368209039896856,Left,Correct,0.0,0.0,-45,45,872,-1,-1
"{'cat': 'II', 'resp': 'button'}",19,248,Right,73.07279725285997,39.999424977243784,3.6536398626429984,0.6283094982816257,Right,Correct,0.0,0.0,-45,45,867,-1,-1
"{'cat': 'II', 'resp': 'button'}",19,249,Left,28.732772016400524,41.58918374378665,1.4366386008200263,0.6532813705913809,Left,Correct,0.0,0.0,-45,45,617,-1,-1
"{'cat': 'II', 'resp': 'button'}",19,250,Left,43.88267229771472,67.61195377546866,2.194133614885736,1.0620460863793253,Right,Incorrect,0.0,0.0,-45,45,1034,-1,-1
"{'cat': 'II', 'resp': 'button'}",19,251,Left,30.00666351698296,47.97663229323427,1.500333175849148,0.753615177782018,Left,Correct,0.0,0.0,-45,45,1683,-1,-1
"{'cat': 'II', 'resp': 'button'}",19,252,Right,40.42721781222737,21.670677408380364,2.0213608906113683,0.34040220472241023,Right,Correct,0.0,0.0,-45,45,620,-1,-1
"{'cat': 'II', 'resp': 'button'}",19,253,Left,35.25854647223706,62.48622114933775,1.762927323611853,0.9815312665667332,Left,Correct,0.0,0.0,-45,45,1069,-1,-1
"{'cat': 'II', 'resp': 'button'}",19,254,Right,59.99286636736438,45.307043537473206,2.9996433183682187,0.7116813756659937,Right,Correct,0.0,0.0,-45,45,480,-1,-1
"{'cat': 'II', 'resp': 'button'}",19,255,Right,35.88206791969871,21.633096871954574,1.7941033959849357,0.3398118910366441,Left,Incorrect,0.0,0.0,-45,45,568,-1,-1
"{'cat': 'II', 'resp': 'button'}",19,256,Left,49.10608867313643,58.873379724598756,2.455304433656822,0.9247808861740086,Left,Correct,0.0,0.0,-45,45,719,-1,-1
"{'cat': 'II', 'resp': 'button'}",19,257,Left,29.44250545667896,58.66185399591923,1.472125272833948,0.9214582477976845,Left,Correct,0.0,0.0,-45,45,731,-1,-1
"{'cat': 'II', 'resp': 'button'}",19,258,Right,71.80985294897587,41.75001866136502,3.5904926474487935,0.6558077595689055,Right,Correct,0.0,0.0,-45,45,872,-1,-1
"{'cat': 'II', 'resp': 'button'}",19,259,Right,49.6792635107207,25.208770299117013,2.483963175536035,0.3959784378886929,Right,Correct,0.0,0.0,-45,45,1396,-1,-1
"{'cat': 'II', 'resp': 'button'}",19,260,Right,78.75470795578448,54.81042588740018,3.937735397789224,0.8609601565399211,Right,Correct,0.0,0.0,-45,45,716,-1,-1
"{'cat': 'II', 'resp': 'button'}",19,261,Right,62.07725038797522,46.28818688720575,3.1038625193987612,0.7270931393641848,Right,Correct,0.0,0.0,-45,45,1437,-1,-1
"{'cat': 'II', 'resp': 'button'}",19,262,Right,69.27021946557086,40.47034340489436,3.463510973278543,0.6357066676453612,Left,Incorrect,0.0,0.0,-45,45,760,-1,-1
"{'cat': 'II', 'resp': 'button'}",19,263,Right,60.21040724665061,29.72260108679946,3.0105203623325303,0.46688152609934597,Right,Correct,0.0,0.0,-45,45,786,-1,-1
"{'cat': 'II', 'resp': 'button'}",19,264,Left,51.258040904734955,76.14181066454688,2.562902045236748,1.1960327650738272,Left,Correct,0.0,0.0,-45,45,590,-1,-1
"{'cat': 'II', 'resp': 'button'}",19,265,Left,30.42721221862028,53.72044964687397,1.521360610931014,0.8438388497907984,Left,Correct,0.0,0.0,-45,45,615,-1,-1
"{'cat': 'II', 'resp': 'button'}",19,266,Right,81.71197391163794,58.945956754282975,4.085598695581897,0.9259209234903852,Right,Correct,0.0,0.0,-45,45,921,-1,-1
"{'cat': 'II', 'resp': 'button'}",19,267,Right,62.08554545075399,47.60185107567605,3.1042772725376993,0.7477281281830963,Right,Correct,0.0,0.0,-45,45,1797,-1,-1
"{'cat': 'II', 'resp': 'button'}",19,268,Left,16.29236892146448,33.22822217888287,0.8146184460732241,0.5219476934451392,Left,Correct,0.0,0.0,-45,45,657,-1,-1
"{'cat': 'II', 'resp': 'button'}",19,269,Right,38.65156951146719,28.64938064951285,1.9325784755733593,0.4500234188920358,Right,Correct,0.0,0.0,-45,45,746,-1,-1
"{'cat': 'II', 'resp': 'button'}",19,270,Right,52.25194888301496,44.675155692267985,2.6125974441507482,0.7017557046040467,Right,Correct,0.0,0.0,-45,45,683,-1,-1
"{'cat': 'II', 'resp': 'button'}",19,271,Left,37.86462822707157,56.5071772223895,1.8932314113535784,0.8876126641847767,Right,Incorrect,0.0,0.0,-45,45,1824,-1,-1
"{'cat': 'II', 'resp': 'button'}",19,272,Left,56.14670448319333,78.16965011839548,2.8073352241596665,1.2278859927281789,Right,Incorrect,0.0,0.0,-45,45,1856,-1,-1
"{'cat': 'II', 'resp': 'button'}",19,273,Right,77.62683406894524,57.00697991883877,3.881341703447262,0.8954635465818238,Right,Correct,0.0,0.0,-45,45,640,-1,-1
"{'cat': 'II', 'resp': 'button'}",19,274,Left,39.51373836562688,61.61644176445764,1.9756869182813437,0.9678688039378172,Left,Correct,0.0,0.0,-45,45,607,-1,-1
"{'cat': 'II', 'resp': 'button'}",19,275,Left,37.371362626090615,50.70329209232127,1.8685681313045308,0.7964454497502698,Left,Correct,0.0,0.0,-45,45,835,-1,-1
"{'cat': 'II', 'resp': 'button'}",19,276,Right,78.1698086728664,51.6971534854698,3.90849043364332,0.8120569880072794,Right,Correct,0.0,0.0,-45,45,550,-1,-1
"{'cat': 'II', 'resp': 'button'}",19,277,Right,85.29387906379081,63.28342175989906,4.264693953189541,0.9940536644746166,Right,Correct,0.0,0.0,-45,45,778,-1,-1
"{'cat': 'II', 'resp': 'button'}",19,278,Left,36.31004062735059,59.61782604992016,1.8155020313675294,0.9364746217071169,Left,Correct,0.0,0.0,-45,45,1354,-1,-1
"{'cat': 'II', 'resp': 'button'}",19,279,Left,46.949302312118185,56.353164560819096,2.3474651156059094,0.8851934389540298,Left,Correct,0.0,0.0,-45,45,1565,-1,-1
"{'cat': 'II', 'resp': 'button'}",19,280,Left,44.74781975270106,60.39986913445431,2.237390987635053,0.9487589257529329,Left,Correct,0.0,0.0,-45,45,842,-1,-1
"{'cat': 'II', 'resp': 'button'}",19,281,Right,76.16500272787229,53.01306997586093,3.8082501363936148,0.8327273559020316,Right,Correct,0.0,0.0,-45,45,460,-1,-1
"{'cat': 'II', 'resp': 'button'}",19,282,Left,55.77958638548238,77.2214558937082,2.788979319274119,1.2129917926759095,Left,Correct,0.0,0.0,-45,45,698,-1,-1
"{'cat': 'II', 'resp': 'button'}",19,283,Left,55.09966696065093,67.71676920041007,2.7549833480325465,1.0636925232242191,Right,Incorrect,0.0,0.0,-45,45,595,-1,-1
"{'cat': 'II', 'resp': 'button'}",19,284,Right,44.31390468224973,21.319096236789814,2.2156952341124865,0.3348795805933634,Right,Correct,0.0,0.0,-45,45,677,-1,-1
"{'cat': 'II', 'resp': 'button'}",19,285,Left,54.299108840401125,71.33706967273217,2.7149554420200563,1.120560070062393,Left,Correct,0.0,0.0,-45,45,624,-1,-1
"{'cat': 'II', 'resp': 'button'}",19,286,Left,55.758662798062716,83.4859112268831,2.7879331399031355,1.311393626943128,Right,Incorrect,0.0,0.0,-45,45,1212,-1,-1
"{'cat': 'II', 'resp': 'button'}",19,287,Left,59.69419327447792,71.51029557880958,2.984709663723896,1.123281096232114,Right,Incorrect,0.0,0.0,-45,45,912,-1,-1
"{'cat': 'II', 'resp': 'button'}",19,288,Right,61.00177427715485,51.64404657196431,3.0500887138577424,0.8112227865606612,Right,Correct,0.0,0.0,-45,45,603,-1,-1
"{'cat': 'II', 'resp': 'button'}",19,289,Right,43.435606420041324,27.59148520893762,2.1717803210020663,0.43340603617014933,Right,Correct,0.0,0.0,-45,45,916,-1,-1
"{'cat': 'II', 'resp': 'button'}",19,290,Left,24.33978270382019,53.466232068920974,1.2169891351910096,0.8398456094142456,Left,Correct,0.0,0.0,-45,45,573,-1,-1
"{'cat': 'II', 'resp': 'button'}",19,291,Left,38.86791065247402,67.04584953201241,1.9433955326237011,1.0531537417172845,Left,Correct,0.0,0.0,-45,45,683,-1,-1
"{'cat': 'II', 'resp': 'button'}",19,292,Left,39.30952037357159,49.2334618179369,1.9654760186785794,0.7733574097901207,Left,Correct,0.0,0.0,-45,45,1469,-1,-1
"{'cat': 'II', 'resp': 'button'}",19,293,Right,46.14036635438603,22.55107262159449,2.3070183177193018,0.3542314203928558,Right,Correct,0.0,0.0,-45,45,666,-1,-1
"{'cat': 'II', 'resp': 'button'}",19,294,Left,26.596572397160053,52.315863986586095,1.3298286198580027,0.8217756698323084,Left,Correct,0.0,0.0,-45,45,1010,-1,-1
"{'cat': 'II', 'resp': 'button'}",19,295,Left,53.578911192504265,67.8172163080018,2.6789455596252134,1.065270342700642,Right,Incorrect,0.0,0.0,-45,45,856,-1,-1
"{'cat': 'II', 'resp': 'button'}",19,296,Left,65.99502154946912,82.428540042172,3.2997510774734558,1.294784479213098,Left,Correct,0.0,0.0,-45,45,1554,-1,-1
"{'cat': 'II', 'resp': 'button'}",19,297,Right,37.62488232428846,11.44791571489371,1.8812441162144227,0.1798234395441261,Right,Correct,0.0,0.0,-45,45,653,-1,-1
"{'cat': 'II', 'resp': 'button'}",19,298,Left,37.73433824775218,56.951290843884756,1.886716912387609,0.8945887846380199,Left,Correct,0.0,0.0,-45,45,1700,-1,-1
"{'cat': 'II', 'resp': 'button'}",19,299,Left,56.86198340026097,84.06746671352093,2.843099170013048,1.320528679165509,Right,Incorrect,0.0,0.0,-45,45,3225,-1,-1
"{'cat': 'II', 'resp': 'button'}",19,300,Left,19.248864150278674,40.4416484256287,0.9624432075139338,0.6352559279650817,Left,Correct,0.0,0.0,-45,45,836,-1,-1
"{'cat': 'II', 'resp': 'button'}",19,301,Left,61.374681750535785,72.56756106259265,3.0687340875267894,1.1398885836158488,Right,Incorrect,0.0,0.0,-45,45,1478,-1,-1
"{'cat': 'II', 'resp': 'button'}",19,302,Right,38.52350331554818,17.719380579825422,1.926175165777409,0.27833537927870594,Right,Correct,0.0,0.0,-45,45,849,-1,-1
"{'cat': 'II', 'resp': 'button'}",19,303,Left,33.994580526904016,54.38917872662419,1.699729026345201,0.854343221611724,Left,Correct,0.0,0.0,-45,45,851,-1,-1
"{'cat': 'II', 'resp': 'button'}",19,304,Right,50.21365842558495,33.722290036440164,2.5106829212792476,0.5297084932035235,Right,Correct,0.0,0.0,-45,45,695,-1,-1
"{'cat': 'II', 'resp': 'button'}",19,305,Right,64.4618091437287,48.67814209383786,3.2230904571864354,0.7646344679620054,Right,Correct,0.0,0.0,-45,45,866,-1,-1
"{'cat': 'II', 'resp': 'button'}",19,306,Right,50.807890093626426,43.72729144371006,2.5403945046813217,0.6868666878046967,Left,Incorrect,0.0,0.0,-45,45,1376,-1,-1
"{'cat': 'II', 'resp': 'button'}",19,307,Right,72.1399092691466,51.723536869272344,3.60699546345733,0.8124714172309341,Left,Incorrect,0.0,0.0,-45,45,715,-1,-1
"{'cat': 'II', 'resp': 'button'}",19,308,Left,39.654272495223424,49.42347445753599,1.9827136247611714,0.7763421213533893,Right,Incorrect,0.0,0.0,-45,45,1308,-1,-1
"{'cat': 'II', 'resp': 'button'}",19,309,Right,48.269924117756474,30.680582446109632,2.413496205887824,0.48192946210276993,Right,Correct,0.0,0.0,-45,45,857,-1,-1
"{'cat': 'II', 'resp': 'button'}",19,310,Left,38.68292889164502,63.53407919500799,1.934146444582251,0.9979909822581462,Left,Correct,0.0,0.0,-45,45,2050,-1,-1
"{'cat': 'II', 'resp': 'button'}",19,311,Right,80.83486587684106,57.79514946907439,4.041743293842053,0.9078440849258406,Right,Correct,0.0,0.0,-45,45,799,-1,-1
"{'cat': 'II', 'resp': 'button'}",19,312,Right,47.165093700504094,29.64456565324347,2.3582546850252046,0.46565574837544993,Left,Incorrect,0.0,0.0,-45,45,1106,-1,-1
"{'cat': 'II', 'resp': 'button'}",19,313,Right,57.5899080246032,26.87259849020687,2.87949540123016,0.4221137899985103,Right,Correct,0.0,0.0,-45,45,4265,-1,-1
"{'cat': 'II', 'resp': 'button'}",19,314,Left,30.35916116911387,50.04707822886449,1.5179580584556935,0.786137666487172,Left,Correct,0.0,0.0,-45,45,1337,-1,-1
"{'cat': 'II', 'resp': 'button'}",19,315,Right,87.91257902314477,64.47790789189995,4.395628951157239,1.012816608760161,Right,Correct,0.0,0.0,-45,45,640,-1,-1
"{'cat': 'II', 'resp': 'button'}",19,316,Left,60.043026587915634,82.29796620924955,3.0021513293957813,1.292733430241797,Left,Correct,0.0,0.0,-45,45,907,-1,-1
"{'cat': 'II', 'resp': 'button'}",19,317,Right,63.44452368252202,49.26953932565789,3.172226184126101,0.7739241139562012,Right,Correct,0.0,0.0,-45,45,823,-1,-1
"{'cat': 'II', 'resp': 'button'}",19,318,Right,31.550143344254927,11.164516817286128,1.5775071672127465,0.17537182007032898,Right,Correct,0.0,0.0,-45,45,1465,-1,-1
"{'cat': 'II', 'resp': 'button'}",19,319,Left,42.51264945639305,73.8571034629455,2.1256324728196523,1.1601446682730545,Left,Correct,0.0,0.0,-45,45,1245,-1,-1
"{'cat': 'II', 'resp': 'button'}",19,320,Right,42.547500643212885,20.589314425545187,2.127375032160644,0.3234161947087156,Right,Correct,0.0,0.0,-45,45,515,-1,-1
"{'cat': 'II', 'resp': 'button'}",19,321,Right,39.60619243884865,27.433330301785396,1.9803096219424328,0.43092174469795635,Right,Correct,0.0,0.0,-45,45,1063,-1,-1
"{'cat': 'II', 'resp': 'button'}",19,322,Right,37.67067969634242,21.099134334691236,1.8835339848171209,0.33142442711485076,Right,Correct,0.0,0.0,-45,45,2157,-1,-1
"{'cat': 'II', 'resp': 'button'}",19,323,Right,75.0212353084111,49.123647152022066,3.7510617654205545,0.7716324450516484,Right,Correct,0.0,0.0,-45,45,841,-1,-1
"{'cat': 'II', 'resp': 'button'}",19,324,Right,81.12097033573474,53.03752610124618,4.056048516786737,0.8331115118212595,Right,Correct,0.0,0.0,-45,45,591,-1,-1
"{'cat': 'II', 'resp': 'button'}",19,325,Right,67.58452208075222,57.65334207270799,3.379226104037611,0.9056165795525939,Right,Correct,0.0,0.0,-45,45,1528,-1,-1
"{'cat': 'II', 'resp': 'button'}",19,326,Right,51.11561776310457,38.24531199565688,2.5557808881552284,0.6007559559990261,Left,Incorrect,0.0,0.0,-45,45,1187,-1,-1
"{'cat': 'II', 'resp': 'button'}",19,327,Right,41.76021291899256,14.934200331673381,2.0880106459496277,0.23458587024611674,Right,Correct,0.0,0.0,-45,45,862,-1,-1
"{'cat': 'II', 'resp': 'button'}",19,328,Left,38.106593247751945,49.18846198322372,1.9053296623875975,0.7726505540393822,Right,Incorrect,0.0,0.0,-45,45,1013,-1,-1
"{'cat': 'II', 'resp': 'button'}",19,329,Left,30.543267984859323,45.31503047791807,1.5271633992429663,0.711806834233125,Left,Correct,0.0,0.0,-45,45,1266,-1,-1
"{'cat': 'II', 'resp': 'button'}",19,330,Left,43.242359334013955,53.260962358849284,2.1621179667006976,0.8366212403484171,Left,Correct,0.0,0.0,-45,45,2998,-1,-1
"{'cat': 'II', 'resp': 'button'}",19,331,Right,84.50254551906622,68.09120785844124,4.2251272759533105,1.069574191910673,Right,Correct,0.0,0.0,-45,45,712,-1,-1
"{'cat': 'II', 'resp': 'button'}",19,332,Left,66.08426153900947,88.20722875458733,3.304213076950474,1.3855559092446297,Left,Correct,0.0,0.0,-45,45,1492,-1,-1
"{'cat': 'II', 'resp': 'button'}",19,333,Right,76.21772040241042,56.97173245671142,3.810886020120521,0.8949098807414388,Right,Correct,0.0,0.0,-45,45,953,-1,-1
"{'cat': 'II', 'resp': 'button'}",19,334,Right,78.35323499116637,66.38325228274931,3.9176617495583184,1.0427456884644155,Right,Correct,0.0,0.0,-45,45,2455,-1,-1
"{'cat': 'II', 'resp': 'button'}",19,335,Left,44.57455271417279,63.44851936770612,2.2287276357086396,0.9966470116336762,Left,Correct,0.0,0.0,-45,45,775,-1,-1
"{'cat': 'II', 'resp': 'button'}",19,336,Right,46.39079973150595,38.817942540502735,2.3195399865752977,0.6097508155635706,Right,Correct,0.0,0.0,-45,45,1107,-1,-1
"{'cat': 'II', 'resp': 'button'}",19,337,Left,29.302550511243105,53.070041582123594,1.4651275255621554,0.8336222638005217,Left,Correct,0.0,0.0,-45,45,720,-1,-1
"{'cat': 'II', 'resp': 'button'}",19,338,Left,58.087522546576125,72.2181372244326,2.9043761273288062,1.134399846801085,Right,Incorrect,0.0,0.0,-45,45,1693,-1,-1
"{'cat': 'II', 'resp': 'button'}",19,339,Left,42.33816269853254,74.18593815757836,2.1169081349266268,1.1653099915775746,Left,Correct,0.0,0.0,-45,45,1468,-1,-1
"{'cat': 'II', 'resp': 'button'}",19,340,Right,43.56818584569219,16.943101989951153,2.1784092922846097,0.2661416237032658,Right,Correct,0.0,0.0,-45,45,624,-1,-1
"{'cat': 'II', 'resp': 'button'}",19,341,Right,61.03156686948751,40.1510634599106,3.0515783434743757,0.6306914299973637,Right,Correct,0.0,0.0,-45,45,896,-1,-1
"{'cat': 'II', 'resp': 'button'}",19,342,Right,78.50174542477828,51.48101936584788,3.925087271238914,0.8086619611953078,Right,Correct,0.0,0.0,-45,45,739,-1,-1
"{'cat': 'II', 'resp': 'button'}",19,343,Right,76.39654651811131,55.94425621325276,3.8198273259055657,0.8787703216505001,Right,Correct,0.0,0.0,-45,45,1459,-1,-1
"{'cat': 'II', 'resp': 'button'}",19,344,Left,66.63212408186689,86.61033096147673,3.3316062040933447,1.3604718973677796,Left,Correct,0.0,0.0,-45,45,994,-1,-1
"{'cat': 'II', 'resp': 'button'}",19,345,Right,40.96551268390816,31.725216875342575,2.048275634195408,0.4983385413455958,Right,Correct,0.0,0.0,-45,45,1259,-1,-1
"{'cat': 'II', 'resp': 'button'}",19,346,Left,26.212915887756925,44.41956740329512,1.3106457943878462,0.697740933149143,Left,Correct,0.0,0.0,-45,45,1346,-1,-1
"{'cat': 'II', 'resp': 'button'}",19,347,Right,84.13768438706884,64.5530230524347,4.206884219353442,1.013996514942707,Right,Correct,0.0,0.0,-45,45,579,-1,-1
"{'cat': 'II', 'resp': 'button'}",19,348,Left,22.15926452576084,38.686357710305145,1.1079632262880421,0.6076838858842074,Left,Correct,0.0,0.0,-45,45,565,-1,-1
"{'cat': 'II', 'resp': 'button'}",19,349,Left,64.77735774978608,77.42685354796676,3.2388678874893038,1.2162181714843259,Right,Incorrect,0.0,0.0,-45,45,547,-1,-1
"{'cat': 'II', 'resp': 'button'}",19,350,Left,69.83570843025741,85.97185584022125,3.4917854215128705,1.3504427536155992,Left,Correct,0.0,0.0,-45,45,1102,-1,-1
"{'cat': 'II', 'resp': 'button'}",19,351,Left,29.211291146248236,49.03315320144805,1.460564557312412,0.7702109694000602,Left,Correct,0.0,0.0,-45,45,960,-1,-1
"{'cat': 'II', 'resp': 'button'}",19,352,Right,89.18208994393274,68.4782482949999,4.459104497196637,1.0756538088713472,Right,Correct,0.0,0.0,-45,45,525,-1,-1
"{'cat': 'II', 'resp': 'button'}",19,353,Right,45.883000418024736,33.9566178626958,2.2941500209012364,0.5333893060910053,Right,Correct,0.0,0.0,-45,45,1447,-1,-1
"{'cat': 'II', 'resp': 'button'}",19,354,Left,15.911368772141955,43.31577659431361,0.7955684386070978,0.6804026276661618,Left,Correct,0.0,0.0,-45,45,663,-1,-1
"{'cat': 'II', 'resp': 'button'}",19,355,Right,68.48788099885863,46.411187776967274,3.424394049942931,0.7290252328224838,Right,Correct,0.0,0.0,-45,45,3153,-1,-1
"{'cat': 'II', 'resp': 'button'}",19,356,Right,54.77886940506063,41.3363595356747,2.7389434702530315,0.6493100172171101,Right,Correct,0.0,0.0,-45,45,1545,-1,-1
"{'cat': 'II', 'resp': 'button'}",19,357,Left,19.288029127702618,33.926904034043986,0.9644014563851309,0.5329225623619925,Left,Correct,0.0,0.0,-45,45,684,-1,-1
"{'cat': 'II', 'resp': 'button'}",19,358,Left,55.13916899505795,67.17355295359366,2.756958449752897,1.0551597023726738,Right,Incorrect,0.0,0.0,-45,45,2983,-1,-1
"{'cat': 'II', 'resp': 'button'}",19,359,Right,36.227292695432894,17.83947007231129,1.8113646347716446,0.2802217406155406,Right,Correct,0.0,0.0,-45,45,961,-1,-1
"{'cat': 'II', 'resp': 'button'}",19,360,Left,29.028029835004908,38.9163521990386,1.4514014917502454,0.6112966308650633,Right,Incorrect,0.0,0.0,-45,45,547,-1,-1
"{'cat': 'II', 'resp': 'button'}",19,361,Right,54.75561203727981,23.26746814512244,2.7377806018639905,0.36548453496175587,Right,Correct,0.0,0.0,-45,45,619,-1,-1
"{'cat': 'II', 'resp': 'button'}",19,362,Right,61.62274550479844,49.173018863380854,3.0811372752399215,0.7724079740801479,Left,Incorrect,0.0,0.0,-45,45,836,-1,-1
"{'cat': 'II', 'resp': 'button'}",19,363,Right,36.18953047285276,21.675753011291768,1.809476523642638,0.3404819321065053,Left,Incorrect,0.0,0.0,-45,45,759,-1,-1
"{'cat': 'II', 'resp': 'button'}",19,364,Left,48.46930197078094,68.67509882539395,2.423465098539047,1.0787459297720532,Left,Correct,0.0,0.0,-45,45,767,-1,-1
"{'cat': 'II', 'resp': 'button'}",19,365,Left,49.368475588579855,60.20658261161432,2.468423779428993,0.9457227881519726,Right,Incorrect,0.0,0.0,-45,45,2156,-1,-1
"{'cat': 'II', 'resp': 'button'}",19,366,Right,81.07700948537668,62.98294043015714,4.053850474268834,0.9893337147843263,Right,Correct,0.0,0.0,-45,45,946,-1,-1
"{'cat': 'II', 'resp': 'button'}",19,367,Left,16.626474574916443,31.589994507847294,0.8313237287458222,0.49621447336397484,Left,Correct,0.0,0.0,-45,45,613,-1,-1
"{'cat': 'II', 'resp': 'button'}",19,368,Right,35.80782375132438,10.924608177119698,1.7903911875662188,0.17160334396293112,Right,Correct,0.0,0.0,-45,45,899,-1,-1
"{'cat': 'II', 'resp': 'button'}",19,369,Right,52.569785102486776,41.3602342460675,2.6284892551243386,0.649685040290993,Right,Correct,0.0,0.0,-45,45,978,-1,-1
"{'cat': 'II', 'resp': 'button'}",19,370,Left,59.37212119922158,74.44031357532023,2.968606059961079,1.1693057112957328,Left,Correct,0.0,0.0,-45,45,816,-1,-1
"{'cat': 'II', 'resp': 'button'}",19,371,Right,81.62799633288616,67.27025303627711,4.081399816644308,1.0566786637194732,Right,Correct,0.0,0.0,-45,45,2295,-1,-1
"{'cat': 'II', 'resp': 'button'}",19,372,Left,31.17225144104391,56.523408549220406,1.5586125720521955,0.8878676252704265,Left,Correct,0.0,0.0,-45,45,1284,-1,-1
"{'cat': 'II', 'resp': 'button'}",19,373,Right,48.89502924666102,31.922482888228394,2.4447514623330506,0.501437188630021,Right,Correct,0.0,0.0,-45,45,4505,-1,-1
"{'cat': 'II', 'resp': 'button'}",19,374,Left,53.995067085025845,72.81693681436361,2.699753354251292,1.1438057687645844,Left,Correct,0.0,0.0,-45,45,1115,-1,-1
"{'cat': 'II', 'resp': 'button'}",19,375,Left,40.79095169533308,69.05357204450641,2.039547584766654,1.0846909731957743,Left,Correct,0.0,0.0,-45,45,811,-1,-1
"{'cat': 'II', 'resp': 'button'}",19,376,Left,25.07074063685369,50.890529555150366,1.2535370318426844,0.799386568938773,Left,Correct,0.0,0.0,-45,45,700,-1,-1
"{'cat': 'II', 'resp': 'button'}",19,377,Left,64.74428410220322,76.07449202529725,3.237214205110161,1.1949753263612457,Right,Incorrect,0.0,0.0,-45,45,536,-1,-1
"{'cat': 'II', 'resp': 'button'}",19,378,Left,11.120110436449899,35.236331565405116,0.556005521822495,0.5534910019266542,Left,Correct,0.0,0.0,-45,45,1242,-1,-1
"{'cat': 'II', 'resp': 'button'}",19,379,Right,39.239083048824604,24.72099585741948,1.96195415244123,0.3883164948754637,Right,Correct,0.0,0.0,-45,45,1044,-1,-1
"{'cat': 'II', 'resp': 'button'}",19,380,Right,57.99705079001784,25.35797859401741,2.899852539500892,0.3983221963042616,Right,Correct,0.0,0.0,-45,45,1747,-1,-1
"{'cat': 'II', 'resp': 'button'}",19,381,Left,24.350433759707713,44.791798359251565,1.2175216879853856,0.7035879233325003,Left,Correct,0.0,0.0,-45,45,2067,-1,-1
"{'cat': 'II', 'resp': 'button'}",19,382,Left,11.604666939362517,33.71145135538893,0.5802333469681258,0.5295382395996976,Left,Correct,0.0,0.0,-45,45,625,-1,-1
"{'cat': 'II', 'resp': 'button'}",19,383,Left,45.90332220121057,65.57633715597876,2.2951661100605287,1.0300706952927514,Left,Correct,0.0,0.0,-45,45,1041,-1,-1
"{'cat': 'II', 'resp': 'button'}",19,384,Left,16.93331652342937,37.80278812869708,0.8466658261714685,0.5938048073516309,Left,Correct,0.0,0.0,-45,45,627,-1,-1
"{'cat': 'II', 'resp': 'button'}",19,385,Left,21.57125798701816,43.13788650886552,1.078562899350908,0.6776083367382109,Left,Correct,0.0,0.0,-45,45,574,-1,-1
"{'cat': 'II', 'resp': 'button'}",19,386,Left,28.13935559532899,58.58771299065312,1.4069677797664495,0.9202936436103156,Left,Correct,0.0,0.0,-45,45,712,-1,-1
"{'cat': 'II', 'resp': 'button'}",19,387,Right,64.27367028497972,51.10881169992088,3.213683514248986,0.8028153368508775,Right,Correct,0.0,0.0,-45,45,2095,-1,-1
"{'cat': 'II', 'resp': 'button'}",19,388,Left,63.593483913342254,82.22821024592216,3.1796741956671126,1.2916377061321302,Left,Correct,0.0,0.0,-45,45,937,-1,-1
"{'cat': 'II', 'resp': 'button'}",19,389,Right,36.136741110113206,12.0692794040426,1.8068370555056603,0.18958379754931415,Right,Correct,0.0,0.0,-45,45,687,-1,-1
"{'cat': 'II', 'resp': 'button'}",19,390,Right,88.12731530235192,61.79305449737758,4.406365765117596,0.9706430302591756,Right,Correct,0.0,0.0,-45,45,1611,-1,-1
"{'cat': 'II', 'resp': 'button'}",19,391,Right,42.5403644971759,16.26551406078956,2.127018224858795,0.25549809740118984,Left,Incorrect,0.0,0.0,-45,45,636,-1,-1
"{'cat': 'II', 'resp': 'button'}",19,392,Left,64.394034007795,80.9365289445035,3.21970170038975,1.2713480236955492,Right,Incorrect,0.0,0.0,-45,45,936,-1,-1
"{'cat': 'II', 'resp': 'button'}",19,393,Left,63.53171042483349,83.15666215149814,3.1765855212416745,1.3062217945609746,Left,Correct,0.0,0.0,-45,45,640,-1,-1
"{'cat': 'II', 'resp': 'button'}",19,394,Left,30.334208492109816,59.08518317110199,1.5167104246054908,0.9281078869317064,Left,Correct,0.0,0.0,-45,45,2210,-1,-1
"{'cat': 'II', 'resp': 'button'}",19,395,Right,72.67480171074081,43.667878984095225,3.63374008553704,0.6859334390714085,Right,Correct,0.0,0.0,-45,45,952,-1,-1
"{'cat': 'II', 'resp': 'button'}",19,396,Left,19.14690229821819,48.13006022589353,0.9573451149109096,0.7560252181125071,Left,Correct,0.0,0.0,-45,45,1484,-1,-1
"{'cat': 'II', 'resp': 'button'}",19,397,Left,23.542040955669663,41.82461890625347,1.177102047783483,0.6569795774753934,Left,Correct,0.0,0.0,-45,45,635,-1,-1
"{'cat': 'II', 'resp': 'button'}",19,398,Left,62.81495410887344,87.94031477064966,3.140747705443672,1.3813632341892348,Left,Correct,0.0,0.0,-45,45,839,-1,-1
"{'cat': 'II', 'resp': 'button'}",19,399,Left,43.87395059098339,66.7997853828125,2.1936975295491696,1.0492885751000929,Left,Correct,0.0,0.0,-45,45,891,-1,-1
