condition,subject,trial,cat,x,y,xt,yt,resp,fb,rotation,su,target_angle_left,target_angle_right,rt,mt,ep
"{'cat': 'RB', 'resp': 'reach'}",10,0,Right,62.564850064168546,43.11469930620238,3.1282425032084276,0.6772441130104918,Right,Correct,0.0,0.0,-45,45,2005,2791,-0.63
"{'cat': 'RB', 'resp': 'reach'}",10,1,Right,62.3235699196988,41.865037626197065,3.11617849598494,0.6576144732436048,Right,Correct,0.0,0.0,-45,45,2004,3133,-0.68
"{'cat': 'RB', 'resp': 'reach'}",10,2,Left,32.373119241644375,66.3039788383332,1.6186559620822185,1.0415004641114034,Right,Incorrect,0.0,0.0,-45,45,2012,2513,-0.69
"{'cat': 'RB', 'resp': 'reach'}",10,3,Left,32.13959181939383,55.73879002051972,1.6069795909696916,0.8755428662422441,Left,Correct,0.0,0.0,-45,45,2004,2770,-2.62
"{'cat': 'RB', 'resp': 'reach'}",10,4,Left,34.41120937612204,31.070710094927882,1.7205604688061018,0.4880575728802183,Left,Correct,0.0,0.0,-45,45,2008,2304,-2.5
"{'cat': 'RB', 'resp': 'reach'}",10,5,Right,56.88079267980509,60.74155322340694,2.8440396339902545,0.9541260868714433,Right,Correct,0.0,0.0,-45,45,2005,2095,-0.6
"{'cat': 'RB', 'resp': 'reach'}",10,6,Right,59.526552258855595,62.30296921662885,2.97632761294278,0.9786527519389612,Right,Correct,0.0,0.0,-45,45,2004,1991,-0.64
"{'cat': 'RB', 'resp': 'reach'}",10,7,Right,59.485009315602454,58.52951099075708,2.9742504657801225,0.9193794087338274,Right,Correct,0.0,0.0,-45,45,2005,1416,-0.7
"{'cat': 'RB', 'resp': 'reach'}",10,8,Right,55.697211578159795,39.44268358122727,2.7848605789079897,0.6195642248832517,Right,Correct,0.0,0.0,-45,45,2004,2046,-0.68
"{'cat': 'RB', 'resp': 'reach'}",10,9,Right,53.57570695556209,42.182159540917226,2.6787853477781045,0.6625958126314907,Right,Correct,0.0,0.0,-45,45,2004,1925,-0.7
"{'cat': 'RB', 'resp': 'reach'}",10,10,Right,59.99518956978887,29.90111722297082,2.9997594784894437,0.4696856510090619,Right,Correct,0.0,0.0,-45,45,2008,2113,-0.61
"{'cat': 'RB', 'resp': 'reach'}",10,11,Right,60.50760056709794,69.36530531029729,3.025380028354897,1.0895876678842151,Right,Correct,0.0,0.0,-45,45,2009,2529,-0.62
"{'cat': 'RB', 'resp': 'reach'}",10,12,Left,41.37020692116755,61.35350578314508,2.0685103460583774,0.9637386152015373,Left,Correct,0.0,0.0,-45,45,2004,1633,-2.45
"{'cat': 'RB', 'resp': 'reach'}",10,13,Right,66.2571965235846,57.91325627081385,3.3128598261792295,0.9096993022292589,Right,Correct,0.0,0.0,-45,45,2012,1192,-0.71
"{'cat': 'RB', 'resp': 'reach'}",10,14,Left,38.51519943254382,81.60360013440587,1.925759971627191,1.2818263534436427,Left,Correct,0.0,0.0,-45,45,2012,3142,-2.64
"{'cat': 'RB', 'resp': 'reach'}",10,15,Left,48.48425628525278,41.19116732529261,2.4242128142626393,0.6470293433096359,Right,Incorrect,0.0,0.0,-45,45,2004,2338,-0.57
"{'cat': 'RB', 'resp': 'reach'}",10,16,Left,34.53414344759256,83.25228101252091,1.7267071723796281,1.3077237721176436,Left,Correct,0.0,0.0,-45,45,2004,1975,-2.44
"{'cat': 'RB', 'resp': 'reach'}",10,17,Left,47.0962964663454,33.600903401052506,2.35481482331727,0.5278017563936342,Left,Correct,0.0,0.0,-45,45,2004,3100,-2.5
"{'cat': 'RB', 'resp': 'reach'}",10,18,Right,53.06451889511335,42.47283121125146,2.6532259447556674,0.6671616725521342,Left,Incorrect,0.0,0.0,-45,45,2004,2163,-2.47
"{'cat': 'RB', 'resp': 'reach'}",10,19,Left,35.30165339868212,83.14506414141408,1.7650826699341058,1.306039613444593,Left,Correct,0.0,0.0,-45,45,2017,1420,-2.49
"{'cat': 'RB', 'resp': 'reach'}",10,20,Left,40.119062945065494,55.443197376721955,2.0059531472532743,0.870899707851193,Left,Correct,0.0,0.0,-45,45,2004,1684,-2.47
"{'cat': 'RB', 'resp': 'reach'}",10,21,Right,59.86526766350209,83.10107137275764,2.9932633831751043,1.3053485766504824,Right,Correct,0.0,0.0,-45,45,2008,1329,-0.68
"{'cat': 'RB', 'resp': 'reach'}",10,22,Left,33.55901446751967,61.77190393659851,1.6779507233759832,0.9703107980273616,Left,Correct,0.0,0.0,-45,45,2004,1592,-2.52
"{'cat': 'RB', 'resp': 'reach'}",10,23,Right,55.83912902118789,68.82859538144763,2.791956451059394,1.081157048036301,Right,Correct,0.0,0.0,-45,45,2004,1541,-0.52
"{'cat': 'RB', 'resp': 'reach'}",10,24,Left,39.38161023268438,73.31211071167918,1.969080511634219,1.1515839421548646,Left,Correct,0.0,0.0,-45,45,2004,1629,-2.39
"{'cat': 'RB', 'resp': 'reach'}",10,25,Left,31.40424692527324,34.49417296783526,1.5702123462636621,0.5418332019370344,Left,Correct,0.0,0.0,-45,45,2004,1300,-2.42
"{'cat': 'RB', 'resp': 'reach'}",10,26,Right,55.778078837651435,22.879678060997332,2.788903941882572,0.35939314256464394,Right,Correct,0.0,0.0,-45,45,2005,1483,-0.71
"{'cat': 'RB', 'resp': 'reach'}",10,27,Left,35.1942819419865,69.04234188520437,1.7597140970993252,1.0845145702659644,Left,Correct,0.0,0.0,-45,45,2004,1145,-2.43
"{'cat': 'RB', 'resp': 'reach'}",10,28,Left,41.40271219346239,42.844650359849894,2.0701356096731196,0.6730021940806385,Left,Correct,0.0,0.0,-45,45,2008,1358,-2.31
"{'cat': 'RB', 'resp': 'reach'}",10,29,Left,34.05318010411377,69.71817403946727,1.7026590052056887,1.095130516920425,Left,Correct,0.0,0.0,-45,45,2008,1279,-2.37
"{'cat': 'RB', 'resp': 'reach'}",10,30,Right,56.49535329340398,50.437797285236925,2.824767664670199,0.7922750670727577,Right,Correct,0.0,0.0,-45,45,2004,946,-0.59
"{'cat': 'RB', 'resp': 'reach'}",10,31,Right,54.61920982271792,58.005217914952865,2.7309604911358965,0.911143832357455,Right,Correct,0.0,0.0,-45,45,2004,1246,-0.77
"{'cat': 'RB', 'resp': 'reach'}",10,32,Left,42.15792435062059,68.75876673972738,2.1078962175310294,1.0800601822971085,Left,Correct,0.0,0.0,-45,45,2004,1217,-2.41
"{'cat': 'RB', 'resp': 'reach'}",10,33,Left,37.32529888431174,67.06550073466316,1.866264944215587,1.0534624220866933,Left,Correct,0.0,0.0,-45,45,2008,1038,-2.47
"{'cat': 'RB', 'resp': 'reach'}",10,34,Left,35.9781443176284,24.08033829413801,1.7989072158814199,0.3782530694041047,Left,Correct,0.0,0.0,-45,45,2012,1059,-2.31
"{'cat': 'RB', 'resp': 'reach'}",10,35,Right,61.780381532992905,10.729617735657648,3.0890190766496453,0.16854044127084408,Right,Correct,0.0,0.0,-45,45,2004,1008,-0.77
"{'cat': 'RB', 'resp': 'reach'}",10,36,Left,44.890992465613536,77.17096751400922,2.2445496232806765,1.2121987230621396,Left,Correct,0.0,0.0,-45,45,2009,1054,-2.4
"{'cat': 'RB', 'resp': 'reach'}",10,37,Right,64.5324071262727,74.60394084772415,3.226620356313635,1.1718759624802881,Right,Correct,0.0,0.0,-45,45,2008,796,-0.51
"{'cat': 'RB', 'resp': 'reach'}",10,38,Left,46.11092546470833,64.32134814547234,2.305546273235416,1.0103573740140368,Left,Correct,0.0,0.0,-45,45,2008,1783,-2.39
"{'cat': 'RB', 'resp': 'reach'}",10,39,Left,47.60144153241997,31.28055387779033,2.3800720766209986,0.491353791313429,Left,Correct,0.0,0.0,-45,45,2012,1484,-2.44
"{'cat': 'RB', 'resp': 'reach'}",10,40,Right,66.51513025761842,27.735158637125732,3.325756512880921,0.4356628531027085,Right,Correct,0.0,0.0,-45,45,2013,1504,-0.86
"{'cat': 'RB', 'resp': 'reach'}",10,41,Left,37.6458943602898,21.729449839396523,1.88229471801449,0.34132539990998007,Left,Correct,0.0,0.0,-45,45,2004,908,-2.36
"{'cat': 'RB', 'resp': 'reach'}",10,42,Left,43.967659089311766,31.61007132642541,2.1983829544655884,0.49652983929273725,Left,Correct,0.0,0.0,-45,45,2005,866,-2.3
"{'cat': 'RB', 'resp': 'reach'}",10,43,Right,63.1487833243382,55.55459204327251,3.1574391662169097,0.8726494911816144,Right,Correct,0.0,0.0,-45,45,2013,950,-0.82
"{'cat': 'RB', 'resp': 'reach'}",10,44,Left,35.97125815838203,21.379875872216225,1.7985629079191015,0.33583430487408084,Left,Correct,0.0,0.0,-45,45,2008,704,-2.39
"{'cat': 'RB', 'resp': 'reach'}",10,45,Right,60.702045200818255,86.55947948922034,3.035102260040913,1.3596731243094549,Right,Correct,0.0,0.0,-45,45,2009,1066,-0.64
"{'cat': 'RB', 'resp': 'reach'}",10,46,Left,38.26950187571253,27.586210674087564,1.9134750937856264,0.4333231839704691,Left,Correct,0.0,0.0,-45,45,2008,846,-2.41
"{'cat': 'RB', 'resp': 'reach'}",10,47,Right,55.424285204595975,20.17032619572773,2.771214260229799,0.31683474298503994,Right,Correct,0.0,0.0,-45,45,2012,850,-0.7
"{'cat': 'RB', 'resp': 'reach'}",10,48,Left,34.186265807780025,37.975161836683164,1.7093132903890011,0.5965124472250365,Left,Correct,0.0,0.0,-45,45,2004,975,-2.39
"{'cat': 'RB', 'resp': 'reach'}",10,49,Right,67.3864377664556,58.47231843599399,3.3693218883227805,0.9184810301844087,Right,Correct,0.0,0.0,-45,45,2004,784,-0.85
"{'cat': 'RB', 'resp': 'reach'}",10,50,Right,63.09324247781759,34.32334167420065,3.1546621238908794,0.5391497902516057,Right,Correct,0.0,0.0,-45,45,2012,2158,-0.88
"{'cat': 'RB', 'resp': 'reach'}",10,51,Right,61.39001195671578,34.47193619598655,3.0695005978357894,0.5414839075416371,Right,Correct,0.0,0.0,-45,45,2004,883,-0.81
"{'cat': 'RB', 'resp': 'reach'}",10,52,Right,54.92893435093871,65.01304880677726,2.7464467175469354,1.0212225825942305,Right,Correct,0.0,0.0,-45,45,2004,846,-0.78
"{'cat': 'RB', 'resp': 'reach'}",10,53,Right,58.55938447456837,58.93515057536075,2.9279692237284185,0.9257511804288081,Right,Correct,0.0,0.0,-45,45,2004,896,-0.77
"{'cat': 'RB', 'resp': 'reach'}",10,54,Right,66.8092236830501,32.11889551853051,3.340461184152505,0.5045224310121679,Right,Correct,0.0,0.0,-45,45,2004,946,-0.79
"{'cat': 'RB', 'resp': 'reach'}",10,55,Right,61.950117707635144,15.517830065960496,3.0975058853817576,0.24375350467438153,Right,Correct,0.0,0.0,-45,45,2012,1038,-0.77
"{'cat': 'RB', 'resp': 'reach'}",10,56,Right,61.114394610828235,72.96476948581403,3.0557197305414117,1.1461279189375304,Right,Correct,0.0,0.0,-45,45,2017,1437,-0.77
"{'cat': 'RB', 'resp': 'reach'}",10,57,Right,66.011475683742,44.87755029897213,3.3005737841871,0.7049349116517865,Right,Correct,0.0,0.0,-45,45,2016,904,-0.79
"{'cat': 'RB', 'resp': 'reach'}",10,58,Left,39.07877640442338,86.89022535062256,1.953938820221169,1.364868468151387,Left,Correct,0.0,0.0,-45,45,2004,958,-2.33
"{'cat': 'RB', 'resp': 'reach'}",10,59,Left,33.74058725263293,30.453027043024846,1.6870293626316464,0.4783550301896908,Left,Correct,0.0,0.0,-45,45,2004,866,-2.44
"{'cat': 'RB', 'resp': 'reach'}",10,60,Left,40.229833466605115,28.807466421698628,2.0114916733302555,0.4525066243947153,Left,Correct,0.0,0.0,-45,45,2008,725,-2.39
"{'cat': 'RB', 'resp': 'reach'}",10,61,Right,60.63823771219695,54.78858965624377,3.0319118856098477,0.8606171538230057,Right,Correct,0.0,0.0,-45,45,2012,979,-0.7
"{'cat': 'RB', 'resp': 'reach'}",10,62,Left,39.94760230756776,63.38372940954407,1.997380115378388,0.9956292933507348,Left,Correct,0.0,0.0,-45,45,2004,1146,-2.38
"{'cat': 'RB', 'resp': 'reach'}",10,63,Left,44.58643907030809,54.43360977806248,2.229321953515404,0.8550411429356731,Right,Incorrect,0.0,0.0,-45,45,2012,1088,-0.65
"{'cat': 'RB', 'resp': 'reach'}",10,64,Right,64.26062516711218,81.46961293517765,3.213031258355609,1.2797216874397905,Right,Correct,0.0,0.0,-45,45,2004,917,-0.65
"{'cat': 'RB', 'resp': 'reach'}",10,65,Left,34.87305957781792,71.58180340236618,1.7436529788908959,1.124404338497912,Left,Correct,0.0,0.0,-45,45,2004,954,-2.34
"{'cat': 'RB', 'resp': 'reach'}",10,66,Left,33.18779504031609,23.353863685667626,1.6593897520158043,0.36684163293915434,Left,Correct,0.0,0.0,-45,45,2012,1171,-2.37
"{'cat': 'RB', 'resp': 'reach'}",10,67,Right,65.1046848431918,18.422544353648096,3.2552342421595903,0.2893806500092649,Right,Correct,0.0,0.0,-45,45,2008,883,-0.79
"{'cat': 'RB', 'resp': 'reach'}",10,68,Right,67.70855055234975,47.00710213212708,3.385427527617487,0.7383858336241776,Right,Correct,0.0,0.0,-45,45,2004,1025,-0.8
"{'cat': 'RB', 'resp': 'reach'}",10,69,Left,36.06461301610226,57.79180530873586,1.803230650805113,0.9077915549780808,Left,Correct,0.0,0.0,-45,45,2004,934,-2.47
"{'cat': 'RB', 'resp': 'reach'}",10,70,Right,59.49164226891197,61.310035108255704,2.9745821134455985,0.963055779437142,Right,Correct,0.0,0.0,-45,45,2004,1559,-0.73
"{'cat': 'RB', 'resp': 'reach'}",10,71,Left,36.87313667900148,43.93839317579896,1.843656833950074,0.6901826660581495,Left,Correct,0.0,0.0,-45,45,2008,954,-2.48
"{'cat': 'RB', 'resp': 'reach'}",10,72,Left,35.404424472245466,84.13788392658299,1.7702212236122734,1.3216347901617194,Left,Correct,0.0,0.0,-45,45,2016,1138,-2.34
"{'cat': 'RB', 'resp': 'reach'}",10,73,Right,61.31369505791911,50.940546224309365,3.0656847528959554,0.8001722289407078,Right,Correct,0.0,0.0,-45,45,2009,862,-0.82
"{'cat': 'RB', 'resp': 'reach'}",10,74,Right,54.71582200844965,27.239138013879487,2.7357911004224826,0.42787137937261127,Right,Correct,0.0,0.0,-45,45,2005,916,-0.6
"{'cat': 'RB', 'resp': 'reach'}",10,75,Right,53.59031595530864,31.924107136335188,2.6795157977654323,0.5014627022596206,Right,Correct,0.0,0.0,-45,45,2004,1650,-0.71
"{'cat': 'RB', 'resp': 'reach'}",10,76,Left,43.74545334101737,42.75286722037408,2.1872726670508684,0.6715604678971354,Left,Correct,0.0,0.0,-45,45,2012,1021,-2.37
"{'cat': 'RB', 'resp': 'reach'}",10,77,Right,64.13950913355812,19.823581514436782,3.206975456677906,0.31138809026796505,Right,Correct,0.0,0.0,-45,45,2004,1108,-0.86
"{'cat': 'RB', 'resp': 'reach'}",10,78,Right,61.596033431079796,44.622440084829286,3.07980167155399,0.7009276497787519,Right,Correct,0.0,0.0,-45,45,2008,933,-0.63
"{'cat': 'RB', 'resp': 'reach'}",10,79,Right,64.55649074823312,59.7315648908778,3.2278245374116556,0.9382612272430186,Right,Correct,0.0,0.0,-45,45,2008,967,-0.7
"{'cat': 'RB', 'resp': 'reach'}",10,80,Left,47.298796608129976,52.03879786530079,2.364939830406499,0.8174235253763658,Left,Correct,0.0,0.0,-45,45,2005,1037,-2.34
"{'cat': 'RB', 'resp': 'reach'}",10,81,Right,61.982688824496925,30.44333371211501,3.0991344412248463,0.47820276770381503,Right,Correct,0.0,0.0,-45,45,2017,933,-0.73
"{'cat': 'RB', 'resp': 'reach'}",10,82,Right,57.556791023900544,73.8965504894595,2.877839551195027,1.1607643007165662,Right,Correct,0.0,0.0,-45,45,2012,1271,-0.65
"{'cat': 'RB', 'resp': 'reach'}",10,83,Left,34.64245752311756,48.232345769963324,1.732122876155878,0.7576319156815976,Left,Correct,0.0,0.0,-45,45,2005,954,-2.44
"{'cat': 'RB', 'resp': 'reach'}",10,84,Right,56.64899670229331,34.98436512515297,2.8324498351146654,0.5495331223384177,Right,Correct,0.0,0.0,-45,45,2004,1559,-0.7
"{'cat': 'RB', 'resp': 'reach'}",10,85,Left,46.90239515713656,31.4578280323198,2.345119757856828,0.4941384072211348,Left,Correct,0.0,0.0,-45,45,2004,1188,-2.51
"{'cat': 'RB', 'resp': 'reach'}",10,86,Right,59.87798251067956,42.48951581022122,2.9938991255339777,0.6674237536198918,Right,Correct,0.0,0.0,-45,45,2004,975,-0.69
"{'cat': 'RB', 'resp': 'reach'}",10,87,Left,44.4544709218886,19.71937514942008,2.22272354609443,0.30975122051399634,Left,Correct,0.0,0.0,-45,45,2004,1058,-2.55
"{'cat': 'RB', 'resp': 'reach'}",10,88,Right,53.512539248015514,34.492803073974486,2.675626962400776,0.5418116836945883,Right,Correct,0.0,0.0,-45,45,2004,1780,-0.74
"{'cat': 'RB', 'resp': 'reach'}",10,89,Left,47.14198805220603,28.83655279509892,2.357099402610302,0.45296351207968494,Left,Correct,0.0,0.0,-45,45,2004,1521,-2.47
"{'cat': 'RB', 'resp': 'reach'}",10,90,Left,33.6120589195718,33.42963910713671,1.68060294597859,0.5251115431556936,Left,Correct,0.0,0.0,-45,45,2008,1104,-2.45
"{'cat': 'RB', 'resp': 'reach'}",10,91,Right,56.087424231108535,16.413248197700575,2.8043712115554267,0.2578186997972102,Right,Correct,0.0,0.0,-45,45,2004,888,-0.66
"{'cat': 'RB', 'resp': 'reach'}",10,92,Left,45.541307405783485,56.81051709331292,2.277065370289174,0.8923775157349462,Left,Correct,0.0,0.0,-45,45,2008,967,-2.5
"{'cat': 'RB', 'resp': 'reach'}",10,93,Left,45.34840374771552,33.36324403606059,2.2674201873857758,0.5240686118180572,Left,Correct,0.0,0.0,-45,45,2013,1362,-2.51
"{'cat': 'RB', 'resp': 'reach'}",10,94,Left,39.23048200480095,50.09804918483438,1.9615241002400472,0.786938316391279,Left,Correct,0.0,0.0,-45,45,2013,988,-2.43
"{'cat': 'RB', 'resp': 'reach'}",10,95,Left,39.36174680033995,51.7181484799777,1.9680873400169974,0.8123867766098204,Left,Correct,0.0,0.0,-45,45,2004,1150,-2.47
"{'cat': 'RB', 'resp': 'reach'}",10,96,Left,34.492289826064294,72.72657860838844,1.7246144913032146,1.1423864253841685,Left,Correct,0.0,0.0,-45,45,2013,900,-2.45
"{'cat': 'RB', 'resp': 'reach'}",10,97,Right,57.777390725353335,68.09298101277699,2.888869536267667,1.0696020445538474,Right,Correct,0.0,0.0,-45,45,2012,917,-0.57
"{'cat': 'RB', 'resp': 'reach'}",10,98,Right,64.29565913892817,43.11921489908933,3.2147829569464084,0.6773150437776929,Right,Correct,0.0,0.0,-45,45,2013,837,-0.6
"{'cat': 'RB', 'resp': 'reach'}",10,99,Right,54.43303698576202,48.0082451104152,2.721651849288101,0.7541117507530926,Right,Correct,0.0,0.0,-45,45,2004,900,-0.69
"{'cat': 'RB', 'resp': 'reach'}",10,100,Left,41.92059329898007,57.62874868863398,2.0960296649490036,0.9052302675789248,Left,Correct,0.0,0.0,-45,45,2004,850,-2.52
"{'cat': 'RB', 'resp': 'reach'}",10,101,Right,54.51201845862974,71.8274414283813,2.7256009229314873,1.1282628115877693,Right,Correct,0.0,0.0,-45,45,2013,879,-0.63
"{'cat': 'RB', 'resp': 'reach'}",10,102,Left,46.44010151224603,77.03774549780904,2.3220050756123016,1.2101060765251852,Left,Correct,0.0,0.0,-45,45,2013,966,-2.47
"{'cat': 'RB', 'resp': 'reach'}",10,103,Right,52.875657801597185,65.208686782931,2.6437828900798594,1.0242956567374695,Right,Correct,0.0,0.0,-45,45,2013,1283,-0.58
"{'cat': 'RB', 'resp': 'reach'}",10,104,Left,43.505607269908396,47.032920584141074,2.17528036349542,0.7387913889200489,Left,Correct,0.0,0.0,-45,45,2004,1037,-2.46
"{'cat': 'RB', 'resp': 'reach'}",10,105,Right,60.074839531750115,82.64701333970858,3.0037419765875057,1.2982162497458305,Right,Correct,0.0,0.0,-45,45,2004,896,-0.89
"{'cat': 'RB', 'resp': 'reach'}",10,106,Right,57.76799320084184,76.75805684370903,2.888399660042092,1.20571273742012,Right,Correct,0.0,0.0,-45,45,2008,846,-0.8
"{'cat': 'RB', 'resp': 'reach'}",10,107,Right,55.67418173560033,83.83772162812532,2.783709086780016,1.316919851803123,Right,Correct,0.0,0.0,-45,45,2012,1263,-0.63
"{'cat': 'RB', 'resp': 'reach'}",10,108,Left,35.39560537102772,27.35187198622188,1.7697802685513861,0.42964220046921564,Left,Correct,0.0,0.0,-45,45,2004,858,-2.47
"{'cat': 'RB', 'resp': 'reach'}",10,109,Left,37.312370268150566,28.69670593540212,1.8656185134075285,0.45076680274442965,Left,Correct,0.0,0.0,-45,45,2004,987,-2.5
"{'cat': 'RB', 'resp': 'reach'}",10,110,Left,33.11732089103654,39.77873639396222,1.6558660445518272,0.6248429301217833,Left,Correct,0.0,0.0,-45,45,2004,812,-2.36
"{'cat': 'RB', 'resp': 'reach'}",10,111,Right,64.78834974540791,50.62557234271901,3.2394174872703956,0.7952246307783232,Right,Correct,0.0,0.0,-45,45,2012,959,-0.81
"{'cat': 'RB', 'resp': 'reach'}",10,112,Left,40.67010974112301,86.27348702585363,2.0335054870561504,1.3551807651999803,Left,Correct,0.0,0.0,-45,45,2004,1016,-2.42
"{'cat': 'RB', 'resp': 'reach'}",10,113,Left,42.764070111878894,80.55640903786329,2.1382035055939443,1.2653771141646286,Left,Correct,0.0,0.0,-45,45,2012,930,-2.39
"{'cat': 'RB', 'resp': 'reach'}",10,114,Left,38.7747749683407,77.55747394913952,1.9387387484170349,1.2182699519479923,Left,Correct,0.0,0.0,-45,45,2008,862,-2.38
"{'cat': 'RB', 'resp': 'reach'}",10,115,Right,64.52047716835197,57.438678085050206,3.226023858417599,0.9022446455195139,Right,Correct,0.0,0.0,-45,45,2008,988,-1.05
"{'cat': 'RB', 'resp': 'reach'}",10,116,Left,39.31561593152373,18.809506723911063,1.9657807965761864,0.295459040707434,Left,Correct,0.0,0.0,-45,45,2004,866,-2.39
"{'cat': 'RB', 'resp': 'reach'}",10,117,Right,64.35180065182648,77.55366371155631,3.217590032591324,1.2182101008759931,Right,Correct,0.0,0.0,-45,45,2012,917,-0.69
"{'cat': 'RB', 'resp': 'reach'}",10,118,Left,39.71284064631765,87.3468798104366,1.9856420323158828,1.3720415796322913,Left,Correct,0.0,0.0,-45,45,2004,887,-2.38
"{'cat': 'RB', 'resp': 'reach'}",10,119,Left,36.056796209122446,47.58919965496003,1.8028398104561223,0.7475294001312016,Left,Correct,0.0,0.0,-45,45,2008,867,-2.49
"{'cat': 'RB', 'resp': 'reach'}",10,120,Right,55.77229820015576,45.81319360702605,2.788614910007788,0.7196319623665995,Right,Correct,0.0,0.0,-45,45,2004,817,-0.57
"{'cat': 'RB', 'resp': 'reach'}",10,121,Right,58.38783768915319,77.36612175558663,2.919391884457659,1.2152641987204222,Right,Correct,0.0,0.0,-45,45,2004,746,-0.62
"{'cat': 'RB', 'resp': 'reach'}",10,122,Right,64.86956199490905,82.53050808850571,3.243478099745453,1.2963861895394126,Right,Correct,0.0,0.0,-45,45,2004,745,-0.65
"{'cat': 'RB', 'resp': 'reach'}",10,123,Right,62.559071536809924,64.01539592563353,3.1279535768404965,1.0055514877830614,Right,Correct,0.0,0.0,-45,45,2004,725,-0.69
"{'cat': 'RB', 'resp': 'reach'}",10,124,Right,67.50328899979075,74.07491533761419,3.375164449989538,1.163566049199673,Right,Correct,0.0,0.0,-45,45,2004,817,-0.66
"{'cat': 'RB', 'resp': 'reach'}",10,125,Right,58.184811878573,88.31540778910217,2.90924059392865,1.387255181545151,Right,Correct,0.0,0.0,-45,45,2008,692,-0.67
"{'cat': 'RB', 'resp': 'reach'}",10,126,Left,42.655762933623784,26.613584049363222,2.132788146681189,0.41804520067587,Left,Correct,0.0,0.0,-45,45,2004,1017,-2.56
"{'cat': 'RB', 'resp': 'reach'}",10,127,Left,39.15494325522909,21.912899184491707,1.9577471627614544,0.3442070154842646,Left,Correct,0.0,0.0,-45,45,2016,905,-2.51
"{'cat': 'RB', 'resp': 'reach'}",10,128,Left,31.630803513848523,68.9517065555579,1.5815401756924263,1.0830908738370995,Left,Correct,0.0,0.0,-45,45,2008,746,-2.51
"{'cat': 'RB', 'resp': 'reach'}",10,129,Left,32.5903022224564,73.80837706985724,1.6295151111228199,1.1593792758802444,Left,Correct,0.0,0.0,-45,45,2008,675,-2.42
"{'cat': 'RB', 'resp': 'reach'}",10,130,Left,42.75971239362292,64.72913468037288,2.137985619681146,1.0167628699254188,Left,Correct,0.0,0.0,-45,45,2004,695,-2.41
"{'cat': 'RB', 'resp': 'reach'}",10,131,Left,47.16526905297503,41.43157001019259,2.3582634526487514,0.650805579853561,Left,Correct,0.0,0.0,-45,45,2004,1525,-2.44
"{'cat': 'RB', 'resp': 'reach'}",10,132,Right,62.2419397966621,32.78151385554344,3.112096989833105,0.5149308155106364,Right,Correct,0.0,0.0,-45,45,2004,888,-0.79
"{'cat': 'RB', 'resp': 'reach'}",10,133,Right,63.7772693596985,45.514891263615795,3.188863467984925,0.7149462401135682,Right,Correct,0.0,0.0,-45,45,2008,867,-0.84
"{'cat': 'RB', 'resp': 'reach'}",10,134,Left,44.87179646203412,73.37836883745241,2.243589823101706,1.1526247223607136,Left,Correct,0.0,0.0,-45,45,2004,950,-2.45
"{'cat': 'RB', 'resp': 'reach'}",10,135,Left,36.19881379421935,77.63140827925824,1.8099406897109673,1.2194313096897376,Left,Correct,0.0,0.0,-45,45,2008,754,-2.39
"{'cat': 'RB', 'resp': 'reach'}",10,136,Right,58.500683295373086,84.79602466566624,2.9250341647686544,1.3319728407163798,Right,Correct,0.0,0.0,-45,45,2004,1037,-0.73
"{'cat': 'RB', 'resp': 'reach'}",10,137,Left,40.43707347061486,84.4320640479155,2.021853673530743,1.326255760701771,Left,Correct,0.0,0.0,-45,45,2004,896,-2.46
"{'cat': 'RB', 'resp': 'reach'}",10,138,Left,41.56363586330608,89.29585394003266,2.078181793165304,1.402655993670169,Left,Correct,0.0,0.0,-45,45,2012,988,-2.42
"{'cat': 'RB', 'resp': 'reach'}",10,139,Right,64.13643445771996,53.46315915487591,3.2068217228859974,0.8397973401933002,Right,Correct,0.0,0.0,-45,45,2004,900,-0.67
"{'cat': 'RB', 'resp': 'reach'}",10,140,Left,38.93827061608214,73.88958519777923,1.9469135308041072,1.1606548901707014,Left,Correct,0.0,0.0,-45,45,2004,846,-2.48
"{'cat': 'RB', 'resp': 'reach'}",10,141,Right,59.64525470293876,11.306447739736456,2.982262735146938,0.17760126578676486,Right,Correct,0.0,0.0,-45,45,2013,758,-0.8
"{'cat': 'RB', 'resp': 'reach'}",10,142,Left,38.78326026290618,72.16114653559058,1.9391630131453093,1.1335046391541395,Left,Correct,0.0,0.0,-45,45,2008,1055,-2.36
"{'cat': 'RB', 'resp': 'reach'}",10,143,Right,53.94274829546935,69.64101705803111,2.6971374147734672,1.09391853789016,Right,Correct,0.0,0.0,-45,45,2004,663,-0.73
"{'cat': 'RB', 'resp': 'reach'}",10,144,Left,38.8259123063724,63.258668573307006,1.94129561531862,0.993664842328864,Left,Correct,0.0,0.0,-45,45,2004,1004,-2.4
"{'cat': 'RB', 'resp': 'reach'}",10,145,Left,46.70230036195331,40.4472016960973,2.3351150180976656,0.6353431585336196,Left,Correct,0.0,0.0,-45,45,2004,1263,-2.44
"{'cat': 'RB', 'resp': 'reach'}",10,146,Right,55.937228329915285,75.5945184673324,2.7968614164957644,1.1874359193431472,Left,Incorrect,0.0,0.0,-45,45,2004,1158,-2.42
"{'cat': 'RB', 'resp': 'reach'}",10,147,Right,62.53608803118744,77.35462695918005,3.1268044015593723,1.2150836388806951,Right,Correct,0.0,0.0,-45,45,2004,1075,-0.59
"{'cat': 'RB', 'resp': 'reach'}",10,148,Left,39.56640739026099,83.44221528371713,1.9783203695130496,1.3107072526729184,Left,Correct,0.0,0.0,-45,45,2012,880,-2.47
"{'cat': 'RB', 'resp': 'reach'}",10,149,Left,33.52634880531277,56.93426766809863,1.6763174402656387,0.8943213852180676,Left,Correct,0.0,0.0,-45,45,2009,762,-2.46
"{'cat': 'RB', 'resp': 'reach'}",10,150,Right,60.655035226509526,22.643259748476332,3.0327517613254766,0.3556794923956936,Right,Correct,0.0,0.0,-45,45,2003,867,-0.69
"{'cat': 'RB', 'resp': 'reach'}",10,151,Right,65.83576644294098,44.8047036721163,3.2917883221470494,0.7037906395129409,Right,Correct,0.0,0.0,-45,45,2008,984,-0.84
"{'cat': 'RB', 'resp': 'reach'}",10,152,Left,35.87542900282786,15.899523643866964,1.7937714501413928,0.24974913337574836,Left,Correct,0.0,0.0,-45,45,2013,866,-2.56
"{'cat': 'RB', 'resp': 'reach'}",10,153,Left,48.104094685447194,37.126343945161395,2.4052047342723597,0.5831792469638346,Left,Correct,0.0,0.0,-45,45,2004,946,-2.56
"{'cat': 'RB', 'resp': 'reach'}",10,154,Right,58.02071522195025,45.14809727755733,2.9010357610975124,0.7091846536536572,Right,Correct,0.0,0.0,-45,45,2004,1179,-0.65
"{'cat': 'RB', 'resp': 'reach'}",10,155,Left,31.70254919714655,66.1595532630102,1.5851274598573275,1.0392318324792773,Left,Correct,0.0,0.0,-45,45,2004,846,-2.47
"{'cat': 'RB', 'resp': 'reach'}",10,156,Right,66.44479853583344,72.16811597810256,3.3222399267916725,1.1336141149011159,Right,Correct,0.0,0.0,-45,45,2004,858,-0.6
"{'cat': 'RB', 'resp': 'reach'}",10,157,Right,58.805376240479696,55.519715171323085,2.940268812023985,0.872101646558132,Right,Correct,0.0,0.0,-45,45,2004,1196,-0.61
"{'cat': 'RB', 'resp': 'reach'}",10,158,Right,59.3114121648029,40.2368162527942,2.965570608240145,0.6320384317181031,Right,Correct,0.0,0.0,-45,45,2009,866,-0.68
"{'cat': 'RB', 'resp': 'reach'}",10,159,Right,53.91046458816714,26.413065057843134,2.695523229408357,0.4148954557225463,Right,Correct,0.0,0.0,-45,45,2004,917,-0.81
"{'cat': 'RB', 'resp': 'reach'}",10,160,Right,66.08178387198627,54.352490365579726,3.3040891935993137,0.8537669221840765,Right,Correct,0.0,0.0,-45,45,2013,829,-0.76
"{'cat': 'RB', 'resp': 'reach'}",10,161,Right,60.44434111207526,85.18725268987183,3.022217055603763,1.3381182361499933,Right,Correct,0.0,0.0,-45,45,2008,762,-0.81
"{'cat': 'RB', 'resp': 'reach'}",10,162,Left,47.253966102890374,42.006370190794215,2.362698305144519,0.6598345199768619,Left,Correct,0.0,0.0,-45,45,2008,1004,-2.47
"{'cat': 'RB', 'resp': 'reach'}",10,163,Right,55.408576700014855,77.9037576413406,2.7704288350007427,1.2237093634653768,Right,Correct,0.0,0.0,-45,45,2004,1000,-0.81
"{'cat': 'RB', 'resp': 'reach'}",10,164,Left,36.1621072942008,29.24822450913038,1.8081053647100402,0.4594300362421447,Left,Correct,0.0,0.0,-45,45,2008,813,-2.47
"{'cat': 'RB', 'resp': 'reach'}",10,165,Left,45.5212665623398,32.19005568990751,2.2760633281169897,0.5056402123702988,Left,Correct,0.0,0.0,-45,45,2004,950,-2.45
"{'cat': 'RB', 'resp': 'reach'}",10,166,Right,58.82072917787049,23.516961121695733,2.9410364588935245,0.3694035614733805,Right,Correct,0.0,0.0,-45,45,2012,879,-0.61
"{'cat': 'RB', 'resp': 'reach'}",10,167,Right,64.75255298527202,22.333936176419783,3.237627649263601,0.3508206490879185,Right,Correct,0.0,0.0,-45,45,2004,859,-0.73
"{'cat': 'RB', 'resp': 'reach'}",10,168,Right,52.016370790695895,39.04049012161719,2.600818539534795,0.6132465847930874,Right,Correct,0.0,0.0,-45,45,2008,1159,-0.72
"{'cat': 'RB', 'resp': 'reach'}",10,169,Left,36.268454175813616,56.74346199523906,1.813422708790681,0.8913242167174731,Left,Correct,0.0,0.0,-45,45,2013,879,-2.39
"{'cat': 'RB', 'resp': 'reach'}",10,170,Right,54.77330242389616,83.80148903886287,2.738665121194808,1.3163507116218858,Right,Correct,0.0,0.0,-45,45,2004,1095,-0.77
"{'cat': 'RB', 'resp': 'reach'}",10,171,Left,38.285094553652364,32.62380470110634,1.914254727682618,0.5124535259057191,Left,Correct,0.0,0.0,-45,45,2008,1046,-2.43
"{'cat': 'RB', 'resp': 'reach'}",10,172,Right,54.64547787413155,55.24396036752219,2.732273893706578,0.8677701002290671,Right,Correct,0.0,0.0,-45,45,2004,955,-0.8
"{'cat': 'RB', 'resp': 'reach'}",10,173,Left,45.411769836913194,45.99895022519487,2.27058849184566,0.7225498205015738,Right,Incorrect,0.0,0.0,-45,45,2012,1454,-0.7
"{'cat': 'RB', 'resp': 'reach'}",10,174,Right,55.87111913630233,55.679901859260646,2.7935559568151165,0.8746178531682696,Right,Correct,0.0,0.0,-45,45,2004,925,-0.74
"{'cat': 'RB', 'resp': 'reach'}",10,175,Right,66.69020845119734,65.40070073051453,3.334510422559867,1.0273118047730454,Right,Correct,0.0,0.0,-45,45,2004,692,-0.68
"{'cat': 'RB', 'resp': 'reach'}",10,176,Left,37.076342179792675,15.426851740872735,1.8538171089896338,0.2423244204857235,Left,Correct,0.0,0.0,-45,45,2012,900,-2.59
"{'cat': 'RB', 'resp': 'reach'}",10,177,Right,59.20044953362408,42.732175543156465,2.9600224766812038,0.671235443791449,Right,Correct,0.0,0.0,-45,45,2017,833,-0.73
"{'cat': 'RB', 'resp': 'reach'}",10,178,Left,43.61802642169415,15.45715062806746,2.1809013210847072,0.24280035429283792,Left,Correct,0.0,0.0,-45,45,2013,2733,-2.52
"{'cat': 'RB', 'resp': 'reach'}",10,179,Right,66.73574963269186,59.63562711825041,3.3367874816345933,0.9367542402345788,Right,Correct,0.0,0.0,-45,45,2008,883,-0.68
"{'cat': 'RB', 'resp': 'reach'}",10,180,Left,39.7100483181094,37.873381558836385,1.98550241590547,0.5949136863592177,Left,Correct,0.0,0.0,-45,45,2004,866,-2.55
"{'cat': 'RB', 'resp': 'reach'}",10,181,Left,32.60918170200999,41.61844390513671,1.6304590851004996,0.6537409881310818,Left,Correct,0.0,0.0,-45,45,2004,1017,-2.4
"{'cat': 'RB', 'resp': 'reach'}",10,182,Left,33.46045493196244,20.695345232434182,1.6730227465981218,0.3250817227285988,Left,Correct,0.0,0.0,-45,45,2012,779,-2.45
"{'cat': 'RB', 'resp': 'reach'}",10,183,Right,52.91214134506875,28.810497881961954,2.645607067253437,0.45255424246117987,Right,Correct,0.0,0.0,-45,45,2009,845,-0.64
"{'cat': 'RB', 'resp': 'reach'}",10,184,Right,55.8246147796797,20.079376526485998,2.791230738983985,0.31540610892135873,Right,Correct,0.0,0.0,-45,45,2004,887,-0.66
"{'cat': 'RB', 'resp': 'reach'}",10,185,Right,61.100656616466495,79.60351083907624,3.0550328308233246,1.2504090242599868,Right,Correct,0.0,0.0,-45,45,2004,904,-0.69
"{'cat': 'RB', 'resp': 'reach'}",10,186,Left,48.287934614174816,69.24674923175354,2.4143967307087406,1.087725393357258,Left,Correct,0.0,0.0,-45,45,2013,1162,-2.52
"{'cat': 'RB', 'resp': 'reach'}",10,187,Left,42.88185590230626,12.108735123771453,2.1440927951153133,0.19020356654552548,Left,Correct,0.0,0.0,-45,45,2004,934,-2.43
"{'cat': 'RB', 'resp': 'reach'}",10,188,Right,56.671011425420794,81.50391150895041,2.8335505712710396,1.2802604481767559,Right,Correct,0.0,0.0,-45,45,2004,1025,-0.71
"{'cat': 'RB', 'resp': 'reach'}",10,189,Left,38.50944666561785,13.031904666966703,1.9254723332808925,0.20470467982012566,Left,Correct,0.0,0.0,-45,45,2013,937,-2.4
"{'cat': 'RB', 'resp': 'reach'}",10,190,Left,48.53015200962504,37.15594886104168,2.4265076004812522,0.5836442798950329,Right,Incorrect,0.0,0.0,-45,45,2004,1009,-0.65
"{'cat': 'RB', 'resp': 'reach'}",10,191,Right,64.41422165515031,56.9636806867117,3.2207110827575156,0.8947834038340411,Right,Correct,0.0,0.0,-45,45,2005,970,-0.66
"{'cat': 'RB', 'resp': 'reach'}",10,192,Left,42.241826821674124,61.45727594559315,2.112091341083706,0.9653686331015807,Left,Correct,0.0,0.0,-45,45,2005,2458,-2.38
"{'cat': 'RB', 'resp': 'reach'}",10,193,Left,36.797456287210835,14.842629291534195,1.8398728143605416,0.23314747571120248,Left,Correct,0.0,0.0,-45,45,2009,1045,-2.52
"{'cat': 'RB', 'resp': 'reach'}",10,194,Left,42.10376636516886,65.93281887777725,2.105188318258443,1.0356702970844571,Left,Correct,0.0,0.0,-45,45,2004,883,-2.45
"{'cat': 'RB', 'resp': 'reach'}",10,195,Right,64.12361790488316,70.12581107301926,3.206180895244158,1.1015336644701155,Right,Correct,0.0,0.0,-45,45,2004,796,-0.64
"{'cat': 'RB', 'resp': 'reach'}",10,196,Left,41.81758914261888,85.69373214184776,2.090879457130944,1.3460739967776023,Left,Correct,0.0,0.0,-45,45,2004,916,-2.47
"{'cat': 'RB', 'resp': 'reach'}",10,197,Right,65.68538044263924,61.445189875536,3.284269022131962,0.9651787855570694,Right,Correct,0.0,0.0,-45,45,2004,784,-0.68
"{'cat': 'RB', 'resp': 'reach'}",10,198,Right,57.081617087890514,80.61353413463215,2.854080854394526,1.266274433086352,Right,Correct,0.0,0.0,-45,45,2013,1333,-0.67
"{'cat': 'RB', 'resp': 'reach'}",10,199,Right,59.36017688826306,56.778243744063644,2.968008844413153,0.8918705671504049,Right,Correct,0.0,0.0,-45,45,2005,1020,-0.71
"{'cat': 'RB', 'resp': 'reach'}",10,200,Left,47.63572358435132,52.2451823710968,2.381786179217566,0.8206654056124834,Left,Correct,0.0,0.0,-45,45,2004,1663,-2.51
"{'cat': 'RB', 'resp': 'reach'}",10,201,Right,69.17293778718309,50.97324256907254,3.458646889359154,0.800685821923244,Right,Correct,0.0,0.0,-45,45,2008,867,-0.64
"{'cat': 'RB', 'resp': 'reach'}",10,202,Right,62.51517935937452,50.158908916782174,3.125758967968726,0.7878942988252122,Right,Correct,0.0,0.0,-45,45,2004,1158,-0.65
"{'cat': 'RB', 'resp': 'reach'}",10,203,Right,51.36707124955025,61.0406719479063,2.5683535624775122,0.9588246328086352,Left,Incorrect,0.0,0.0,-45,45,2004,1338,-2.54
"{'cat': 'RB', 'resp': 'reach'}",10,204,Right,62.90733509500235,73.37854447668579,3.1453667547501176,1.1526274812953399,Right,Correct,0.0,0.0,-45,45,2004,812,-0.68
"{'cat': 'RB', 'resp': 'reach'}",10,205,Right,64.26111970018702,77.45480981297206,3.213055985009351,1.2166573074681382,Right,Correct,0.0,0.0,-45,45,2013,929,-0.7
"{'cat': 'RB', 'resp': 'reach'}",10,206,Left,46.62340132938954,68.98549660530003,2.3311700664694768,1.0836216466972708,Left,Correct,0.0,0.0,-45,45,2004,1150,-2.49
"{'cat': 'RB', 'resp': 'reach'}",10,207,Right,55.20014721314227,73.76181945948693,2.7600073606571134,1.158647950646704,Left,Incorrect,0.0,0.0,-45,45,2004,2104,-2.5
"{'cat': 'RB', 'resp': 'reach'}",10,208,Left,34.05063914025176,79.41314793764919,1.7025319570125879,1.2474188107967907,Left,Correct,0.0,0.0,-45,45,2017,867,-2.55
"{'cat': 'RB', 'resp': 'reach'}",10,209,Right,61.53023135161627,67.60598826397137,3.0765115675808135,1.061952380343851,Right,Correct,0.0,0.0,-45,45,2009,1037,-0.72
"{'cat': 'RB', 'resp': 'reach'}",10,210,Right,68.34066876635386,38.63939433391726,3.4170334383176932,0.6069461868929676,Right,Correct,0.0,0.0,-45,45,2008,866,-0.73
"{'cat': 'RB', 'resp': 'reach'}",10,211,Left,45.22032910758951,54.08630178253746,2.2610164553794756,0.8495856416993012,Left,Correct,0.0,0.0,-45,45,2004,1996,-2.56
"{'cat': 'RB', 'resp': 'reach'}",10,212,Right,56.20413353040558,24.22880505404809,2.810206676520279,0.38058517981528367,Right,Correct,0.0,0.0,-45,45,2005,916,-0.68
"{'cat': 'RB', 'resp': 'reach'}",10,213,Left,44.502741946044914,27.081248091861855,2.225137097302246,0.4253912502771791,Left,Correct,0.0,0.0,-45,45,2009,4079,-2.46
"{'cat': 'RB', 'resp': 'reach'}",10,214,Right,54.77592768884754,74.51222022244657,2.738796384442377,1.1704352182675146,Right,Correct,0.0,0.0,-45,45,2004,1488,-0.7
"{'cat': 'RB', 'resp': 'reach'}",10,215,Left,40.9958701268722,58.87234356735909,2.04979350634361,0.924764610254148,Left,Correct,0.0,0.0,-45,45,2004,1108,-2.54
"{'cat': 'RB', 'resp': 'reach'}",10,216,Left,48.720420571052834,51.40811457571605,2.436021028552642,0.8075167754298594,Right,Incorrect,0.0,0.0,-45,45,2008,1209,-0.77
"{'cat': 'RB', 'resp': 'reach'}",10,217,Right,65.6951454604183,43.05581027044224,3.284757273020915,0.6763190861998865,Right,Correct,0.0,0.0,-45,45,2004,829,-0.59
"{'cat': 'RB', 'resp': 'reach'}",10,218,Right,61.927322473195844,57.26631839299633,3.096366123659792,0.8995372258078567,Right,Correct,0.0,0.0,-45,45,2004,867,-0.74
"{'cat': 'RB', 'resp': 'reach'}",10,219,Left,46.192588964269696,78.17551691002951,2.3096294482134847,1.227978148075667,Left,Correct,0.0,0.0,-45,45,2004,883,-2.57
"{'cat': 'RB', 'resp': 'reach'}",10,220,Right,58.043659191613614,11.200538062849873,2.902182959580681,0.17593764047251007,Right,Correct,0.0,0.0,-45,45,2004,1142,-0.63
"{'cat': 'RB', 'resp': 'reach'}",10,221,Left,45.70302927682784,30.75240659031504,2.285151463841392,0.48305767312170034,Left,Correct,0.0,0.0,-45,45,2012,1159,-2.55
"{'cat': 'RB', 'resp': 'reach'}",10,222,Left,47.937202123979674,29.5387269445163,2.3968601061989836,0.4639932378264364,Right,Incorrect,0.0,0.0,-45,45,2012,1050,-0.77
"{'cat': 'RB', 'resp': 'reach'}",10,223,Left,48.21107396470717,40.51694425888195,2.4105536982353586,0.6364386721480534,Left,Correct,0.0,0.0,-45,45,2004,1179,-2.51
"{'cat': 'RB', 'resp': 'reach'}",10,224,Left,41.04210270949678,60.14932251884731,2.052105135474839,0.9448233487180692,Left,Correct,0.0,0.0,-45,45,2004,988,-2.5
"{'cat': 'RB', 'resp': 'reach'}",10,225,Left,33.14085878348614,27.200690632424276,1.6570429391743067,0.42726744931696403,Left,Correct,0.0,0.0,-45,45,2004,970,-2.47
"{'cat': 'RB', 'resp': 'reach'}",10,226,Left,37.53676482492696,32.63819715125976,1.876838241246348,0.5126796019840648,Left,Correct,0.0,0.0,-45,45,2008,1892,-2.48
"{'cat': 'RB', 'resp': 'reach'}",10,227,Right,66.21520989649052,22.087488894887265,3.3107604948245264,0.3469494642421198,Right,Correct,0.0,0.0,-45,45,2008,996,-0.7
"{'cat': 'RB', 'resp': 'reach'}",10,228,Left,49.34187651637137,44.687843203266745,2.4670938258185684,0.7019549995607768,Left,Correct,0.0,0.0,-45,45,2004,1079,-2.5
"{'cat': 'RB', 'resp': 'reach'}",10,229,Right,61.62453560926153,12.261639805463297,3.081226780463077,0.19260538766903837,Right,Correct,0.0,0.0,-45,45,2008,904,-0.82
"{'cat': 'RB', 'resp': 'reach'}",10,230,Right,54.16895240811162,80.00677039365564,2.708447620405581,1.2567434105307695,Right,Correct,0.0,0.0,-45,45,2013,1000,-0.64
"{'cat': 'RB', 'resp': 'reach'}",10,231,Right,60.03150671963609,47.070927205021746,3.0015753359818045,0.7393883955247813,Right,Correct,0.0,0.0,-45,45,2008,846,-0.78
"{'cat': 'RB', 'resp': 'reach'}",10,232,Right,60.236336441843,25.636983073868993,3.01181682209215,0.4027047884253635,Right,Correct,0.0,0.0,-45,45,2004,1037,-0.65
"{'cat': 'RB', 'resp': 'reach'}",10,233,Left,45.1973108224268,28.174161613627014,2.25986554112134,0.44255869573211093,Right,Incorrect,0.0,0.0,-45,45,2008,3080,-0.66
"{'cat': 'RB', 'resp': 'reach'}",10,234,Right,64.98406320739565,20.122238791267833,3.2492031603697824,0.3160793878021329,Right,Correct,0.0,0.0,-45,45,2004,937,-0.64
"{'cat': 'RB', 'resp': 'reach'}",10,235,Right,59.96012191688313,48.21327437946344,2.998006095844157,0.7573323429801566,Right,Correct,0.0,0.0,-45,45,2004,938,-0.62
"{'cat': 'RB', 'resp': 'reach'}",10,236,Right,56.34885294896572,36.64966450255487,2.8174426474482863,0.5756915837887849,Right,Correct,0.0,0.0,-45,45,2012,638,-0.64
"{'cat': 'RB', 'resp': 'reach'}",10,237,Left,34.79898370460515,61.73275597205722,1.7399491852302575,0.969695863238332,Left,Correct,0.0,0.0,-45,45,2004,1196,-2.34
"{'cat': 'RB', 'resp': 'reach'}",10,238,Left,48.86773490314072,40.949545513847454,2.4433867451570364,0.6432339567707201,Left,Correct,0.0,0.0,-45,45,2008,1359,-2.56
"{'cat': 'RB', 'resp': 'reach'}",10,239,Right,62.91933053320728,61.959580926999486,3.145966526660364,0.9732588212988194,Right,Correct,0.0,0.0,-45,45,2004,1179,-0.63
"{'cat': 'RB', 'resp': 'reach'}",10,240,Right,65.74489642099573,35.80610580513367,3.287244821049786,0.5624409947553339,Right,Correct,0.0,0.0,-45,45,2008,862,-0.63
"{'cat': 'RB', 'resp': 'reach'}",10,241,Right,57.56726125216218,75.7567651356287,2.8783630626081096,1.1899844840490925,Right,Correct,0.0,0.0,-45,45,2017,1087,-0.65
"{'cat': 'RB', 'resp': 'reach'}",10,242,Left,46.52218823222525,30.39828511906402,2.326109411611262,0.4774951460588973,Left,Correct,0.0,0.0,-45,45,2004,1246,-2.56
"{'cat': 'RB', 'resp': 'reach'}",10,243,Right,56.66697846794651,13.7647439108408,2.8333489233973252,0.2162160917442115,Right,Correct,0.0,0.0,-45,45,2008,983,-0.57
"{'cat': 'RB', 'resp': 'reach'}",10,244,Left,41.093412830565455,50.11512817905204,2.054670641528273,0.7872065926051036,Left,Correct,0.0,0.0,-45,45,2012,959,-2.63
"{'cat': 'RB', 'resp': 'reach'}",10,245,Left,43.054598669157976,40.36245523301203,2.152729933457899,0.6340119642043874,Left,Correct,0.0,0.0,-45,45,2004,3483,-2.56
"{'cat': 'RB', 'resp': 'reach'}",10,246,Left,30.79721545819934,46.34083409220527,1.539860772909967,0.7279201197264775,Left,Correct,0.0,0.0,-45,45,2004,966,-2.63
"{'cat': 'RB', 'resp': 'reach'}",10,247,Left,47.70970874106004,56.05617483376636,2.385485437053002,0.8805283352305273,Right,Incorrect,0.0,0.0,-45,45,2004,1129,-0.7
"{'cat': 'RB', 'resp': 'reach'}",10,248,Right,65.805859911922,51.84735648004092,3.2902929955961,0.8144163711287385,Right,Correct,0.0,0.0,-45,45,2004,1050,-0.73
"{'cat': 'RB', 'resp': 'reach'}",10,249,Left,38.608069040869495,84.53953903074517,1.930403452043475,1.327943973784283,Left,Correct,0.0,0.0,-45,45,2004,1087,-2.5
"{'cat': 'RB', 'resp': 'reach'}",10,250,Left,47.730521068597575,65.62961330323063,2.3865260534298787,1.0309075550568414,Left,Correct,0.0,0.0,-45,45,2008,1159,-2.58
"{'cat': 'RB', 'resp': 'reach'}",10,251,Right,55.99445391972364,58.71628976509351,2.799722695986182,0.9223133228603365,Right,Correct,0.0,0.0,-45,45,2013,1000,-0.63
"{'cat': 'RB', 'resp': 'reach'}",10,252,Right,57.287871516398575,38.219762152261794,2.8643935758199284,0.6003546199974743,Right,Correct,0.0,0.0,-45,45,2009,791,-0.64
"{'cat': 'RB', 'resp': 'reach'}",10,253,Right,55.48382771129437,41.76078780145897,2.774191385564718,0.6559769208259286,Right,Correct,0.0,0.0,-45,45,2008,917,-0.67
"{'cat': 'RB', 'resp': 'reach'}",10,254,Left,44.77665490205561,52.20657925817918,2.2388327451027807,0.820059029332745,Left,Correct,0.0,0.0,-45,45,2004,1392,-2.45
"{'cat': 'RB', 'resp': 'reach'}",10,255,Left,31.850183518879152,67.10592036397577,1.5925091759439576,1.0540973321392397,Left,Correct,0.0,0.0,-45,45,2013,3346,-2.45
"{'cat': 'RB', 'resp': 'reach'}",10,256,Right,59.79030161120432,79.31159700202552,2.989515080560216,1.2458236524301882,Right,Correct,0.0,0.0,-45,45,2008,1159,-0.72
"{'cat': 'RB', 'resp': 'reach'}",10,257,Right,51.48633173676322,52.881380359197266,2.574316586838161,0.8306587802407085,Right,Correct,0.0,0.0,-45,45,2004,888,-0.63
"{'cat': 'RB', 'resp': 'reach'}",10,258,Right,54.47839527401048,78.51040194925865,2.723919763700524,1.2332385099708638,Right,Correct,0.0,0.0,-45,45,2004,929,-0.68
"{'cat': 'RB', 'resp': 'reach'}",10,259,Right,64.30479852549476,15.034872596978282,3.215239926274738,0.23616722649162727,Right,Correct,0.0,0.0,-45,45,2012,1192,-0.68
"{'cat': 'RB', 'resp': 'reach'}",10,260,Right,59.448719047523646,25.18836669212702,2.9724359523761823,0.39565793877956046,Right,Correct,0.0,0.0,-45,45,2004,917,-0.69
"{'cat': 'RB', 'resp': 'reach'}",10,261,Right,55.969787179637365,59.7614766249103,2.7984893589818682,0.9387310796624817,Right,Correct,0.0,0.0,-45,45,2004,746,-0.63
"{'cat': 'RB', 'resp': 'reach'}",10,262,Right,54.9092938173296,34.49240011508138,2.74546469086648,0.541805354031097,Right,Correct,0.0,0.0,-45,45,2008,967,-0.64
"{'cat': 'RB', 'resp': 'reach'}",10,263,Left,43.74190274565198,45.24225957002581,2.187095137282599,0.7106637514849778,Left,Correct,0.0,0.0,-45,45,2012,1142,-2.56
"{'cat': 'RB', 'resp': 'reach'}",10,264,Right,58.34654902851193,84.03965468171694,2.9173274514255967,1.320091808791525,Right,Correct,0.0,0.0,-45,45,2012,858,-0.72
"{'cat': 'RB', 'resp': 'reach'}",10,265,Right,68.5683696777226,67.71736261093515,3.42841848388613,1.0637018444949502,Right,Correct,0.0,0.0,-45,45,2004,867,-0.62
"{'cat': 'RB', 'resp': 'reach'}",10,266,Left,41.82251792605044,80.48706515244591,2.091125896302522,1.2642878629596355,Left,Correct,0.0,0.0,-45,45,2004,1038,-2.59
"{'cat': 'RB', 'resp': 'reach'}",10,267,Right,53.299632729519814,63.711776819569664,2.664981636475991,1.0007822500175627,Right,Correct,0.0,0.0,-45,45,2004,879,-0.7
"{'cat': 'RB', 'resp': 'reach'}",10,268,Right,60.69253554368551,10.052347435042414,3.0346267771842754,0.15790190426630726,Right,Correct,0.0,0.0,-45,45,2004,959,-0.72
"{'cat': 'RB', 'resp': 'reach'}",10,269,Right,64.60615577884379,53.06090287411203,3.2303077889421896,0.8334787133107595,Right,Correct,0.0,0.0,-45,45,2004,762,-0.68
"{'cat': 'RB', 'resp': 'reach'}",10,270,Right,62.28618664748548,80.49030605537675,3.114309332374274,1.2643387709438283,Right,Correct,0.0,0.0,-45,45,2013,900,-0.7
"{'cat': 'RB', 'resp': 'reach'}",10,271,Right,59.799919498268075,20.99589828075228,2.9899959749134037,0.32980279897164966,Right,Correct,0.0,0.0,-45,45,2004,795,-0.71
"{'cat': 'RB', 'resp': 'reach'}",10,272,Left,38.0174861381184,31.659005537622846,1.90087430690592,0.4972984960847726,Left,Correct,0.0,0.0,-45,45,2004,916,-2.56
"{'cat': 'RB', 'resp': 'reach'}",10,273,Left,35.23117210367925,45.72810206816885,1.7615586051839625,0.7182953475998175,Left,Correct,0.0,0.0,-45,45,2004,1062,-2.59
"{'cat': 'RB', 'resp': 'reach'}",10,274,Right,52.474873294450006,55.36757182561834,2.6237436647225003,0.8697117844723391,Left,Incorrect,0.0,0.0,-45,45,2003,1180,-2.55
"{'cat': 'RB', 'resp': 'reach'}",10,275,Left,49.19785732813882,53.689899500984694,2.459892866406941,0.8433589692213391,Left,Correct,0.0,0.0,-45,45,2013,1483,-2.55
"{'cat': 'RB', 'resp': 'reach'}",10,276,Right,55.319234465333295,69.41573873148906,2.7659617232666647,1.0903798742117725,Right,Correct,0.0,0.0,-45,45,2008,1509,-0.59
"{'cat': 'RB', 'resp': 'reach'}",10,277,Left,32.36051115938755,68.67735577608912,1.6180255579693776,1.0787813818706704,Left,Correct,0.0,0.0,-45,45,2004,1058,-2.66
"{'cat': 'RB', 'resp': 'reach'}",10,278,Left,40.73687351236705,23.706052162458224,2.0368436756183526,0.37237379659597586,Left,Correct,0.0,0.0,-45,45,2004,1158,-2.59
"{'cat': 'RB', 'resp': 'reach'}",10,279,Left,43.10989956867125,52.62077860402477,2.1554949784335626,0.826565257442896,Left,Correct,0.0,0.0,-45,45,2017,6345,-2.55
"{'cat': 'RB', 'resp': 'reach'}",10,280,Left,37.277911874977946,47.267038934656206,1.8638955937488972,0.7424689113702931,Left,Correct,0.0,0.0,-45,45,2004,1200,-2.53
"{'cat': 'RB', 'resp': 'reach'}",10,281,Left,34.33978188400926,56.87648195491154,1.716989094200463,0.8934136893579125,Left,Correct,0.0,0.0,-45,45,2004,917,-2.44
"{'cat': 'RB', 'resp': 'reach'}",10,282,Left,42.81454730282437,28.633230648111383,2.1407273651412186,0.4497697352632442,Left,Correct,0.0,0.0,-45,45,2004,1371,-2.5
"{'cat': 'RB', 'resp': 'reach'}",10,283,Right,56.24319353640521,45.07175946113646,2.81215967682026,0.7079855420373627,Right,Correct,0.0,0.0,-45,45,2004,1037,-0.68
"{'cat': 'RB', 'resp': 'reach'}",10,284,Right,62.15466737300898,84.39312151520184,3.107733368650449,1.325644052828344,Right,Correct,0.0,0.0,-45,45,2004,888,-0.74
"{'cat': 'RB', 'resp': 'reach'}",10,285,Left,40.16091326523582,15.802976339764747,2.008045663261791,0.24823257186929126,Left,Correct,0.0,0.0,-45,45,2004,958,-2.37
"{'cat': 'RB', 'resp': 'reach'}",10,286,Left,30.930642495018624,38.860891879226685,1.5465321247509312,0.6104254621986289,Left,Correct,0.0,0.0,-45,45,2005,883,-2.45
"{'cat': 'RB', 'resp': 'reach'}",10,287,Left,35.87951168184732,45.883911564054436,1.793975584092366,0.7207427974379859,Left,Correct,0.0,0.0,-45,45,2013,866,-2.44
"{'cat': 'RB', 'resp': 'reach'}",10,288,Left,39.589047743113646,88.9850790680913,1.9794523871556822,1.3977743533971125,Left,Correct,0.0,0.0,-45,45,2004,1037,-2.45
"{'cat': 'RB', 'resp': 'reach'}",10,289,Right,59.599765919859074,60.26480965508818,2.979988295992954,0.9466374164120612,Right,Correct,0.0,0.0,-45,45,2017,1017,-0.63
"{'cat': 'RB', 'resp': 'reach'}",10,290,Right,63.500489394117935,31.560809953090786,3.175024469705897,0.4957560434498681,Right,Correct,0.0,0.0,-45,45,2008,946,-0.66
"{'cat': 'RB', 'resp': 'reach'}",10,291,Right,54.376948341201945,75.16268887916007,2.7188474170600974,1.1806527560341225,Right,Correct,0.0,0.0,-45,45,2008,2409,-0.64
"{'cat': 'RB', 'resp': 'reach'}",10,292,Right,53.86370134715952,60.52914877614206,2.693185067357976,0.9507896456158574,Right,Correct,0.0,0.0,-45,45,2004,775,-0.7
"{'cat': 'RB', 'resp': 'reach'}",10,293,Right,53.66769616709096,66.44854379504146,2.683384808354548,1.0437712851412093,Right,Correct,0.0,0.0,-45,45,2013,1029,-0.62
"{'cat': 'RB', 'resp': 'reach'}",10,294,Right,62.06140360748484,90.2391734847516,3.103070180374242,1.4174736224285522,Right,Correct,0.0,0.0,-45,45,2004,917,-0.69
"{'cat': 'RB', 'resp': 'reach'}",10,295,Left,43.67681715324842,29.6477294696449,2.183840857662421,0.46570544548727016,Left,Correct,0.0,0.0,-45,45,2008,1125,-2.53
"{'cat': 'RB', 'resp': 'reach'}",10,296,Right,62.887608762573336,24.32358771634541,3.1443804381286666,0.3820740223930884,Right,Correct,0.0,0.0,-45,45,2013,800,-0.78
"{'cat': 'RB', 'resp': 'reach'}",10,297,Left,34.529555680657424,33.472809062688725,1.7264777840328713,0.5257896552317837,Left,Correct,0.0,0.0,-45,45,2004,845,-2.5
"{'cat': 'RB', 'resp': 'reach'}",10,298,Left,34.69437486375849,78.6494979167211,1.7347187431879245,1.2354234243184838,Left,Correct,0.0,0.0,-45,45,2013,900,-2.57
"{'cat': 'RB', 'resp': 'reach'}",10,299,Right,61.465786903114775,54.63688529881432,3.073289345155739,0.8582341873489161,Right,Correct,0.0,0.0,-45,45,2004,1130,-0.96
"{'cat': 'RB', 'resp': 'reach'}",10,300,Left,36.84814282267515,15.173025858891407,1.8424071411337577,0.23833733285510603,Left,Correct,0.0,0.0,-45,45,2004,813,-2.49
"{'cat': 'RB', 'resp': 'reach'}",10,301,Right,53.06845088352564,34.596021147956236,2.653422544176282,0.5434330294092822,Right,Correct,0.0,0.0,-45,45,2009,762,-0.62
"{'cat': 'RB', 'resp': 'reach'}",10,302,Right,60.44200247269012,72.5390440486219,3.0221001236345058,1.1394406394078846,Right,Correct,0.0,0.0,-45,45,2008,988,-0.63
"{'cat': 'RB', 'resp': 'reach'}",10,303,Right,66.63065006361029,22.987528650318662,3.3315325031805143,0.36108725566013,Right,Correct,0.0,0.0,-45,45,2004,1471,-0.75
"{'cat': 'RB', 'resp': 'reach'}",10,304,Left,42.972864186784804,65.83874412839651,2.1486432093392405,1.034192574376743,Left,Correct,0.0,0.0,-45,45,2009,1975,-2.34
"{'cat': 'RB', 'resp': 'reach'}",10,305,Left,35.1942651589897,53.6648934241554,1.7597132579494852,0.8429661746850291,Left,Correct,0.0,0.0,-45,45,2004,833,-2.44
"{'cat': 'RB', 'resp': 'reach'}",10,306,Left,38.31027157278616,58.66570796137161,1.9155135786393078,0.9215187857454463,Left,Correct,0.0,0.0,-45,45,2005,766,-2.48
"{'cat': 'RB', 'resp': 'reach'}",10,307,Left,43.84397774966884,72.62024952302578,2.192198887483442,1.1407162120169771,Left,Correct,0.0,0.0,-45,45,2012,859,-2.48
"{'cat': 'RB', 'resp': 'reach'}",10,308,Right,65.25783148643663,69.08273922219317,3.2628915743218316,1.0851491301515077,Right,Correct,0.0,0.0,-45,45,2005,795,-0.57
"{'cat': 'RB', 'resp': 'reach'}",10,309,Right,61.04246084558196,75.20133232069,3.052123042279098,1.1812597657942219,Right,Correct,0.0,0.0,-45,45,2008,762,-0.62
"{'cat': 'RB', 'resp': 'reach'}",10,310,Left,43.42522844363764,68.15001442703227,2.1712614221818822,1.0704979233300151,Left,Correct,0.0,0.0,-45,45,2013,2850,-2.46
"{'cat': 'RB', 'resp': 'reach'}",10,311,Left,41.064061563709494,72.26612037810254,2.0532030781854744,1.1351535644164128,Left,Correct,0.0,0.0,-45,45,2004,1108,-2.47
"{'cat': 'RB', 'resp': 'reach'}",10,312,Right,62.07815363594247,40.872797545413604,3.1039076817971236,0.6420284025016716,Right,Correct,0.0,0.0,-45,45,2004,846,-0.78
"{'cat': 'RB', 'resp': 'reach'}",10,313,Left,37.858193745392356,83.30067522436926,1.8929096872696178,1.3084839466197389,Left,Correct,0.0,0.0,-45,45,2004,833,-2.5
"{'cat': 'RB', 'resp': 'reach'}",10,314,Right,62.93674312166738,70.8568964909004,3.146837156083369,1.1130175273599254,Right,Correct,0.0,0.0,-45,45,2004,754,-0.65
"{'cat': 'RB', 'resp': 'reach'}",10,315,Left,34.287279413026354,29.766239914051297,1.7143639706513176,0.46756700319487415,Left,Correct,0.0,0.0,-45,45,2008,863,-2.55
"{'cat': 'RB', 'resp': 'reach'}",10,316,Right,64.33151236235096,22.46130697007297,3.216575618117548,0.3528213848360323,Right,Correct,0.0,0.0,-45,45,2012,1001,-0.8
"{'cat': 'RB', 'resp': 'reach'}",10,317,Left,47.70742357740098,49.796078593360185,2.385371178870049,0.7821949734324017,Left,Correct,0.0,0.0,-45,45,2004,1025,-2.59
"{'cat': 'RB', 'resp': 'reach'}",10,318,Right,55.81845901797194,71.03606574246649,2.790922950898597,1.1158319113822714,Right,Correct,0.0,0.0,-45,45,2008,796,-0.75
"{'cat': 'RB', 'resp': 'reach'}",10,319,Left,45.61350110276424,19.7070528080725,2.2806750551382122,0.3095576616287333,Left,Correct,0.0,0.0,-45,45,2008,1037,-2.4
"{'cat': 'RB', 'resp': 'reach'}",10,320,Left,48.317947680517506,63.760950736497946,2.4158973840258753,1.0015546720984132,Left,Correct,0.0,0.0,-45,45,2004,1045,-2.54
"{'cat': 'RB', 'resp': 'reach'}",10,321,Right,53.75976615568121,68.94524101187815,2.6879883077840607,1.0829893133144706,Right,Correct,0.0,0.0,-45,45,2004,1513,-0.73
"{'cat': 'RB', 'resp': 'reach'}",10,322,Left,39.52991315669854,80.76428660806616,1.976495657834927,1.2686424474016058,Left,Correct,0.0,0.0,-45,45,2017,1229,-2.54
"{'cat': 'RB', 'resp': 'reach'}",10,323,Left,43.19468050906292,17.51323854522726,2.159734025453146,0.2750973077712578,Left,Correct,0.0,0.0,-45,45,2004,1125,-2.5
"{'cat': 'RB', 'resp': 'reach'}",10,324,Right,63.21402382003163,68.50153145813898,3.160701191001581,1.0760195399426977,Right,Correct,0.0,0.0,-45,45,2009,754,-0.77
"{'cat': 'RB', 'resp': 'reach'}",10,325,Right,55.67724965419348,35.6851175441657,2.783862482709674,0.560540515596196,Right,Correct,0.0,0.0,-45,45,2008,746,-0.7
"{'cat': 'RB', 'resp': 'reach'}",10,326,Right,69.31301140369621,42.34638195229245,3.4656505701848106,0.6651754122371467,Right,Correct,0.0,0.0,-45,45,2009,725,-0.77
"{'cat': 'RB', 'resp': 'reach'}",10,327,Left,45.11114047196242,31.311421773672155,2.255557023598121,0.4918386630880997,Left,Correct,0.0,0.0,-45,45,2004,996,-2.55
"{'cat': 'RB', 'resp': 'reach'}",10,328,Right,68.23309788202644,57.09979576011485,3.411654894101322,0.8969214944072722,Right,Correct,0.0,0.0,-45,45,2017,695,-0.63
"{'cat': 'RB', 'resp': 'reach'}",10,329,Right,68.56741298820089,36.90383882859561,3.428370649410044,0.5796841447658886,Right,Correct,0.0,0.0,-45,45,2016,1038,-0.63
"{'cat': 'RB', 'resp': 'reach'}",10,330,Left,37.53883287752113,89.4831046493698,1.8769416438760567,1.4055973209343342,Left,Correct,0.0,0.0,-45,45,2004,884,-2.53
"{'cat': 'RB', 'resp': 'reach'}",10,331,Left,38.30999794022907,15.887647926884519,1.9154998970114534,0.24956259004960757,Left,Correct,0.0,0.0,-45,45,2004,1025,-2.61
"{'cat': 'RB', 'resp': 'reach'}",10,332,Left,34.270416095254134,47.235457660791155,1.7135208047627066,0.741972833880466,Left,Correct,0.0,0.0,-45,45,2012,758,-2.56
"{'cat': 'RB', 'resp': 'reach'}",10,333,Right,66.16694899065959,25.75175909140268,3.3083474495329797,0.4045076858928241,Right,Correct,0.0,0.0,-45,45,2004,775,-0.68
"{'cat': 'RB', 'resp': 'reach'}",10,334,Left,31.599792303005845,59.188768184772336,1.5799896151502923,0.9297349965215502,Left,Correct,0.0,0.0,-45,45,2013,966,-2.47
"{'cat': 'RB', 'resp': 'reach'}",10,335,Right,51.19050868315374,65.07642709926458,2.5595254341576865,1.0222181264846064,Right,Correct,0.0,0.0,-45,45,2004,1245,-0.66
"{'cat': 'RB', 'resp': 'reach'}",10,336,Right,62.52339897413129,46.19086823305944,3.126169948706565,0.7255644615195684,Right,Correct,0.0,0.0,-45,45,2016,742,-0.59
"{'cat': 'RB', 'resp': 'reach'}",10,337,Left,40.92447932965592,57.96648798631158,2.046223966482796,0.9105354640609872,Left,Correct,0.0,0.0,-45,45,2017,883,-2.48
"{'cat': 'RB', 'resp': 'reach'}",10,338,Left,36.87941063698377,31.704357330755023,1.8439705318491886,0.4980108803854284,Left,Correct,0.0,0.0,-45,45,2004,904,-2.64
"{'cat': 'RB', 'resp': 'reach'}",10,339,Left,42.24197753389652,89.68858053323909,2.1120988766948257,1.4088249285706023,Left,Correct,0.0,0.0,-45,45,2009,791,-2.57
"{'cat': 'RB', 'resp': 'reach'}",10,340,Right,57.31958735362803,43.633461271007384,2.865979367681401,0.6853928068984577,Right,Correct,0.0,0.0,-45,45,2008,804,-0.61
"{'cat': 'RB', 'resp': 'reach'}",10,341,Left,33.184198406386045,40.91044959144763,1.659209920319302,0.6426198394577372,Left,Correct,0.0,0.0,-45,45,2004,917,-2.48
"{'cat': 'RB', 'resp': 'reach'}",10,342,Left,32.449108189739874,68.48398382292991,1.6224554094869938,1.0757439023333943,Left,Correct,0.0,0.0,-45,45,2004,796,-2.58
"{'cat': 'RB', 'resp': 'reach'}",10,343,Left,45.53328905475249,80.7441614616087,2.2766644527376245,1.2683263223402899,Left,Correct,0.0,0.0,-45,45,2008,1179,-2.56
"{'cat': 'RB', 'resp': 'reach'}",10,344,Left,33.752217761131455,59.06255775741758,1.6876108880565726,0.9277524877646296,Left,Correct,0.0,0.0,-45,45,2013,950,-2.54
"{'cat': 'RB', 'resp': 'reach'}",10,345,Right,60.08491352318002,57.74942064883642,3.0042456761590013,0.9071257782972562,Right,Correct,0.0,0.0,-45,45,2004,846,-0.65
"{'cat': 'RB', 'resp': 'reach'}",10,346,Right,58.53963272453415,66.61984440105344,2.9269816362267074,1.0464620687682231,Right,Correct,0.0,0.0,-45,45,2004,925,-0.63
"{'cat': 'RB', 'resp': 'reach'}",10,347,Left,45.81377379198997,21.09154035869254,2.2906886895994987,0.33130514121880555,Left,Correct,0.0,0.0,-45,45,2004,916,-2.61
"{'cat': 'RB', 'resp': 'reach'}",10,348,Left,37.49475747235192,33.879189741874825,1.8747378736175961,0.5321730680132432,Left,Correct,0.0,0.0,-45,45,2004,779,-2.54
"{'cat': 'RB', 'resp': 'reach'}",10,349,Left,31.64521972506546,56.73356830992245,1.582260986253273,0.8911688070719354,Left,Correct,0.0,0.0,-45,45,2004,888,-2.6
"{'cat': 'RB', 'resp': 'reach'}",10,350,Left,35.04420519742158,66.58878968220881,1.7522102598710791,1.045974262385315,Left,Correct,0.0,0.0,-45,45,2004,950,-2.62
"{'cat': 'RB', 'resp': 'reach'}",10,351,Left,45.651565231357765,18.442731548132194,2.2825782615678882,0.28969774971870405,Left,Correct,0.0,0.0,-45,45,2009,1416,-2.45
"{'cat': 'RB', 'resp': 'reach'}",10,352,Left,39.660284783294955,71.41753353466949,1.9830142391647478,1.1218239934501018,Left,Correct,0.0,0.0,-45,45,2008,1038,-2.52
"{'cat': 'RB', 'resp': 'reach'}",10,353,Right,63.8723607343162,79.1978221478051,3.1936180367158102,1.2440364811992775,Right,Correct,0.0,0.0,-45,45,2004,1025,-0.67
"{'cat': 'RB', 'resp': 'reach'}",10,354,Right,64.98882780475263,15.572167207268137,3.2494413902376316,0.24460703049412735,Right,Correct,0.0,0.0,-45,45,2005,766,-0.7
"{'cat': 'RB', 'resp': 'reach'}",10,355,Right,59.33910204467123,65.2298601234628,2.9669551022335616,1.0246282467928025,Right,Correct,0.0,0.0,-45,45,2012,1092,-0.73
"{'cat': 'RB', 'resp': 'reach'}",10,356,Left,40.54816566976014,22.175132234444764,2.0274082834880067,0.3483261626005695,Left,Correct,0.0,0.0,-45,45,2004,879,-2.47
"{'cat': 'RB', 'resp': 'reach'}",10,357,Left,45.7544143995776,29.928758002883825,2.28772071997888,0.47011983136463276,Left,Correct,0.0,0.0,-45,45,2004,846,-2.48
"{'cat': 'RB', 'resp': 'reach'}",10,358,Left,46.31693282552846,25.213957249819515,2.315846641276423,0.3960599143198005,Left,Correct,0.0,0.0,-45,45,2012,1192,-2.55
"{'cat': 'RB', 'resp': 'reach'}",10,359,Right,61.548486860337825,46.95942750257714,3.077424343016891,0.7376369622943942,Right,Correct,0.0,0.0,-45,45,2004,767,-0.63
"{'cat': 'RB', 'resp': 'reach'}",10,360,Right,54.60119202230863,38.79345408562094,2.730059601115432,0.6093661518137984,Left,Incorrect,0.0,0.0,-45,45,2005,850,-2.53
"{'cat': 'RB', 'resp': 'reach'}",10,361,Right,63.01559537676378,49.5352376518489,3.150779768838189,0.7780976935043651,Right,Correct,0.0,0.0,-45,45,2013,829,-0.71
"{'cat': 'RB', 'resp': 'reach'}",10,362,Left,36.44421500611824,29.87135590467021,1.8222107503059122,0.46921816131439015,Left,Correct,0.0,0.0,-45,45,2004,834,-2.49
"{'cat': 'RB', 'resp': 'reach'}",10,363,Right,64.51570615553905,45.10761016696921,3.225785307776953,0.7085486836077135,Right,Correct,0.0,0.0,-45,45,2004,745,-0.63
"{'cat': 'RB', 'resp': 'reach'}",10,364,Right,66.05529999433662,40.90549743902837,3.302764999716831,0.6425420512294381,Right,Correct,0.0,0.0,-45,45,2009,683,-0.6
"{'cat': 'RB', 'resp': 'reach'}",10,365,Left,42.91039942526518,22.74672851380298,2.1455199712632593,0.3573047759608246,Left,Correct,0.0,0.0,-45,45,2004,875,-2.58
"{'cat': 'RB', 'resp': 'reach'}",10,366,Right,66.22423953919572,51.54679520483692,3.311211976959786,0.8096951656580662,Right,Correct,0.0,0.0,-45,45,2004,717,-0.63
"{'cat': 'RB', 'resp': 'reach'}",10,367,Right,63.40178292234569,86.83067770987067,3.170089146117284,1.3639330959977636,Right,Correct,0.0,0.0,-45,45,2005,695,-0.65
"{'cat': 'RB', 'resp': 'reach'}",10,368,Right,53.215935179938604,56.38527907425399,2.66079675899693,0.885697892551433,Right,Correct,0.0,0.0,-45,45,2004,1663,-0.58
"{'cat': 'RB', 'resp': 'reach'}",10,369,Right,60.843633057890344,20.595198691762548,3.042181652894517,0.3235086245463166,Right,Correct,0.0,0.0,-45,45,2008,1004,-0.69
"{'cat': 'RB', 'resp': 'reach'}",10,370,Left,32.937183692927576,75.44428651382356,1.646859184646379,1.1850760813357581,Left,Correct,0.0,0.0,-45,45,2004,867,-2.48
"{'cat': 'RB', 'resp': 'reach'}",10,371,Right,54.501593196349745,70.88533358688312,2.7250796598174873,1.113464216219069,Right,Correct,0.0,0.0,-45,45,2004,987,-0.73
"{'cat': 'RB', 'resp': 'reach'}",10,372,Right,53.776417412187435,54.162041601222185,2.688820870609372,0.8507753599891218,Right,Correct,0.0,0.0,-45,45,2012,759,-0.64
"{'cat': 'RB', 'resp': 'reach'}",10,373,Right,66.29468622443954,20.81904789421015,3.314734311221977,0.3270248395959233,Right,Correct,0.0,0.0,-45,45,2004,605,-0.62
"{'cat': 'RB', 'resp': 'reach'}",10,374,Left,34.06135433808601,33.55877609765495,1.7030677169043005,0.5271400222592877,Left,Correct,0.0,0.0,-45,45,2008,967,-2.59
"{'cat': 'RB', 'resp': 'reach'}",10,375,Left,42.23628683795552,37.89508813665953,2.1118143418977757,0.5952546524863365,Left,Correct,0.0,0.0,-45,45,2012,2650,-2.68
"{'cat': 'RB', 'resp': 'reach'}",10,376,Right,58.4095526370413,50.206935673608534,2.9204776318520653,0.7886487013573193,Right,Correct,0.0,0.0,-45,45,2008,917,-0.74
"{'cat': 'RB', 'resp': 'reach'}",10,377,Left,43.614799876686796,68.12269631080584,2.1807399938343397,1.0700688113637806,Left,Correct,0.0,0.0,-45,45,2009,816,-2.5
"{'cat': 'RB', 'resp': 'reach'}",10,378,Left,45.459359625214724,69.76191670934199,2.272967981260736,1.0958176251720593,Left,Correct,0.0,0.0,-45,45,2008,763,-2.56
"{'cat': 'RB', 'resp': 'reach'}",10,379,Right,62.68602875902917,74.57333910613576,3.1343014379514584,1.1713952714474825,Right,Correct,0.0,0.0,-45,45,2013,779,-0.65
"{'cat': 'RB', 'resp': 'reach'}",10,380,Left,37.656670229361694,30.700999773351388,1.8828335114680845,0.4822501767291131,Left,Correct,0.0,0.0,-45,45,2017,1417,-2.48
"{'cat': 'RB', 'resp': 'reach'}",10,381,Left,41.15758302933696,52.9432504317731,2.057879151466848,0.8316306330681151,Left,Correct,0.0,0.0,-45,45,2012,1109,-2.58
"{'cat': 'RB', 'resp': 'reach'}",10,382,Left,39.187583433845745,51.412975909772975,1.9593791716922875,0.8075931370866589,Left,Correct,0.0,0.0,-45,45,2004,775,-2.5
"{'cat': 'RB', 'resp': 'reach'}",10,383,Left,48.206407446529454,51.03731332686275,2.410320372326473,0.8016922430331623,Left,Correct,0.0,0.0,-45,45,2012,1363,-2.51
"{'cat': 'RB', 'resp': 'reach'}",10,384,Right,63.39326454071928,35.81310441856236,3.169663227035964,0.5625509287179984,Right,Correct,0.0,0.0,-45,45,2012,888,-0.62
"{'cat': 'RB', 'resp': 'reach'}",10,385,Left,38.16572471366093,20.144611393470097,1.9082862356830463,0.3164308158157345,Left,Correct,0.0,0.0,-45,45,2013,1000,-2.56
"{'cat': 'RB', 'resp': 'reach'}",10,386,Right,53.554576508672646,71.3735131790699,2.677728825433632,1.1211325233213014,Right,Correct,0.0,0.0,-45,45,2005,929,-0.62
"{'cat': 'RB', 'resp': 'reach'}",10,387,Left,40.96601085920961,42.70103570531287,2.0483005429604804,0.6707463003624319,Left,Correct,0.0,0.0,-45,45,2012,950,-2.46
"{'cat': 'RB', 'resp': 'reach'}",10,388,Left,43.522626044620395,85.51647321324091,2.1761313022310196,1.3432896200381301,Left,Correct,0.0,0.0,-45,45,2004,867,-2.48
"{'cat': 'RB', 'resp': 'reach'}",10,389,Left,43.248637277234515,11.883169133204163,2.1624318638617255,0.18666038425119594,Left,Correct,0.0,0.0,-45,45,2008,1400,-2.49
"{'cat': 'RB', 'resp': 'reach'}",10,390,Left,39.02697656605829,16.28482204297145,1.9513488283029146,0.2558013864760811,Left,Correct,0.0,0.0,-45,45,2004,967,-2.48
"{'cat': 'RB', 'resp': 'reach'}",10,391,Left,36.62686766663995,55.24011453118655,1.8313433833319976,0.8677096899731721,Left,Correct,0.0,0.0,-45,45,2008,1088,-2.38
"{'cat': 'RB', 'resp': 'reach'}",10,392,Left,37.473110722070764,54.54083828086497,1.8736555361035383,0.8567254843189717,Left,Correct,0.0,0.0,-45,45,2013,900,-2.61
"{'cat': 'RB', 'resp': 'reach'}",10,393,Left,38.35294582179143,80.54644944911482,1.9176472910895714,1.265220669310404,Left,Correct,0.0,0.0,-45,45,2013,829,-2.44
"{'cat': 'RB', 'resp': 'reach'}",10,394,Right,55.24604776158732,64.52051770724293,2.762302388079366,1.0134859221744228,Right,Correct,0.0,0.0,-45,45,2004,775,-0.78
"{'cat': 'RB', 'resp': 'reach'}",10,395,Right,61.868258984275904,67.26629788524095,3.0934129492137954,1.056616536352278,Right,Correct,0.0,0.0,-45,45,2004,725,-0.62
"{'cat': 'RB', 'resp': 'reach'}",10,396,Right,62.63001402479275,31.2351758668384,3.1315007012396374,0.4906409951842236,Right,Correct,0.0,0.0,-45,45,2008,725,-0.67
"{'cat': 'RB', 'resp': 'reach'}",10,397,Right,53.765212863272204,59.700453952103,2.68826064316361,0.9377725377595125,Right,Correct,0.0,0.0,-45,45,2008,813,-0.62
"{'cat': 'RB', 'resp': 'reach'}",10,398,Left,41.2569222341333,66.54850077713162,2.0628461117066648,1.0453414057442567,Left,Correct,0.0,0.0,-45,45,2012,1142,-2.52
"{'cat': 'RB', 'resp': 'reach'}",10,399,Left,40.16838457478654,73.11258808061007,2.0084192287393274,1.1484498479949063,Left,Correct,0.0,0.0,-45,45,2009,9253,-2.36
