condition,subject,trial,cat,x,y,xt,yt,resp,fb,rotation,su,target_angle_left,target_angle_right,rt,mt,ep
"{'cat': 'II', 'resp': 'button'}",11,0,Left,28.96836522923072,57.05489308182636,1.4484182614615362,0.896216164786084,Right,Incorrect,0.0,0.0,-45,45,7684,-1,-1
"{'cat': 'II', 'resp': 'button'}",11,1,Right,57.35714814128659,25.00851660943946,2.8678574070643292,0.3928328602869667,Left,Incorrect,0.0,0.0,-45,45,10738,-1,-1
"{'cat': 'II', 'resp': 'button'}",11,2,Right,75.67796686817586,53.652045037831726,3.783898343408793,0.8427643527046043,Left,Incorrect,0.0,0.0,-45,45,3230,-1,-1
"{'cat': 'II', 'resp': 'button'}",11,3,Right,65.78190771568674,40.24485152037774,3.2890953857843375,0.6321646494061537,Right,Correct,0.0,0.0,-45,45,2759,-1,-1
"{'cat': 'II', 'resp': 'button'}",11,4,Left,31.605594086918614,41.89754467619663,1.5802797043459307,0.6581250927909474,Left,Correct,0.0,0.0,-45,45,4294,-1,-1
"{'cat': 'II', 'resp': 'button'}",11,5,Right,49.835248479464134,32.08684943584051,2.491762423973207,0.5040190523223917,Left,Incorrect,0.0,0.0,-45,45,4948,-1,-1
"{'cat': 'II', 'resp': 'button'}",11,6,Left,22.20323379150284,53.30512678550148,1.110161689575142,0.8373149735400196,Right,Incorrect,0.0,0.0,-45,45,4596,-1,-1
"{'cat': 'II', 'resp': 'button'}",11,7,Right,59.01478454816764,41.594707247997846,2.9507392274083823,0.6533681335926407,Left,Incorrect,0.0,0.0,-45,45,5121,-1,-1
"{'cat': 'II', 'resp': 'button'}",11,8,Right,79.2556819395524,63.33282625554106,3.9627840969776202,0.9948297084774329,Right,Correct,0.0,0.0,-45,45,5469,-1,-1
"{'cat': 'II', 'resp': 'button'}",11,9,Right,42.38063153381022,24.346773113036782,2.119031576690511,0.38243821775266923,Left,Incorrect,0.0,0.0,-45,45,3248,-1,-1
"{'cat': 'II', 'resp': 'button'}",11,10,Left,22.101247548922945,42.031132670707265,1.1050623774461472,0.6602234881017595,Right,Incorrect,0.0,0.0,-45,45,2014,-1,-1
"{'cat': 'II', 'resp': 'button'}",11,11,Left,21.366977937529793,33.38565592504261,1.0683488968764896,0.5244206569469521,Left,Correct,0.0,0.0,-45,45,2947,-1,-1
"{'cat': 'II', 'resp': 'button'}",11,12,Left,31.217470597755064,58.04846940094136,1.5608735298877532,0.9118232251106463,Right,Incorrect,0.0,0.0,-45,45,2758,-1,-1
"{'cat': 'II', 'resp': 'button'}",11,13,Right,51.290170489917045,29.293930838397404,2.564508524495852,0.4601479895833839,Right,Correct,0.0,0.0,-45,45,2151,-1,-1
"{'cat': 'II', 'resp': 'button'}",11,14,Left,20.1516902304015,34.723388444662675,1.007584511520075,0.5454337102274849,Left,Correct,0.0,0.0,-45,45,2692,-1,-1
"{'cat': 'II', 'resp': 'button'}",11,15,Left,28.044689056522074,48.27083468574834,1.402234452826104,0.7582364981569717,Left,Correct,0.0,0.0,-45,45,2900,-1,-1
"{'cat': 'II', 'resp': 'button'}",11,16,Right,87.57665091941408,67.42471512645199,4.378832545970704,1.0591049485582307,Right,Correct,0.0,0.0,-45,45,1751,-1,-1
"{'cat': 'II', 'resp': 'button'}",11,17,Left,32.69204197344977,52.976201462886834,1.6346020986724883,0.8321482266544906,Right,Incorrect,0.0,0.0,-45,45,3851,-1,-1
"{'cat': 'II', 'resp': 'button'}",11,18,Left,62.03552806137326,76.00251004208906,3.101776403068663,1.1938446360130572,Right,Incorrect,0.0,0.0,-45,45,1594,-1,-1
"{'cat': 'II', 'resp': 'button'}",11,19,Left,60.53593202630253,71.1552431531217,3.0267966013151266,1.1177039457712128,Right,Incorrect,0.0,0.0,-45,45,1813,-1,-1
"{'cat': 'II', 'resp': 'button'}",11,20,Right,55.0694722055414,41.775049943245165,2.75347361027707,0.6562009500252286,Left,Incorrect,0.0,0.0,-45,45,1250,-1,-1
"{'cat': 'II', 'resp': 'button'}",11,21,Right,55.676504129755536,24.345202737243717,2.783825206487777,0.38241355034739494,Left,Incorrect,0.0,0.0,-45,45,1722,-1,-1
"{'cat': 'II', 'resp': 'button'}",11,22,Left,53.55964830158037,79.89703835552709,2.6779824150790184,1.255019743706529,Right,Incorrect,0.0,0.0,-45,45,2638,-1,-1
"{'cat': 'II', 'resp': 'button'}",11,23,Right,70.0138667827466,48.82435914311726,3.5006933391373303,0.7669312400012341,Right,Correct,0.0,0.0,-45,45,5000,-1,-1
"{'cat': 'II', 'resp': 'button'}",11,24,Right,49.804369397871916,33.30519960669523,2.4902184698935956,0.523156852053677,Left,Incorrect,0.0,0.0,-45,45,2542,-1,-1
"{'cat': 'II', 'resp': 'button'}",11,25,Right,55.72527667600312,32.506281595751915,2.7862638338001555,0.5106074772836765,Right,Correct,0.0,0.0,-45,45,1938,-1,-1
"{'cat': 'II', 'resp': 'button'}",11,26,Left,11.219352882116308,31.685563017697998,0.5609676441058155,0.4977156600062823,Right,Incorrect,0.0,0.0,-45,45,3667,-1,-1
"{'cat': 'II', 'resp': 'button'}",11,27,Left,63.980946303826144,78.61828228671142,3.1990473151913075,1.2349330903489057,Right,Incorrect,0.0,0.0,-45,45,3442,-1,-1
"{'cat': 'II', 'resp': 'button'}",11,28,Left,50.15971411651164,63.645041362884726,2.5079857058255817,0.9997339719152859,Left,Correct,0.0,0.0,-45,45,2265,-1,-1
"{'cat': 'II', 'resp': 'button'}",11,29,Left,37.603287535168626,66.26437176005874,1.8801643767584313,1.0408783175807175,Left,Correct,0.0,0.0,-45,45,5173,-1,-1
"{'cat': 'II', 'resp': 'button'}",11,30,Right,46.585298316905714,31.72748457813324,2.3292649158452856,0.4983741623377342,Right,Correct,0.0,0.0,-45,45,2222,-1,-1
"{'cat': 'II', 'resp': 'button'}",11,31,Right,67.42443172799787,40.16087451451954,3.3712215863998938,0.6308455416827807,Right,Correct,0.0,0.0,-45,45,2065,-1,-1
"{'cat': 'II', 'resp': 'button'}",11,32,Right,80.79678354260996,58.836561425586126,4.039839177130498,0.9242025456855298,Left,Incorrect,0.0,0.0,-45,45,1746,-1,-1
"{'cat': 'II', 'resp': 'button'}",11,33,Right,55.76949023628582,41.61298683498279,2.7884745118142913,0.6536552686735535,Left,Incorrect,0.0,0.0,-45,45,1992,-1,-1
"{'cat': 'II', 'resp': 'button'}",11,34,Left,27.99102906064319,40.18857719363082,1.3995514530321593,0.6312806943486844,Right,Incorrect,0.0,0.0,-45,45,1460,-1,-1
"{'cat': 'II', 'resp': 'button'}",11,35,Left,39.09292896046466,47.36796385078231,1.954646448023233,0.744054236245623,Left,Correct,0.0,0.0,-45,45,1049,-1,-1
"{'cat': 'II', 'resp': 'button'}",11,36,Right,53.953949519641114,46.35822269153565,2.697697475982056,0.7281932592060403,Left,Incorrect,0.0,0.0,-45,45,1540,-1,-1
"{'cat': 'II', 'resp': 'button'}",11,37,Left,60.71589195990345,77.81499632354922,3.0357945979951726,1.222315103945895,Right,Incorrect,0.0,0.0,-45,45,1455,-1,-1
"{'cat': 'II', 'resp': 'button'}",11,38,Left,35.822164463220425,47.5339243219737,1.7911082231610211,0.7466611372310287,Left,Correct,0.0,0.0,-45,45,2679,-1,-1
"{'cat': 'II', 'resp': 'button'}",11,39,Right,41.16404522279824,25.76165416490034,2.0582022611399116,0.40466311734385896,Left,Incorrect,0.0,0.0,-45,45,2519,-1,-1
"{'cat': 'II', 'resp': 'button'}",11,40,Left,31.029553309262084,58.98460240606802,1.5514776654631044,0.9265279679690905,107,Incorrect,0.0,0.0,-45,45,2200,-1,-1
"{'cat': 'II', 'resp': 'button'}",11,41,Right,84.48952111413146,61.66851665802428,4.224476055706573,0.9686867944531443,Left,Incorrect,0.0,0.0,-45,45,1659,-1,-1
"{'cat': 'II', 'resp': 'button'}",11,42,Left,68.31781222251999,86.78369666825988,3.4158906111259997,1.3631951195218512,Right,Incorrect,0.0,0.0,-45,45,1186,-1,-1
"{'cat': 'II', 'resp': 'button'}",11,43,Right,57.635808481406585,30.090001882332118,2.881790424070329,0.4726526443001881,Right,Correct,0.0,0.0,-45,45,1297,-1,-1
"{'cat': 'II', 'resp': 'button'}",11,44,Left,63.577436684777055,80.69946931821104,3.178871834238853,1.2676242997934337,Left,Correct,0.0,0.0,-45,45,1637,-1,-1
"{'cat': 'II', 'resp': 'button'}",11,45,Right,52.492705374051866,22.347061481531934,2.624635268702593,0.35102682089850085,Right,Correct,0.0,0.0,-45,45,2416,-1,-1
"{'cat': 'II', 'resp': 'button'}",11,46,Right,84.44101892352154,56.26895026806301,4.222050946176077,0.883870603936781,Left,Incorrect,0.0,0.0,-45,45,2010,-1,-1
"{'cat': 'II', 'resp': 'button'}",11,47,Right,39.84716627019587,15.273219648683359,1.9923583135097938,0.2399111732248346,Left,Incorrect,0.0,0.0,-45,45,1786,-1,-1
"{'cat': 'II', 'resp': 'button'}",11,48,Left,51.37544087056517,63.72972940482116,2.5687720435282584,1.0010642485672578,Right,Incorrect,0.0,0.0,-45,45,1937,-1,-1
"{'cat': 'II', 'resp': 'button'}",11,49,Right,53.877491664489476,38.2549862700949,2.693874583224474,0.6009079191465427,Left,Incorrect,0.0,0.0,-45,45,1253,-1,-1
"{'cat': 'II', 'resp': 'button'}",11,50,Left,29.180769194452836,39.623714390022336,1.4590384597226418,0.6224078501781717,Left,Correct,0.0,0.0,-45,45,644,-1,-1
"{'cat': 'II', 'resp': 'button'}",11,51,Right,77.85985568662876,49.59260971770287,3.892992784331438,0.7789988918074056,Right,Correct,0.0,0.0,-45,45,741,-1,-1
"{'cat': 'II', 'resp': 'button'}",11,52,Left,24.25527700902927,55.234574776081104,1.2127638504514635,0.8676226717034623,Left,Correct,0.0,0.0,-45,45,928,-1,-1
"{'cat': 'II', 'resp': 'button'}",11,53,Right,82.95467949555706,56.99213114275234,4.147733974777853,0.895230302552484,Right,Correct,0.0,0.0,-45,45,746,-1,-1
"{'cat': 'II', 'resp': 'button'}",11,54,Left,45.192904268402266,76.48518718934766,2.259645213420113,1.2014265109124738,Left,Correct,0.0,0.0,-45,45,638,-1,-1
"{'cat': 'II', 'resp': 'button'}",11,55,Right,66.85572354393476,57.00755422294269,3.3427861771967375,0.8954725677295927,Right,Correct,0.0,0.0,-45,45,468,-1,-1
"{'cat': 'II', 'resp': 'button'}",11,56,Right,71.15837624810848,57.51651740335776,3.557918812405424,0.9034673426722912,Left,Incorrect,0.0,0.0,-45,45,565,-1,-1
"{'cat': 'II', 'resp': 'button'}",11,57,Left,62.491307680974565,72.1715398943837,3.1245653840487284,1.1336678976522925,Left,Correct,0.0,0.0,-45,45,1000,-1,-1
"{'cat': 'II', 'resp': 'button'}",11,58,Right,40.30754604911907,19.223698183787448,2.0153773024559536,0.3019651449450705,Left,Incorrect,0.0,0.0,-45,45,1144,-1,-1
"{'cat': 'II', 'resp': 'button'}",11,59,Right,43.30806031715558,24.124405176019238,2.165403015857779,0.3789452703660281,Right,Correct,0.0,0.0,-45,45,528,-1,-1
"{'cat': 'II', 'resp': 'button'}",11,60,Left,38.14448047878088,55.27761976523364,1.9072240239390439,0.8682988208119399,Right,Incorrect,0.0,0.0,-45,45,887,-1,-1
"{'cat': 'II', 'resp': 'button'}",11,61,Right,35.99066025586025,13.528092222164222,1.7995330127930123,0.2124987757111817,Right,Correct,0.0,0.0,-45,45,1086,-1,-1
"{'cat': 'II', 'resp': 'button'}",11,62,Left,54.34727894866997,72.97445891429507,2.717363947433498,1.1462801201241979,Left,Correct,0.0,0.0,-45,45,1142,-1,-1
"{'cat': 'II', 'resp': 'button'}",11,63,Right,65.08257049226359,38.47425033243181,3.2541285246131793,0.604352110983712,Right,Correct,0.0,0.0,-45,45,3863,-1,-1
"{'cat': 'II', 'resp': 'button'}",11,64,Right,40.66461392047482,14.393197262675077,2.0332306960237414,0.2260878139104437,Left,Incorrect,0.0,0.0,-45,45,1593,-1,-1
"{'cat': 'II', 'resp': 'button'}",11,65,Left,44.81434993780266,62.53231857045543,2.240717496890133,0.9822553631643969,Right,Incorrect,0.0,0.0,-45,45,2147,-1,-1
"{'cat': 'II', 'resp': 'button'}",11,66,Left,19.656025533332155,45.474585807366616,0.9828012766666078,0.7143131234873081,Left,Correct,0.0,0.0,-45,45,1447,-1,-1
"{'cat': 'II', 'resp': 'button'}",11,67,Left,11.094308513676467,32.81884655647024,0.5547154256838234,0.515517236205488,Left,Correct,0.0,0.0,-45,45,886,-1,-1
"{'cat': 'II', 'resp': 'button'}",11,68,Right,83.59958080386258,58.04906471869778,4.179979040193129,0.9118325763400971,Left,Incorrect,0.0,0.0,-45,45,1736,-1,-1
"{'cat': 'II', 'resp': 'button'}",11,69,Left,30.27412687520471,54.47567880716604,1.5137063437602356,0.85570196169955,Right,Incorrect,0.0,0.0,-45,45,1030,-1,-1
"{'cat': 'II', 'resp': 'button'}",11,70,Left,33.127386359787394,44.41175031544388,1.65636931798937,0.6976181426203134,Left,Correct,0.0,0.0,-45,45,659,-1,-1
"{'cat': 'II', 'resp': 'button'}",11,71,Left,60.370016647863736,87.5618989261867,3.018500832393187,1.3754190920044005,Left,Correct,0.0,0.0,-45,45,1123,-1,-1
"{'cat': 'II', 'resp': 'button'}",11,72,Right,49.50939207754616,27.983729854487315,2.475469603877308,0.43956740065449357,Left,Incorrect,0.0,0.0,-45,45,2088,-1,-1
"{'cat': 'II', 'resp': 'button'}",11,73,Right,55.865049831076846,34.36090457449241,2.793252491553842,0.5397398269096263,Right,Correct,0.0,0.0,-45,45,935,-1,-1
"{'cat': 'II', 'resp': 'button'}",11,74,Right,44.8516155396205,17.27013373050668,2.2425807769810246,0.2712786262713654,Right,Correct,0.0,0.0,-45,45,1550,-1,-1
"{'cat': 'II', 'resp': 'button'}",11,75,Right,69.51473798036538,37.312326657442945,3.475736899018269,0.5861006565768268,Right,Correct,0.0,0.0,-45,45,1654,-1,-1
"{'cat': 'II', 'resp': 'button'}",11,76,Right,58.63304774801914,37.63189882082293,2.931652387400957,0.5911204843806586,Right,Correct,0.0,0.0,-45,45,931,-1,-1
"{'cat': 'II', 'resp': 'button'}",11,77,Right,53.02280889890699,35.415006605016174,2.6511404449453493,0.556297622885764,Left,Incorrect,0.0,0.0,-45,45,519,-1,-1
"{'cat': 'II', 'resp': 'button'}",11,78,Left,27.488736909801027,39.58499222471403,1.3744368454900513,0.6217996038278534,Left,Correct,0.0,0.0,-45,45,816,-1,-1
"{'cat': 'II', 'resp': 'button'}",11,79,Right,47.82869222364924,27.470307286116334,2.391434611182462,0.43150257780958623,Left,Incorrect,0.0,0.0,-45,45,1166,-1,-1
"{'cat': 'II', 'resp': 'button'}",11,80,Right,39.29426026876902,25.139111536771196,1.9647130134384512,0.39488424060847394,Left,Incorrect,0.0,0.0,-45,45,815,-1,-1
"{'cat': 'II', 'resp': 'button'}",11,81,Left,36.499999006414974,69.49248569590063,1.8249999503207488,1.0915854127096758,Right,Incorrect,0.0,0.0,-45,45,362,-1,-1
"{'cat': 'II', 'resp': 'button'}",11,82,Right,59.97307111165524,32.355078482876905,2.9986535555827616,0.5082323843406363,Left,Incorrect,0.0,0.0,-45,45,547,-1,-1
"{'cat': 'II', 'resp': 'button'}",11,83,Left,40.898796689537285,68.95437695329271,2.0449398344768643,1.0831328203466286,Left,Correct,0.0,0.0,-45,45,792,-1,-1
"{'cat': 'II', 'resp': 'button'}",11,84,Left,43.36677180129827,62.77789711778205,2.1683385900649137,0.9861129019651996,Right,Incorrect,0.0,0.0,-45,45,830,-1,-1
"{'cat': 'II', 'resp': 'button'}",11,85,Left,31.784992493175174,51.768094796869974,1.5892496246587586,0.8131713315209335,Left,Correct,0.0,0.0,-45,45,2147,-1,-1
"{'cat': 'II', 'resp': 'button'}",11,86,Left,16.702794975229178,43.25753181478865,0.8351397487614589,0.679487720808834,Right,Incorrect,0.0,0.0,-45,45,1082,-1,-1
"{'cat': 'II', 'resp': 'button'}",11,87,Right,47.796695388763126,19.201791261571483,2.3898347694381563,0.3016210318155883,Left,Incorrect,0.0,0.0,-45,45,1370,-1,-1
"{'cat': 'II', 'resp': 'button'}",11,88,Right,74.63700399487892,61.507216492522005,3.731850199743946,0.9661530973783203,Left,Incorrect,0.0,0.0,-45,45,829,-1,-1
"{'cat': 'II', 'resp': 'button'}",11,89,Left,41.48398012782591,69.09399450381495,2.074199006391295,1.085325927701793,Right,Incorrect,0.0,0.0,-45,45,984,-1,-1
"{'cat': 'II', 'resp': 'button'}",11,90,Right,76.00087654938801,50.791213670873574,3.8000438274694006,0.7978265186766295,Right,Correct,0.0,0.0,-45,45,378,-1,-1
"{'cat': 'II', 'resp': 'button'}",11,91,Right,51.51380223949991,43.65018857042005,2.5756901119749953,0.6856555587032039,Right,Correct,0.0,0.0,-45,45,720,-1,-1
"{'cat': 'II', 'resp': 'button'}",11,92,Right,58.82703618223019,41.25818523662667,2.9413518091115094,0.648082058199166,Right,Correct,0.0,0.0,-45,45,892,-1,-1
"{'cat': 'II', 'resp': 'button'}",11,93,Left,46.20618880944259,64.0776789981412,2.310309440472129,1.0065298279982267,Right,Incorrect,0.0,0.0,-45,45,1194,-1,-1
"{'cat': 'II', 'resp': 'button'}",11,94,Left,27.955324490626438,60.86133049655944,1.3977662245313218,0.9560075438784578,Left,Correct,0.0,0.0,-45,45,1271,-1,-1
"{'cat': 'II', 'resp': 'button'}",11,95,Left,51.40337436635727,71.81456132521593,2.5701687183178636,1.1280604914003605,Right,Incorrect,0.0,0.0,-45,45,1447,-1,-1
"{'cat': 'II', 'resp': 'button'}",11,96,Left,51.96133601681748,71.41386073165172,2.598066800840874,1.1217663011952084,Left,Correct,0.0,0.0,-45,45,1609,-1,-1
"{'cat': 'II', 'resp': 'button'}",11,97,Right,38.305646502058394,23.14152937793126,1.9152823251029196,0.3635062934327061,Right,Correct,0.0,0.0,-45,45,1283,-1,-1
"{'cat': 'II', 'resp': 'button'}",11,98,Right,74.54370578198943,46.90799795135283,3.727185289099472,0.7368291087928757,Right,Correct,0.0,0.0,-45,45,1708,-1,-1
"{'cat': 'II', 'resp': 'button'}",11,99,Right,38.20878743635089,28.457443978719944,1.9104393718175445,0.44700848471744836,Left,Incorrect,0.0,0.0,-45,45,1315,-1,-1
"{'cat': 'II', 'resp': 'button'}",11,100,Left,65.17216652589164,83.96015513455308,3.2586083262945817,1.3188430328248564,Left,Correct,0.0,0.0,-45,45,1206,-1,-1
"{'cat': 'II', 'resp': 'button'}",11,101,Left,15.373584943303403,31.167215496278846,0.7686792471651701,0.48957347617979796,107,Incorrect,0.0,0.0,-45,45,1408,-1,-1
"{'cat': 'II', 'resp': 'button'}",11,102,Left,43.28396199458884,65.54981766212556,2.1641980997294423,1.0296541280574205,Right,Incorrect,0.0,0.0,-45,45,1992,-1,-1
"{'cat': 'II', 'resp': 'button'}",11,103,Left,62.79811561432053,78.96184344233227,3.1399057807160267,1.2403297363616923,Right,Incorrect,0.0,0.0,-45,45,1362,-1,-1
"{'cat': 'II', 'resp': 'button'}",11,104,Left,31.636115823120484,56.07336201255442,1.5818057911560244,0.8807983108036097,Right,Incorrect,0.0,0.0,-45,45,1077,-1,-1
"{'cat': 'II', 'resp': 'button'}",11,105,Right,63.64404127618244,40.1092785281208,3.182202063809122,0.6300350738236555,Right,Correct,0.0,0.0,-45,45,1076,-1,-1
"{'cat': 'II', 'resp': 'button'}",11,106,Right,58.3889799641366,49.75462891324796,2.91944899820683,0.7815438833797307,Right,Correct,0.0,0.0,-45,45,1129,-1,-1
"{'cat': 'II', 'resp': 'button'}",11,107,Right,59.95220024562999,46.14041903763582,2.9976100122814997,0.7247720074109566,Right,Correct,0.0,0.0,-45,45,1032,-1,-1
"{'cat': 'II', 'resp': 'button'}",11,108,Left,15.49368273621133,32.32337207257528,0.7746841368105665,0.5077343412122599,Right,Incorrect,0.0,0.0,-45,45,1076,-1,-1
"{'cat': 'II', 'resp': 'button'}",11,109,Left,32.36561467024914,61.91355979235389,1.6182807335124567,0.9725359230062569,Left,Correct,0.0,0.0,-45,45,2014,-1,-1
"{'cat': 'II', 'resp': 'button'}",11,110,Left,59.53296635490564,74.4954186174435,2.9766483177452816,1.1701712992732842,Left,Correct,0.0,0.0,-45,45,935,-1,-1
"{'cat': 'II', 'resp': 'button'}",11,111,Left,38.60185236530665,45.98314530305487,1.9300926182653324,0.7223015573651458,Left,Correct,0.0,0.0,-45,45,1308,-1,-1
"{'cat': 'II', 'resp': 'button'}",11,112,Left,15.62550455454815,32.979375792032144,0.7812752277274074,0.5180388235411262,Left,Correct,0.0,0.0,-45,45,965,-1,-1
"{'cat': 'II', 'resp': 'button'}",11,113,Left,23.443984112405932,49.90730719539418,1.1721992056202966,0.7839421482274969,Left,Correct,0.0,0.0,-45,45,1069,-1,-1
"{'cat': 'II', 'resp': 'button'}",11,114,Left,66.9303173867365,83.63165671151756,3.3465158693368253,1.3136829916622355,Right,Incorrect,0.0,0.0,-45,45,967,-1,-1
"{'cat': 'II', 'resp': 'button'}",11,115,Right,75.11948371176658,48.225611408040386,3.755974185588329,0.7575261325718791,Right,Correct,0.0,0.0,-45,45,1232,-1,-1
"{'cat': 'II', 'resp': 'button'}",11,116,Right,41.25165017758637,23.8981598276287,2.0625825088793186,0.37539141674396526,Right,Correct,0.0,0.0,-45,45,1108,-1,-1
"{'cat': 'II', 'resp': 'button'}",11,117,Right,63.163995110030555,34.81223215901781,3.1581997555015278,0.5468292640291635,Right,Correct,0.0,0.0,-45,45,958,-1,-1
"{'cat': 'II', 'resp': 'button'}",11,118,Left,37.373168658085596,49.01802088046867,1.86865843290428,0.7699732714579572,Right,Incorrect,0.0,0.0,-45,45,819,-1,-1
"{'cat': 'II', 'resp': 'button'}",11,119,Left,47.995168868798345,76.20173786241064,2.399758443439917,1.196974099296622,Left,Correct,0.0,0.0,-45,45,1051,-1,-1
"{'cat': 'II', 'resp': 'button'}",11,120,Left,27.855293255198468,59.71664056986179,1.3927646627599233,0.9380267965566998,Left,Correct,0.0,0.0,-45,45,921,-1,-1
"{'cat': 'II', 'resp': 'button'}",11,121,Right,74.26216960813198,50.50396875303653,3.7131084804065995,0.7933144860583402,Left,Incorrect,0.0,0.0,-45,45,1007,-1,-1
"{'cat': 'II', 'resp': 'button'}",11,122,Right,59.05386172147998,31.551339808624146,2.952693086073999,0.49560728676844407,Right,Correct,0.0,0.0,-45,45,1071,-1,-1
"{'cat': 'II', 'resp': 'button'}",11,123,Left,39.82008024094243,47.32730877626879,1.9910040120471217,0.7434156278285089,Right,Incorrect,0.0,0.0,-45,45,1017,-1,-1
"{'cat': 'II', 'resp': 'button'}",11,124,Right,68.284235965076,46.65371124525254,3.4142117982538,0.7328347825539244,Right,Correct,0.0,0.0,-45,45,896,-1,-1
"{'cat': 'II', 'resp': 'button'}",11,125,Right,48.51603959944317,37.352484911014024,2.4258019799721584,0.5867314609488262,Right,Correct,0.0,0.0,-45,45,926,-1,-1
"{'cat': 'II', 'resp': 'button'}",11,126,Left,34.4743145367044,65.65347899245758,1.7237157268352201,1.0312824364265827,Left,Correct,0.0,0.0,-45,45,922,-1,-1
"{'cat': 'II', 'resp': 'button'}",11,127,Left,23.881246511137586,37.307836826027355,1.1940623255568794,0.5860301304698714,Right,Incorrect,0.0,0.0,-45,45,880,-1,-1
"{'cat': 'II', 'resp': 'button'}",11,128,Left,19.173621192794425,49.48502532646188,0.9586810596397213,0.7773089601415875,Left,Correct,0.0,0.0,-45,45,1083,-1,-1
"{'cat': 'II', 'resp': 'button'}",11,129,Right,64.11407827861163,36.97124080940179,3.205703913930581,0.5807428926045791,Right,Correct,0.0,0.0,-45,45,1066,-1,-1
"{'cat': 'II', 'resp': 'button'}",11,130,Left,53.994138244897925,74.39896761756582,2.6997069122448965,1.1686562505100482,Left,Correct,0.0,0.0,-45,45,1328,-1,-1
"{'cat': 'II', 'resp': 'button'}",11,131,Right,56.033789194204424,45.57266072070975,2.8016894597102215,0.7158536806236093,Right,Correct,0.0,0.0,-45,45,792,-1,-1
"{'cat': 'II', 'resp': 'button'}",11,132,Right,67.61418650516892,43.659144552526435,3.3807093252584455,0.6857962389411595,Right,Correct,0.0,0.0,-45,45,988,-1,-1
"{'cat': 'II', 'resp': 'button'}",11,133,Left,45.03346330297842,73.80319591919387,2.251673165148921,1.1592978905559381,Left,Correct,0.0,0.0,-45,45,984,-1,-1
"{'cat': 'II', 'resp': 'button'}",11,134,Right,46.780497026676485,25.805132056061588,2.339024851333824,0.4053460664611878,Right,Correct,0.0,0.0,-45,45,816,-1,-1
"{'cat': 'II', 'resp': 'button'}",11,135,Right,34.971922857476656,14.301444623559707,1.748596142873833,0.22464656682548215,Right,Correct,0.0,0.0,-45,45,1037,-1,-1
"{'cat': 'II', 'resp': 'button'}",11,136,Right,53.62153818809403,32.55952832317741,2.6810769094047013,0.5114438749222148,Left,Incorrect,0.0,0.0,-45,45,1278,-1,-1
"{'cat': 'II', 'resp': 'button'}",11,137,Left,57.63843417518815,73.14372633158197,2.8819217087594073,1.148938966497401,Left,Correct,0.0,0.0,-45,45,814,-1,-1
"{'cat': 'II', 'resp': 'button'}",11,138,Left,66.66141882166096,84.8794939323443,3.333070941083048,1.3332839728913615,Left,Correct,0.0,0.0,-45,45,1081,-1,-1
"{'cat': 'II', 'resp': 'button'}",11,139,Left,36.18033135876212,61.165421344215964,1.8090165679381058,0.9607841917435659,Right,Incorrect,0.0,0.0,-45,45,1310,-1,-1
"{'cat': 'II', 'resp': 'button'}",11,140,Left,24.484323386442874,38.75804739375598,1.2242161693221436,0.6088099847985441,Right,Incorrect,0.0,0.0,-45,45,658,-1,-1
"{'cat': 'II', 'resp': 'button'}",11,141,Left,27.05141530014732,44.03864076064352,1.352570765007366,0.6917573514385884,Left,Correct,0.0,0.0,-45,45,994,-1,-1
"{'cat': 'II', 'resp': 'button'}",11,142,Right,75.59977201062071,52.26526618907303,3.7799886005310355,0.8209808814875341,Left,Incorrect,0.0,0.0,-45,45,1395,-1,-1
"{'cat': 'II', 'resp': 'button'}",11,143,Left,30.745944764339903,57.36785714919865,1.5372972382169952,0.9011321928605557,Right,Incorrect,0.0,0.0,-45,45,637,-1,-1
"{'cat': 'II', 'resp': 'button'}",11,144,Left,11.888238863234818,31.9780575768065,0.594411943161741,0.5023101537968336,Right,Incorrect,0.0,0.0,-45,45,2089,-1,-1
"{'cat': 'II', 'resp': 'button'}",11,145,Right,51.87073538616856,26.361065843858366,2.5935367693084284,0.4140786539793113,Left,Incorrect,0.0,0.0,-45,45,1421,-1,-1
"{'cat': 'II', 'resp': 'button'}",11,146,Left,48.22877161440208,54.86630217805342,2.411438580720104,0.8618378592610515,Right,Incorrect,0.0,0.0,-45,45,642,-1,-1
"{'cat': 'II', 'resp': 'button'}",11,147,Left,36.176823330600435,44.2357173275199,1.8088411665300217,0.6948530229120562,Right,Incorrect,0.0,0.0,-45,45,937,-1,-1
"{'cat': 'II', 'resp': 'button'}",11,148,Right,57.72363525357478,40.83935705230777,2.886181762678739,0.6415031204643029,Right,Correct,0.0,0.0,-45,45,841,-1,-1
"{'cat': 'II', 'resp': 'button'}",11,149,Right,47.99818712668609,30.56654558783582,2.399909356334305,0.4801381753218126,Right,Correct,0.0,0.0,-45,45,840,-1,-1
"{'cat': 'II', 'resp': 'button'}",11,150,Left,53.548147483779715,67.93278121983792,2.6774073741889857,1.0670856320908275,Left,Correct,0.0,0.0,-45,45,1288,-1,-1
"{'cat': 'II', 'resp': 'button'}",11,151,Right,72.92536014741795,62.46041859157683,3.6462680073708977,0.9811259609372055,Right,Correct,0.0,0.0,-45,45,3165,-1,-1
"{'cat': 'II', 'resp': 'button'}",11,152,Left,48.135220117971166,55.05783372523891,2.406761005898558,0.8648464297688945,Right,Incorrect,0.0,0.0,-45,45,1900,-1,-1
"{'cat': 'II', 'resp': 'button'}",11,153,Right,32.49081786012711,19.49992810097285,1.6245408930063554,0.30630415433772734,Left,Incorrect,0.0,0.0,-45,45,1457,-1,-1
"{'cat': 'II', 'resp': 'button'}",11,154,Left,45.786278539968464,77.03582270034106,2.2893139269984233,1.2100758732931864,Left,Correct,0.0,0.0,-45,45,900,-1,-1
"{'cat': 'II', 'resp': 'button'}",11,155,Right,48.338349358372064,23.502586804331504,2.416917467918603,0.3691777702242214,Right,Correct,0.0,0.0,-45,45,881,-1,-1
"{'cat': 'II', 'resp': 'button'}",11,156,Right,59.75832444373496,32.05417276135227,2.9879162221867483,0.5035057683198118,Right,Correct,0.0,0.0,-45,45,1280,-1,-1
"{'cat': 'II', 'resp': 'button'}",11,157,Left,56.24893803521777,77.61661039781657,2.8124469017608886,1.2191988651116086,Left,Correct,0.0,0.0,-45,45,1404,-1,-1
"{'cat': 'II', 'resp': 'button'}",11,158,Left,65.00445939049108,76.67299392356284,3.250222969524554,1.2043765721949993,Left,Correct,0.0,0.0,-45,45,1570,-1,-1
"{'cat': 'II', 'resp': 'button'}",11,159,Left,66.12892480331439,89.92120456032526,3.306446240165719,1.4124789782433143,Left,Correct,0.0,0.0,-45,45,1211,-1,-1
"{'cat': 'II', 'resp': 'button'}",11,160,Right,46.25947177965872,27.77460479619399,2.312973588982936,0.43628247192041436,Right,Correct,0.0,0.0,-45,45,1273,-1,-1
"{'cat': 'II', 'resp': 'button'}",11,161,Left,19.954000627796614,40.63076422617269,0.9977000313898308,0.6382265520134154,Right,Incorrect,0.0,0.0,-45,45,741,-1,-1
"{'cat': 'II', 'resp': 'button'}",11,162,Right,41.25990489693143,18.79177465053205,2.0629952448465714,0.29518050595013196,Left,Incorrect,0.0,0.0,-45,45,2417,-1,-1
"{'cat': 'II', 'resp': 'button'}",11,163,Right,53.30078183515484,45.791209224051784,2.665039091757742,0.7192866324863714,Right,Correct,0.0,0.0,-45,45,1320,-1,-1
"{'cat': 'II', 'resp': 'button'}",11,164,Left,48.078144320156866,55.21621688290743,2.4039072160078434,0.8673343065918135,Left,Correct,0.0,0.0,-45,45,1528,-1,-1
"{'cat': 'II', 'resp': 'button'}",11,165,Left,35.872829337811794,63.98656880245829,1.7936414668905898,1.0050986723911042,Left,Correct,0.0,0.0,-45,45,1049,-1,-1
"{'cat': 'II', 'resp': 'button'}",11,166,Right,86.11726878809546,66.48570583144337,4.305863439404773,1.0443550250439728,Right,Correct,0.0,0.0,-45,45,1490,-1,-1
"{'cat': 'II', 'resp': 'button'}",11,167,Left,30.66363003331698,55.847532103563715,1.533181501665849,0.8772509828883793,Right,Incorrect,0.0,0.0,-45,45,1236,-1,-1
"{'cat': 'II', 'resp': 'button'}",11,168,Left,27.043561317998588,59.504487915353856,1.3521780658999294,0.9346943104524915,Left,Correct,0.0,0.0,-45,45,957,-1,-1
"{'cat': 'II', 'resp': 'button'}",11,169,Right,60.98055053984763,33.7587061053067,3.0490275269923814,0.5302805154756421,Right,Correct,0.0,0.0,-45,45,1025,-1,-1
"{'cat': 'II', 'resp': 'button'}",11,170,Left,62.39769454212474,75.87990253266277,3.119884727106237,1.1919187217586145,Left,Correct,0.0,0.0,-45,45,3571,-1,-1
"{'cat': 'II', 'resp': 'button'}",11,171,Right,69.49286552431923,57.47344612776347,3.474643276215961,0.9027907806573523,Left,Incorrect,0.0,0.0,-45,45,1122,-1,-1
"{'cat': 'II', 'resp': 'button'}",11,172,Left,61.13064650517022,82.00139015858899,3.0565323252585106,1.2880748245318676,Right,Incorrect,0.0,0.0,-45,45,783,-1,-1
"{'cat': 'II', 'resp': 'button'}",11,173,Left,37.37557444452277,62.86776877475865,1.8687787222261385,0.987524602651818,Right,Incorrect,0.0,0.0,-45,45,966,-1,-1
"{'cat': 'II', 'resp': 'button'}",11,174,Left,51.61198442173507,59.52955125119844,2.5805992210867537,0.9350880044113103,Left,Correct,0.0,0.0,-45,45,787,-1,-1
"{'cat': 'II', 'resp': 'button'}",11,175,Right,76.89966097052688,55.67237066778189,3.8449830485263443,0.8744995534891574,Left,Incorrect,0.0,0.0,-45,45,954,-1,-1
"{'cat': 'II', 'resp': 'button'}",11,176,Right,41.320790163141474,23.042419151162633,2.0660395081570737,0.3619494736311465,Right,Correct,0.0,0.0,-45,45,1275,-1,-1
"{'cat': 'II', 'resp': 'button'}",11,177,Left,24.474217873043763,57.06048471047046,1.223710893652188,0.8963039978834336,Right,Incorrect,0.0,0.0,-45,45,826,-1,-1
"{'cat': 'II', 'resp': 'button'}",11,178,Left,13.667700822048342,34.63318519008922,0.6833850411024172,0.5440168008179955,Left,Correct,0.0,0.0,-45,45,1465,-1,-1
"{'cat': 'II', 'resp': 'button'}",11,179,Right,63.30621693295196,53.69133031841839,3.165310846647598,0.8433814444490306,Right,Correct,0.0,0.0,-45,45,1607,-1,-1
"{'cat': 'II', 'resp': 'button'}",11,180,Right,56.73388915121997,41.46089268285425,2.8366944575609985,0.6512661793186485,Right,Correct,0.0,0.0,-45,45,1039,-1,-1
"{'cat': 'II', 'resp': 'button'}",11,181,Left,45.81226780535666,64.71946823581762,2.290613390267833,1.0166110297694129,Left,Correct,0.0,0.0,-45,45,2606,-1,-1
"{'cat': 'II', 'resp': 'button'}",11,182,Right,82.94409945214268,66.86911878230352,4.147204972607134,1.0503776615925398,Left,Incorrect,0.0,0.0,-45,45,1065,-1,-1
"{'cat': 'II', 'resp': 'button'}",11,183,Right,53.45272446061033,23.895318717678425,2.6726362230305165,0.3753467886932261,Right,Correct,0.0,0.0,-45,45,1520,-1,-1
"{'cat': 'II', 'resp': 'button'}",11,184,Left,42.386643341708385,55.74246346457704,2.1193321670854193,0.8756005685665633,Right,Incorrect,0.0,0.0,-45,45,1148,-1,-1
"{'cat': 'II', 'resp': 'button'}",11,185,Left,45.62346078963045,74.68288260945899,2.2811730394815224,1.1731159767739263,Left,Correct,0.0,0.0,-45,45,1035,-1,-1
"{'cat': 'II', 'resp': 'button'}",11,186,Left,27.107211999673616,57.383116527579425,1.3553605999836806,0.9013718866156528,Left,Correct,0.0,0.0,-45,45,3731,-1,-1
"{'cat': 'II', 'resp': 'button'}",11,187,Right,59.854105584625536,38.34251418154505,2.992705279231277,0.602282804364522,Left,Incorrect,0.0,0.0,-45,45,5907,-1,-1
"{'cat': 'II', 'resp': 'button'}",11,188,Right,78.60205104031884,53.88158167147127,3.930102552015942,0.8463699057144628,Right,Correct,0.0,0.0,-45,45,3485,-1,-1
"{'cat': 'II', 'resp': 'button'}",11,189,Right,60.50451795702696,31.23691071208168,3.025225897851348,0.4906682460695806,Right,Correct,0.0,0.0,-45,45,2695,-1,-1
"{'cat': 'II', 'resp': 'button'}",11,190,Left,62.69580982611051,74.39936214838625,3.1347904913055253,1.1686624477856837,Right,Incorrect,0.0,0.0,-45,45,1550,-1,-1
"{'cat': 'II', 'resp': 'button'}",11,191,Right,81.80187263408197,50.807148353967364,4.090093631704098,0.7980768200933531,Left,Incorrect,0.0,0.0,-45,45,1945,-1,-1
"{'cat': 'II', 'resp': 'button'}",11,192,Right,40.21448405616942,18.102346144488244,2.010724202808471,0.28435098830131894,Right,Correct,0.0,0.0,-45,45,1597,-1,-1
"{'cat': 'II', 'resp': 'button'}",11,193,Left,42.08400770173058,55.33068231936224,2.104200385086529,0.8691323254630954,Left,Correct,0.0,0.0,-45,45,1081,-1,-1
"{'cat': 'II', 'resp': 'button'}",11,194,Left,67.53284883895984,87.30768376144232,3.3766424419479915,1.3714258895344404,Left,Correct,0.0,0.0,-45,45,1208,-1,-1
"{'cat': 'II', 'resp': 'button'}",11,195,Left,43.643043649242834,53.64732829691769,2.1821521824621417,0.8426902623115822,Left,Correct,0.0,0.0,-45,45,1121,-1,-1
"{'cat': 'II', 'resp': 'button'}",11,196,Left,50.88807319242699,66.75379600413466,2.5444036596213495,1.0485661756291056,Left,Correct,0.0,0.0,-45,45,1531,-1,-1
"{'cat': 'II', 'resp': 'button'}",11,197,Right,78.30819281791432,53.87812782028776,3.915409640895716,0.8463156527469394,Left,Incorrect,0.0,0.0,-45,45,913,-1,-1
"{'cat': 'II', 'resp': 'button'}",11,198,Right,66.58515738659236,44.58700223785125,3.3292578693296178,0.7003709933801257,Right,Correct,0.0,0.0,-45,45,760,-1,-1
"{'cat': 'II', 'resp': 'button'}",11,199,Right,85.39018204573631,63.97126316737088,4.269509102286816,1.0048582520373583,Right,Correct,0.0,0.0,-45,45,854,-1,-1
"{'cat': 'II', 'resp': 'button'}",11,200,Right,48.79314349355368,37.986389330092436,2.439657174677684,0.5966888082791004,Right,Correct,0.0,0.0,-45,45,1083,-1,-1
"{'cat': 'II', 'resp': 'button'}",11,201,Right,74.96866795968396,45.13614942007393,3.748433397984198,0.7089969771471772,Right,Correct,0.0,0.0,-45,45,770,-1,-1
"{'cat': 'II', 'resp': 'button'}",11,202,Right,41.29117138939793,18.941082319585956,2.0645585694698965,0.29752582533125377,Left,Incorrect,0.0,0.0,-45,45,1133,-1,-1
"{'cat': 'II', 'resp': 'button'}",11,203,Left,40.30529496151136,47.66466258419099,2.015264748075568,0.7487147690516537,Left,Correct,0.0,0.0,-45,45,980,-1,-1
"{'cat': 'II', 'resp': 'button'}",11,204,Right,65.82355921264022,33.82706097241011,3.291177960632011,0.531354231217288,Right,Correct,0.0,0.0,-45,45,1046,-1,-1
"{'cat': 'II', 'resp': 'button'}",11,205,Left,50.576387833579645,64.37262746613222,2.528819391678982,1.0111628676993676,Left,Correct,0.0,0.0,-45,45,1688,-1,-1
"{'cat': 'II', 'resp': 'button'}",11,206,Left,51.25449391640378,62.41315979993542,2.5627246958201892,0.9803836215740146,Right,Incorrect,0.0,0.0,-45,45,1694,-1,-1
"{'cat': 'II', 'resp': 'button'}",11,207,Left,12.33084880274832,35.43187690678412,0.616542440137416,0.5565626209662541,Left,Correct,0.0,0.0,-45,45,1555,-1,-1
"{'cat': 'II', 'resp': 'button'}",11,208,Left,20.426666587889354,49.166772674926484,1.0213333293944677,0.7723098591813422,Left,Correct,0.0,0.0,-45,45,1154,-1,-1
"{'cat': 'II', 'resp': 'button'}",11,209,Left,33.33127819673591,66.33637692287222,1.6665639098367955,1.0420093720332941,Left,Correct,0.0,0.0,-45,45,869,-1,-1
"{'cat': 'II', 'resp': 'button'}",11,210,Left,50.221027264931934,64.60306846606494,2.5110513632465965,1.0147826264617401,Left,Correct,0.0,0.0,-45,45,948,-1,-1
"{'cat': 'II', 'resp': 'button'}",11,211,Right,70.61601963844275,57.500491045832405,3.5308009819221375,0.9032156012369639,Right,Correct,0.0,0.0,-45,45,1098,-1,-1
"{'cat': 'II', 'resp': 'button'}",11,212,Right,56.05610066251523,44.012117106859165,2.802805033125761,0.6913407188592121,Right,Correct,0.0,0.0,-45,45,757,-1,-1
"{'cat': 'II', 'resp': 'button'}",11,213,Right,50.440876410809075,28.35645470153605,2.522043820540454,0.445422148860987,Right,Correct,0.0,0.0,-45,45,740,-1,-1
"{'cat': 'II', 'resp': 'button'}",11,214,Right,55.944310304931534,28.478457059879556,2.797215515246577,0.4473385574244499,Right,Correct,0.0,0.0,-45,45,876,-1,-1
"{'cat': 'II', 'resp': 'button'}",11,215,Right,75.6039298702717,45.53929870097291,3.780196493513585,0.7153296312430385,Right,Correct,0.0,0.0,-45,45,1053,-1,-1
"{'cat': 'II', 'resp': 'button'}",11,216,Right,85.31139402933667,56.30492937948799,4.265569701466833,0.8844357624974579,Right,Correct,0.0,0.0,-45,45,872,-1,-1
"{'cat': 'II', 'resp': 'button'}",11,217,Right,79.0117303826344,57.285708459341585,3.9505865191317198,0.8998418042577712,Right,Correct,0.0,0.0,-45,45,698,-1,-1
"{'cat': 'II', 'resp': 'button'}",11,218,Left,50.64158394529609,76.72329294756227,2.5320791972648045,1.205166667416396,Left,Correct,0.0,0.0,-45,45,930,-1,-1
"{'cat': 'II', 'resp': 'button'}",11,219,Right,60.79139358665846,32.29134924227237,3.0395696793329225,0.507231327770126,Right,Correct,0.0,0.0,-45,45,1104,-1,-1
"{'cat': 'II', 'resp': 'button'}",11,220,Left,29.25080352062293,49.145636819819465,1.4625401760311465,0.7719778579456843,Right,Incorrect,0.0,0.0,-45,45,744,-1,-1
"{'cat': 'II', 'resp': 'button'}",11,221,Right,52.55437001828728,34.09284537033945,2.627718500914364,0.5355291627771559,Right,Correct,0.0,0.0,-45,45,1074,-1,-1
"{'cat': 'II', 'resp': 'button'}",11,222,Right,54.29588962350997,30.9990883554661,2.7147944811754985,0.486932541227566,Right,Correct,0.0,0.0,-45,45,907,-1,-1
"{'cat': 'II', 'resp': 'button'}",11,223,Right,65.66885480419485,52.75709044537677,3.2834427402097424,0.8287064388398396,Left,Incorrect,0.0,0.0,-45,45,900,-1,-1
"{'cat': 'II', 'resp': 'button'}",11,224,Right,88.27694043812541,66.90214743661515,4.41384702190627,1.0508964744812568,Left,Incorrect,0.0,0.0,-45,45,1175,-1,-1
"{'cat': 'II', 'resp': 'button'}",11,225,Right,72.43731491362645,53.67782999561477,3.6218657456813226,0.843169381874326,Left,Incorrect,0.0,0.0,-45,45,1554,-1,-1
"{'cat': 'II', 'resp': 'button'}",11,226,Right,36.943222168440634,15.470140758687535,1.8471611084220316,0.24300440278746394,Left,Incorrect,0.0,0.0,-45,45,974,-1,-1
"{'cat': 'II', 'resp': 'button'}",11,227,Left,38.503066743848414,64.14830751155486,1.9251533371924208,1.0076392580925984,Left,Correct,0.0,0.0,-45,45,1026,-1,-1
"{'cat': 'II', 'resp': 'button'}",11,228,Left,28.82768494822998,54.62135569799488,1.4413842474114988,0.8579902489496786,Left,Correct,0.0,0.0,-45,45,706,-1,-1
"{'cat': 'II', 'resp': 'button'}",11,229,Right,86.17468993282117,62.19263972471232,4.308734496641058,0.9769197003325648,Left,Incorrect,0.0,0.0,-45,45,825,-1,-1
"{'cat': 'II', 'resp': 'button'}",11,230,Left,17.864987017138883,41.17575452144841,0.8932493508569442,0.6467872395529952,Left,Correct,0.0,0.0,-45,45,1663,-1,-1
"{'cat': 'II', 'resp': 'button'}",11,231,Left,54.503426719599474,82.59584873701995,2.7251713359799736,1.2974125580461784,Right,Incorrect,0.0,0.0,-45,45,1303,-1,-1
"{'cat': 'II', 'resp': 'button'}",11,232,Right,62.69080886135564,48.26936134883974,3.134540443067782,0.7582133550349303,Right,Correct,0.0,0.0,-45,45,955,-1,-1
"{'cat': 'II', 'resp': 'button'}",11,233,Left,32.66639001228656,43.570223735793554,1.6333195006143282,0.6843994740181633,Right,Incorrect,0.0,0.0,-45,45,1529,-1,-1
"{'cat': 'II', 'resp': 'button'}",11,234,Left,54.63441801035371,62.13018428353551,2.731720900517686,0.975938652556676,Right,Incorrect,0.0,0.0,-45,45,1223,-1,-1
"{'cat': 'II', 'resp': 'button'}",11,235,Right,50.577901780281465,28.41391786359598,2.5288950890140733,0.4463247780998846,Right,Correct,0.0,0.0,-45,45,750,-1,-1
"{'cat': 'II', 'resp': 'button'}",11,236,Left,64.39813899920762,86.69981234196146,3.219906949960381,1.361877467605599,Left,Correct,0.0,0.0,-45,45,954,-1,-1
"{'cat': 'II', 'resp': 'button'}",11,237,Right,69.4488143489644,48.768775516509,3.47244071744822,0.7660581344361721,Right,Correct,0.0,0.0,-45,45,1634,-1,-1
"{'cat': 'II', 'resp': 'button'}",11,238,Left,51.700542773220334,60.36365726063338,2.5850271386610166,0.94819011096909,Right,Incorrect,0.0,0.0,-45,45,1752,-1,-1
"{'cat': 'II', 'resp': 'button'}",11,239,Left,37.96535760738897,62.77422784417459,1.8982678803694484,0.9860552651501537,Left,Correct,0.0,0.0,-45,45,992,-1,-1
"{'cat': 'II', 'resp': 'button'}",11,240,Left,60.02229918753642,73.93235278676205,3.001114959376821,1.1613266818875028,Left,Correct,0.0,0.0,-45,45,958,-1,-1
"{'cat': 'II', 'resp': 'button'}",11,241,Left,67.05807227735072,82.76143224470057,3.352903613867536,1.3000135377026036,Left,Correct,0.0,0.0,-45,45,1012,-1,-1
"{'cat': 'II', 'resp': 'button'}",11,242,Left,40.94599081043336,57.14748870438817,2.047299540521668,0.8976706534240578,Right,Incorrect,0.0,0.0,-45,45,1219,-1,-1
"{'cat': 'II', 'resp': 'button'}",11,243,Left,34.87916488635594,55.257786659472295,1.7439582443177968,0.8679872831151512,Left,Correct,0.0,0.0,-45,45,662,-1,-1
"{'cat': 'II', 'resp': 'button'}",11,244,Left,39.51183965517001,67.72725992955188,1.9755919827585005,1.0638573112122327,Left,Correct,0.0,0.0,-45,45,1098,-1,-1
"{'cat': 'II', 'resp': 'button'}",11,245,Right,51.81212585828078,33.17370448605074,2.5906062929140385,0.5210913315286787,Right,Correct,0.0,0.0,-45,45,896,-1,-1
"{'cat': 'II', 'resp': 'button'}",11,246,Left,24.795769204928593,40.40954534560632,1.2397884602464295,0.6347516539633021,Right,Incorrect,0.0,0.0,-45,45,950,-1,-1
"{'cat': 'II', 'resp': 'button'}",11,247,Right,70.0538944760799,55.203811500734844,3.5026947238039954,0.8671394433043216,Left,Incorrect,0.0,0.0,-45,45,1266,-1,-1
"{'cat': 'II', 'resp': 'button'}",11,248,Left,37.8085677549575,62.91187449408184,1.890428387747875,0.9882174136708529,Left,Correct,0.0,0.0,-45,45,924,-1,-1
"{'cat': 'II', 'resp': 'button'}",11,249,Right,85.9098164210994,59.07754147122985,4.295490821054971,0.9279878513908102,Left,Incorrect,0.0,0.0,-45,45,753,-1,-1
"{'cat': 'II', 'resp': 'button'}",11,250,Right,48.556032702876514,37.15137713413141,2.4278016351438256,0.5835724673766552,Right,Correct,0.0,0.0,-45,45,1075,-1,-1
"{'cat': 'II', 'resp': 'button'}",11,251,Left,67.5222979308086,80.65153529478339,3.37611489654043,1.266871353914147,Left,Correct,0.0,0.0,-45,45,875,-1,-1
"{'cat': 'II', 'resp': 'button'}",11,252,Right,75.98620784752865,64.57236603547985,3.7993103923764324,1.0143003538098727,Left,Incorrect,0.0,0.0,-45,45,838,-1,-1
"{'cat': 'II', 'resp': 'button'}",11,253,Left,22.985778283748065,38.54924490422928,1.1492889141874032,0.6055301229628024,Left,Correct,0.0,0.0,-45,45,2352,-1,-1
"{'cat': 'II', 'resp': 'button'}",11,254,Left,43.22291755626138,74.01070218250031,2.161145877813069,1.1625573913178249,Right,Incorrect,0.0,0.0,-45,45,858,-1,-1
"{'cat': 'II', 'resp': 'button'}",11,255,Right,59.08288779595624,26.607951090155098,2.954144389797812,0.41795671835953885,107,Incorrect,0.0,0.0,-45,45,899,-1,-1
"{'cat': 'II', 'resp': 'button'}",11,256,Right,64.34807724072863,47.906786606539555,3.2174038620364316,0.7525180443009927,Left,Incorrect,0.0,0.0,-45,45,1191,-1,-1
"{'cat': 'II', 'resp': 'button'}",11,257,Left,12.382940945943318,33.8039449388925,0.6191470472971659,0.5309911254118926,Right,Incorrect,0.0,0.0,-45,45,1914,-1,-1
"{'cat': 'II', 'resp': 'button'}",11,258,Right,69.03429836726794,45.81696331260074,3.451714918363397,0.7196911767632979,Left,Incorrect,0.0,0.0,-45,45,1597,-1,-1
"{'cat': 'II', 'resp': 'button'}",11,259,Right,61.30597071597106,39.701349562495714,3.065298535798553,0.6236273406156844,Right,Correct,0.0,0.0,-45,45,1396,-1,-1
"{'cat': 'II', 'resp': 'button'}",11,260,Left,19.065951281208143,44.732391671380974,0.9532975640604071,0.7026547652615586,Right,Incorrect,0.0,0.0,-45,45,1420,-1,-1
"{'cat': 'II', 'resp': 'button'}",11,261,Left,49.97897137049672,68.94782081037685,2.498948568524836,1.083029836694527,Left,Correct,0.0,0.0,-45,45,961,-1,-1
"{'cat': 'II', 'resp': 'button'}",11,262,Right,60.76608438077725,42.388192066048376,3.0383042190388623,0.6658321639682536,Right,Correct,0.0,0.0,-45,45,1089,-1,-1
"{'cat': 'II', 'resp': 'button'}",11,263,Right,56.66917639552947,36.1218486755907,2.8334588197764736,0.5674006721665896,Right,Correct,0.0,0.0,-45,45,591,-1,-1
"{'cat': 'II', 'resp': 'button'}",11,264,Left,41.69036606187846,63.73697957778546,2.084518303093923,1.0011781340178674,Left,Correct,0.0,0.0,-45,45,786,-1,-1
"{'cat': 'II', 'resp': 'button'}",11,265,Left,25.494668803954283,56.13026303212359,1.2747334401977142,0.881692109928911,Left,Correct,0.0,0.0,-45,45,842,-1,-1
"{'cat': 'II', 'resp': 'button'}",11,266,Right,58.83577986504952,29.43712023666383,2.9417889932524757,0.46239720339171264,Right,Correct,0.0,0.0,-45,45,1272,-1,-1
"{'cat': 'II', 'resp': 'button'}",11,267,Left,65.45530273588301,82.00200565366613,3.272765136794151,1.288084492705931,Left,Correct,0.0,0.0,-45,45,964,-1,-1
"{'cat': 'II', 'resp': 'button'}",11,268,Left,34.02764134459414,59.547404654104604,1.7013820672297069,0.9353684450083685,Left,Correct,0.0,0.0,-45,45,1678,-1,-1
"{'cat': 'II', 'resp': 'button'}",11,269,Right,49.31308857317615,39.42007174038381,2.4656544286588074,0.6192090389178619,Left,Incorrect,0.0,0.0,-45,45,1970,-1,-1
"{'cat': 'II', 'resp': 'button'}",11,270,Right,48.25540253854406,24.373855060931618,2.412770126927203,0.38286361999542584,Right,Correct,0.0,0.0,-45,45,2657,-1,-1
"{'cat': 'II', 'resp': 'button'}",11,271,Left,37.34228835389562,51.577457767481995,1.867114417694781,0.8101768120657962,Left,Correct,0.0,0.0,-45,45,1168,-1,-1
"{'cat': 'II', 'resp': 'button'}",11,272,Left,31.855919796880016,52.05890648039563,1.5927959898440007,0.8177393907636451,Left,Correct,0.0,0.0,-45,45,773,-1,-1
"{'cat': 'II', 'resp': 'button'}",11,273,Right,43.57621340343946,30.077906617260506,2.178810670171973,0.47246265232072715,Left,Incorrect,0.0,0.0,-45,45,1018,-1,-1
"{'cat': 'II', 'resp': 'button'}",11,274,Left,57.7558101110242,83.76306298382414,2.88779050555121,1.3157471165608052,Left,Correct,0.0,0.0,-45,45,882,-1,-1
"{'cat': 'II', 'resp': 'button'}",11,275,Right,65.36302038227493,32.687888382010755,3.2681510191137466,0.5134601500114406,Right,Correct,0.0,0.0,-45,45,935,-1,-1
"{'cat': 'II', 'resp': 'button'}",11,276,Left,50.15694884989566,74.98739298267746,2.507847442494783,1.1778992145311515,Left,Correct,0.0,0.0,-45,45,1912,-1,-1
"{'cat': 'II', 'resp': 'button'}",11,277,Right,58.73786265586844,39.874714702681935,2.9368931327934216,0.6263505538696724,Left,Incorrect,0.0,0.0,-45,45,979,-1,-1
"{'cat': 'II', 'resp': 'button'}",11,278,Left,66.3722707398937,80.14997206792344,3.3186135369946843,1.258992817170077,Left,Correct,0.0,0.0,-45,45,2009,-1,-1
"{'cat': 'II', 'resp': 'button'}",11,279,Left,60.89363394460287,76.53508015734343,3.0446816972301436,1.2022102278210802,Left,Correct,0.0,0.0,-45,45,1630,-1,-1
"{'cat': 'II', 'resp': 'button'}",11,280,Right,72.0381620262776,62.09328074328532,3.6019081013138803,0.9753589731019686,Right,Correct,0.0,0.0,-45,45,1340,-1,-1
"{'cat': 'II', 'resp': 'button'}",11,281,Right,68.17113147186015,49.150369231301084,3.4085565735930072,0.7720521944914064,Right,Correct,0.0,0.0,-45,45,720,-1,-1
"{'cat': 'II', 'resp': 'button'}",11,282,Right,84.08759491352805,62.82761306894422,4.204379745676403,0.9868938382998861,Left,Incorrect,0.0,0.0,-45,45,672,-1,-1
"{'cat': 'II', 'resp': 'button'}",11,283,Left,42.97932889587376,70.9601929332398,2.1489664447936883,1.1146401040819025,Right,Incorrect,0.0,0.0,-45,45,1347,-1,-1
"{'cat': 'II', 'resp': 'button'}",11,284,Right,39.0688676815664,13.243278425883535,1.9534433840783203,0.2080249310609996,Right,Correct,0.0,0.0,-45,45,1184,-1,-1
"{'cat': 'II', 'resp': 'button'}",11,285,Left,38.29441908716596,64.969495172108,1.9147209543582984,1.02053844370066,Left,Correct,0.0,0.0,-45,45,2364,-1,-1
"{'cat': 'II', 'resp': 'button'}",11,286,Left,44.3797615845062,74.53646125866834,2.21898807922531,1.1708159955740634,Left,Correct,0.0,0.0,-45,45,897,-1,-1
"{'cat': 'II', 'resp': 'button'}",11,287,Left,48.470365139779965,65.37314980363685,2.423518256988998,1.0268790358256528,Left,Correct,0.0,0.0,-45,45,1169,-1,-1
"{'cat': 'II', 'resp': 'button'}",11,288,Right,66.1247395253864,52.48603808122097,3.3062369762693202,0.8244487582599895,Right,Correct,0.0,0.0,-45,45,1492,-1,-1
"{'cat': 'II', 'resp': 'button'}",11,289,Right,63.76784966491226,36.2452447399893,3.188392483245613,0.5693389730135724,Right,Correct,0.0,0.0,-45,45,671,-1,-1
"{'cat': 'II', 'resp': 'button'}",11,290,Right,74.91363220724973,52.112568984161996,3.745681610362487,0.8185823194016731,Left,Incorrect,0.0,0.0,-45,45,1016,-1,-1
"{'cat': 'II', 'resp': 'button'}",11,291,Right,66.33572149977074,35.656676820733566,3.3167860749885367,0.5600937697572103,Right,Correct,0.0,0.0,-45,45,615,-1,-1
"{'cat': 'II', 'resp': 'button'}",11,292,Right,50.37396676019037,28.678839864917645,2.5186983380095187,0.4504861631655168,Right,Correct,0.0,0.0,-45,45,559,-1,-1
"{'cat': 'II', 'resp': 'button'}",11,293,Left,38.589431586159584,59.827778777459585,1.929471579307979,0.9397725514393117,Left,Correct,0.0,0.0,-45,45,1245,-1,-1
"{'cat': 'II', 'resp': 'button'}",11,294,Right,68.50381895144459,57.17373247324884,3.4251909475722293,0.8980828895813336,Left,Incorrect,0.0,0.0,-45,45,764,-1,-1
"{'cat': 'II', 'resp': 'button'}",11,295,Right,34.24198179917845,11.122296331020799,1.7120990899589226,0.17470862222291825,Right,Correct,0.0,0.0,-45,45,1163,-1,-1
"{'cat': 'II', 'resp': 'button'}",11,296,Right,82.5792953143326,55.4757648021142,4.12896476571663,0.871411275772986,Left,Incorrect,0.0,0.0,-45,45,902,-1,-1
"{'cat': 'II', 'resp': 'button'}",11,297,Right,60.16349503206872,36.45787404950218,3.008174751603436,0.57267894639709,Left,Incorrect,0.0,0.0,-45,45,934,-1,-1
"{'cat': 'II', 'resp': 'button'}",11,298,Right,60.590651312902835,39.99151400034505,3.0295325656451415,0.6281852329470868,Right,Correct,0.0,0.0,-45,45,537,-1,-1
"{'cat': 'II', 'resp': 'button'}",11,299,Right,57.76569221053123,29.845270401127557,2.888284610526562,0.4688084111829162,Right,Correct,0.0,0.0,-45,45,820,-1,-1
"{'cat': 'II', 'resp': 'button'}",11,300,Left,48.00360920636945,61.238741449179585,2.4001804603184724,0.9619359012591366,Left,Correct,0.0,0.0,-45,45,1072,-1,-1
"{'cat': 'II', 'resp': 'button'}",11,301,Right,46.04566145794814,19.13269844039335,2.3022830728974073,0.3005357243184432,Right,Correct,0.0,0.0,-45,45,976,-1,-1
"{'cat': 'II', 'resp': 'button'}",11,302,Left,56.95015035874296,69.12681840716942,2.847507517937148,1.0858415243699957,Left,Correct,0.0,0.0,-45,45,897,-1,-1
"{'cat': 'II', 'resp': 'button'}",11,303,Right,76.59292568450086,51.695164560521334,3.829646284225043,0.8120257460472462,Right,Correct,0.0,0.0,-45,45,686,-1,-1
"{'cat': 'II', 'resp': 'button'}",11,304,Left,42.69943383600243,66.41087144185377,2.1349716918001214,1.0431795292011201,Left,Correct,0.0,0.0,-45,45,1292,-1,-1
"{'cat': 'II', 'resp': 'button'}",11,305,Right,61.71582126971273,44.95114614451028,3.0857910634856363,0.7060909524901733,Left,Incorrect,0.0,0.0,-45,45,1131,-1,-1
"{'cat': 'II', 'resp': 'button'}",11,306,Left,50.48362982522454,68.90764168001063,2.524181491261227,1.0823987043905963,Left,Correct,0.0,0.0,-45,45,1385,-1,-1
"{'cat': 'II', 'resp': 'button'}",11,307,Right,54.85363944262398,41.72618031737249,2.742681972131199,0.6554333077371021,Right,Correct,0.0,0.0,-45,45,646,-1,-1
"{'cat': 'II', 'resp': 'button'}",11,308,Right,63.886663869192425,38.97630970775262,3.194333193459621,0.6122384412095809,Right,Correct,0.0,0.0,-45,45,851,-1,-1
"{'cat': 'II', 'resp': 'button'}",11,309,Right,53.466394096641515,31.407792206714134,2.6733197048320756,0.4933524463104394,Right,Correct,0.0,0.0,-45,45,921,-1,-1
"{'cat': 'II', 'resp': 'button'}",11,310,Right,47.80071835813962,24.544162672379045,2.390035917906981,0.3855388057002942,Right,Correct,0.0,0.0,-45,45,855,-1,-1
"{'cat': 'II', 'resp': 'button'}",11,311,Right,78.48299164512588,65.29039257647383,3.9241495822562937,1.0255790883412188,Left,Incorrect,0.0,0.0,-45,45,1194,-1,-1
"{'cat': 'II', 'resp': 'button'}",11,312,Left,31.905274072450183,53.51326582933389,1.5952637036225092,0.8405844139951653,Right,Incorrect,0.0,0.0,-45,45,1948,-1,-1
"{'cat': 'II', 'resp': 'button'}",11,313,Left,44.58893209497022,56.055144509631596,2.229446604748511,0.8805121509368642,Left,Correct,0.0,0.0,-45,45,939,-1,-1
"{'cat': 'II', 'resp': 'button'}",11,314,Left,36.864096829170904,53.62907408023497,1.8432048414585451,0.8424035257464448,Left,Correct,0.0,0.0,-45,45,840,-1,-1
"{'cat': 'II', 'resp': 'button'}",11,315,Left,55.576699135933566,63.252053293765556,2.778834956796678,0.9935609297608197,Left,Correct,0.0,0.0,-45,45,839,-1,-1
"{'cat': 'II', 'resp': 'button'}",11,316,Right,68.19269391103462,48.704141310149,3.409634695551731,0.7650428626968163,Left,Incorrect,0.0,0.0,-45,45,1424,-1,-1
"{'cat': 'II', 'resp': 'button'}",11,317,Right,84.93932436610044,65.5402159996419,4.246966218305022,1.0295033054958163,Right,Correct,0.0,0.0,-45,45,1370,-1,-1
"{'cat': 'II', 'resp': 'button'}",11,318,Left,67.25233966041202,82.90407526835544,3.362616983020601,1.3022541690786034,Right,Incorrect,0.0,0.0,-45,45,939,-1,-1
"{'cat': 'II', 'resp': 'button'}",11,319,Left,36.201911908479154,63.540750859132515,1.8100955954239577,0.9980957805131502,Left,Correct,0.0,0.0,-45,45,953,-1,-1
"{'cat': 'II', 'resp': 'button'}",11,320,Left,11.121797055880396,32.603965993545344,0.5560898527940198,0.5121419002160674,Left,Correct,0.0,0.0,-45,45,1399,-1,-1
"{'cat': 'II', 'resp': 'button'}",11,321,Left,12.005504508657367,30.686198378132808,0.6002752254328684,0.48201767695670533,Left,Correct,0.0,0.0,-45,45,1260,-1,-1
"{'cat': 'II', 'resp': 'button'}",11,322,Right,72.86243021115041,60.90693185575409,3.6431215105575205,0.9567238483536561,Left,Incorrect,0.0,0.0,-45,45,854,-1,-1
"{'cat': 'II', 'resp': 'button'}",11,323,Left,50.04683823316256,74.86482957584045,2.502341911658128,1.175973993038561,Right,Incorrect,0.0,0.0,-45,45,1226,-1,-1
"{'cat': 'II', 'resp': 'button'}",11,324,Right,67.73778501202149,49.92838318980617,3.3868892506010746,0.7842732091735559,Left,Incorrect,0.0,0.0,-45,45,3017,-1,-1
"{'cat': 'II', 'resp': 'button'}",11,325,Right,81.41851061958494,57.91778634341061,4.070925530979247,0.9097704604432102,Right,Correct,0.0,0.0,-45,45,1674,-1,-1
"{'cat': 'II', 'resp': 'button'}",11,326,Left,40.78638551680436,63.57861341677846,2.039319275840218,0.9986905241778834,Right,Incorrect,0.0,0.0,-45,45,727,-1,-1
"{'cat': 'II', 'resp': 'button'}",11,327,Left,47.77181068835368,68.98461122867226,2.388590534417684,1.0836077392337238,Right,Incorrect,0.0,0.0,-45,45,827,-1,-1
"{'cat': 'II', 'resp': 'button'}",11,328,Left,53.93703655227695,79.01264866004009,2.6968518276138473,1.2411277828552667,Left,Correct,0.0,0.0,-45,45,2208,-1,-1
"{'cat': 'II', 'resp': 'button'}",11,329,Right,47.18745571582242,27.095030830816455,2.359372785791121,0.4256077490344096,Right,Correct,0.0,0.0,-45,45,728,-1,-1
"{'cat': 'II', 'resp': 'button'}",11,330,Right,36.407675594639144,17.829694187744177,1.8203837797319573,0.28006818137984874,Right,Correct,0.0,0.0,-45,45,763,-1,-1
"{'cat': 'II', 'resp': 'button'}",11,331,Right,68.26857978698222,42.4353441258737,3.4134289893491108,0.666572826791998,Right,Correct,0.0,0.0,-45,45,812,-1,-1
"{'cat': 'II', 'resp': 'button'}",11,332,Left,47.107619036127616,54.44071677041664,2.355380951806381,0.8551527793105178,Right,Incorrect,0.0,0.0,-45,45,841,-1,-1
"{'cat': 'II', 'resp': 'button'}",11,333,Right,83.97401701130396,69.41864779390653,4.1987008505651975,1.0904255696573701,Left,Incorrect,0.0,0.0,-45,45,939,-1,-1
"{'cat': 'II', 'resp': 'button'}",11,334,Left,61.46812003700101,71.52482073565433,3.07340600185005,1.1235092568622926,Right,Incorrect,0.0,0.0,-45,45,1427,-1,-1
"{'cat': 'II', 'resp': 'button'}",11,335,Right,74.93615917210417,57.97062326038473,3.7468079586052085,0.910600420794231,Left,Incorrect,0.0,0.0,-45,45,5396,-1,-1
"{'cat': 'II', 'resp': 'button'}",11,336,Left,56.882698626202256,75.06003323730435,2.8441349313101125,1.1790402449826052,Right,Incorrect,0.0,0.0,-45,45,1194,-1,-1
"{'cat': 'II', 'resp': 'button'}",11,337,Right,64.81952795503364,48.166481892723866,3.240976397751682,0.7565973283172355,Left,Incorrect,0.0,0.0,-45,45,1456,-1,-1
"{'cat': 'II', 'resp': 'button'}",11,338,Left,45.781364830689846,68.36633539434868,2.2890682415344923,1.0738958851387084,Left,Correct,0.0,0.0,-45,45,1127,-1,-1
"{'cat': 'II', 'resp': 'button'}",11,339,Right,33.12061056369312,20.202653619614,1.656030528184656,0.31734254097199294,Right,Correct,0.0,0.0,-45,45,931,-1,-1
"{'cat': 'II', 'resp': 'button'}",11,340,Left,15.178658528179742,35.92933551999808,0.758932926408987,0.5643766825899438,Right,Incorrect,0.0,0.0,-45,45,901,-1,-1
"{'cat': 'II', 'resp': 'button'}",11,341,Left,24.36275597842617,52.81412161834814,1.2181377989213085,0.8296022824100019,Left,Correct,0.0,0.0,-45,45,1166,-1,-1
"{'cat': 'II', 'resp': 'button'}",11,342,Left,21.851815152398988,39.20340515815235,1.0925907576199494,0.6158056482027779,Left,Correct,0.0,0.0,-45,45,1833,-1,-1
"{'cat': 'II', 'resp': 'button'}",11,343,Right,58.5616480166266,30.557727123728213,2.92808240083133,0.47999965521153054,Left,Incorrect,0.0,0.0,-45,45,1374,-1,-1
"{'cat': 'II', 'resp': 'button'}",11,344,Left,35.669008111324615,50.61089057229123,1.7834504055662308,0.7949940100677353,Right,Incorrect,0.0,0.0,-45,45,1820,-1,-1
"{'cat': 'II', 'resp': 'button'}",11,345,Left,44.62176068348303,58.89726531511675,2.2310880341741517,0.9251560801524985,Left,Correct,0.0,0.0,-45,45,1236,-1,-1
"{'cat': 'II', 'resp': 'button'}",11,346,Right,53.21573562484731,32.21933468275956,2.6607867812423653,0.5061001257145412,Left,Incorrect,0.0,0.0,-45,45,1046,-1,-1
"{'cat': 'II', 'resp': 'button'}",11,347,Left,54.3841192768937,66.16306848716663,2.7192059638446846,1.039287049491205,Left,Correct,0.0,0.0,-45,45,1283,-1,-1
"{'cat': 'II', 'resp': 'button'}",11,348,Right,86.79851931011777,62.19407586459684,4.339925965505888,0.9769422591651185,Left,Incorrect,0.0,0.0,-45,45,765,-1,-1
"{'cat': 'II', 'resp': 'button'}",11,349,Left,68.49494740278666,82.47242371760724,3.4247473701393334,1.2954738023748977,Right,Incorrect,0.0,0.0,-45,45,1195,-1,-1
"{'cat': 'II', 'resp': 'button'}",11,350,Right,72.31716860668024,62.67407906279735,3.615858430334012,0.98448213177095,Right,Correct,0.0,0.0,-45,45,2658,-1,-1
"{'cat': 'II', 'resp': 'button'}",11,351,Left,57.30417367479599,67.26223788926669,2.8652086837398,1.0565527620846462,Right,Incorrect,0.0,0.0,-45,45,1030,-1,-1
"{'cat': 'II', 'resp': 'button'}",11,352,Left,28.06806079496717,56.31424891935996,1.4034030397483586,0.8845821534874412,Left,Correct,0.0,0.0,-45,45,1517,-1,-1
"{'cat': 'II', 'resp': 'button'}",11,353,Left,62.56608641615347,87.05166413554454,3.1283043208076733,1.367404342654964,Right,Incorrect,0.0,0.0,-45,45,1453,-1,-1
"{'cat': 'II', 'resp': 'button'}",11,354,Right,56.68842311250039,43.36367886825764,2.8344211556250194,0.6811550748257258,Right,Correct,0.0,0.0,-45,45,1261,-1,-1
"{'cat': 'II', 'resp': 'button'}",11,355,Right,51.41302975720558,33.144236190113496,2.5706514878602786,0.5206284446185276,Right,Correct,0.0,0.0,-45,45,898,-1,-1
"{'cat': 'II', 'resp': 'button'}",11,356,Right,44.44614839833788,28.259477129502237,2.222307419916894,0.4438988287216651,Right,Correct,0.0,0.0,-45,45,761,-1,-1
"{'cat': 'II', 'resp': 'button'}",11,357,Right,52.05929065192066,35.75387860247687,2.602964532596033,0.5616206117744131,Right,Correct,0.0,0.0,-45,45,1216,-1,-1
"{'cat': 'II', 'resp': 'button'}",11,358,Right,71.04822760048563,48.88314069407949,3.5524113800242816,0.7678545784445819,Left,Incorrect,0.0,0.0,-45,45,1688,-1,-1
"{'cat': 'II', 'resp': 'button'}",11,359,Right,42.43505390679874,24.38872888811992,2.121752695339937,0.38309725752655355,Left,Incorrect,0.0,0.0,-45,45,904,-1,-1
"{'cat': 'II', 'resp': 'button'}",11,360,Left,33.20898188515727,53.12999220676197,1.6604490942578636,0.8345639660102319,Right,Incorrect,0.0,0.0,-45,45,1001,-1,-1
"{'cat': 'II', 'resp': 'button'}",11,361,Right,33.90917403966937,16.845667973211746,1.6954587019834684,0.2646111337472744,Right,Correct,0.0,0.0,-45,45,2201,-1,-1
"{'cat': 'II', 'resp': 'button'}",11,362,Left,63.38058198585689,84.9378773320621,3.1690290992928447,1.3342010571895866,Left,Correct,0.0,0.0,-45,45,1667,-1,-1
"{'cat': 'II', 'resp': 'button'}",11,363,Left,38.394674981136774,57.21078252749767,1.9197337490568387,0.8986648704725498,Left,Correct,0.0,0.0,-45,45,863,-1,-1
"{'cat': 'II', 'resp': 'button'}",11,364,Right,52.49078060388135,39.81441076941858,2.6245390301940676,0.6254033019010588,Left,Incorrect,0.0,0.0,-45,45,1560,-1,-1
"{'cat': 'II', 'resp': 'button'}",11,365,Right,37.33761394477385,27.29958984276687,1.8668806972386927,0.42882095448025465,Right,Correct,0.0,0.0,-45,45,885,-1,-1
"{'cat': 'II', 'resp': 'button'}",11,366,Left,17.30549465714524,38.14618266716832,0.8652747328572619,0.5991988361483516,Right,Incorrect,0.0,0.0,-45,45,791,-1,-1
"{'cat': 'II', 'resp': 'button'}",11,367,Right,53.03185649585896,39.017413539716294,2.651592824792948,0.6128840986922381,Right,Correct,0.0,0.0,-45,45,718,-1,-1
"{'cat': 'II', 'resp': 'button'}",11,368,Right,50.65055139361378,21.181888884895898,2.5325275696806893,0.3327243325497212,Right,Correct,0.0,0.0,-45,45,902,-1,-1
"{'cat': 'II', 'resp': 'button'}",11,369,Left,52.36356730336748,73.3650974188194,2.618178365168374,1.1524162554043127,Left,Correct,0.0,0.0,-45,45,845,-1,-1
"{'cat': 'II', 'resp': 'button'}",11,370,Left,53.13159440804514,70.43171303082309,2.6565797204022568,1.1063387611868918,Left,Correct,0.0,0.0,-45,45,675,-1,-1
"{'cat': 'II', 'resp': 'button'}",11,371,Left,39.271469548364706,57.808570780982315,1.9635734774182354,0.9080549064002981,Right,Incorrect,0.0,0.0,-45,45,1343,-1,-1
"{'cat': 'II', 'resp': 'button'}",11,372,Right,69.20340818693916,41.96775578313992,3.460170409346958,0.6592279662798146,Left,Incorrect,0.0,0.0,-45,45,1600,-1,-1
"{'cat': 'II', 'resp': 'button'}",11,373,Left,11.357027820214327,33.177662261108466,0.5678513910107164,0.5211535001139084,Right,Incorrect,0.0,0.0,-45,45,2057,-1,-1
"{'cat': 'II', 'resp': 'button'}",11,374,Left,24.698706551408627,37.82383987100873,1.2349353275704313,0.5941354873465887,Right,Incorrect,0.0,0.0,-45,45,1417,-1,-1
"{'cat': 'II', 'resp': 'button'}",11,375,Left,43.63154935734095,73.0545662541184,2.1815774678670476,1.1475384432756357,Right,Incorrect,0.0,0.0,-45,45,1169,-1,-1
"{'cat': 'II', 'resp': 'button'}",11,376,Left,49.6047923746523,76.56435556330806,2.480239618732615,1.202670084822627,Left,Correct,0.0,0.0,-45,45,1090,-1,-1
"{'cat': 'II', 'resp': 'button'}",11,377,Right,64.27831536950005,32.75543312031017,3.2139157684750024,0.5145211402795912,Right,Correct,0.0,0.0,-45,45,1127,-1,-1
"{'cat': 'II', 'resp': 'button'}",11,378,Right,47.865796516302126,20.08079902946344,2.3932898258151063,0.31542845354587695,Right,Correct,0.0,0.0,-45,45,1040,-1,-1
"{'cat': 'II', 'resp': 'button'}",11,379,Left,39.40430089198063,66.71422043503524,1.9702150445990316,1.047944524043384,Left,Correct,0.0,0.0,-45,45,956,-1,-1
"{'cat': 'II', 'resp': 'button'}",11,380,Left,36.55282503881049,57.06904530953902,1.8276412519405243,0.8964384674591541,Left,Correct,0.0,0.0,-45,45,1528,-1,-1
"{'cat': 'II', 'resp': 'button'}",11,381,Right,45.47412800988243,37.30390375259038,2.2737064004941216,0.5859683498967934,Right,Correct,0.0,0.0,-45,45,910,-1,-1
"{'cat': 'II', 'resp': 'button'}",11,382,Left,42.575794275445745,56.93030733390379,2.128789713772287,0.8942591764340063,Right,Incorrect,0.0,0.0,-45,45,644,-1,-1
"{'cat': 'II', 'resp': 'button'}",11,383,Right,47.29788031541142,18.702167047872095,2.364894015770571,0.29377295301902046,Right,Correct,0.0,0.0,-45,45,1282,-1,-1
"{'cat': 'II', 'resp': 'button'}",11,384,Right,52.062861950349,28.62440488433221,2.60314309751745,0.44963110048998933,Right,Correct,0.0,0.0,-45,45,657,-1,-1
"{'cat': 'II', 'resp': 'button'}",11,385,Left,48.48960155761967,64.20669022421006,2.4244800778809834,1.0085563315984696,Left,Correct,0.0,0.0,-45,45,1007,-1,-1
"{'cat': 'II', 'resp': 'button'}",11,386,Right,50.15569866860018,20.001875613043854,2.507784933430009,0.31418872741977705,Right,Correct,0.0,0.0,-45,45,682,-1,-1
"{'cat': 'II', 'resp': 'button'}",11,387,Left,53.29142718142676,78.08513228704552,2.664571359071338,1.226558389737847,Left,Correct,0.0,0.0,-45,45,907,-1,-1
"{'cat': 'II', 'resp': 'button'}",11,388,Right,67.81527952373315,36.40400723775001,3.3907639761866575,0.5718328084967255,Right,Correct,0.0,0.0,-45,45,720,-1,-1
"{'cat': 'II', 'resp': 'button'}",11,389,Right,59.64100952484832,29.35303471481739,2.9820504762424163,0.4610763911031824,Right,Correct,0.0,0.0,-45,45,674,-1,-1
"{'cat': 'II', 'resp': 'button'}",11,390,Left,34.08294395040004,50.16037970137392,1.7041471975200022,0.7879174018555546,Right,Incorrect,0.0,0.0,-45,45,808,-1,-1
"{'cat': 'II', 'resp': 'button'}",11,391,Right,53.05725113909517,28.09260880251209,2.6528625569547586,0.44127766717071976,Right,Correct,0.0,0.0,-45,45,1273,-1,-1
"{'cat': 'II', 'resp': 'button'}",11,392,Right,60.85305724251408,30.246243634427074,3.042652862125704,0.47510688400301565,Right,Correct,0.0,0.0,-45,45,652,-1,-1
"{'cat': 'II', 'resp': 'button'}",11,393,Left,61.58691637571293,78.84708496316517,3.0793458187856464,1.2385271143862497,Left,Correct,0.0,0.0,-45,45,698,-1,-1
"{'cat': 'II', 'resp': 'button'}",11,394,Left,58.33803615352333,78.37419224186407,2.9169018076761666,1.2310989328903716,Left,Correct,0.0,0.0,-45,45,598,-1,-1
"{'cat': 'II', 'resp': 'button'}",11,395,Right,41.20656117199342,19.338813380297225,2.060328058599671,0.30377337022342876,Right,Correct,0.0,0.0,-45,45,573,-1,-1
"{'cat': 'II', 'resp': 'button'}",11,396,Left,32.32361022974463,43.82740708063704,1.6161805114872316,0.6884393005520929,Left,Correct,0.0,0.0,-45,45,1317,-1,-1
"{'cat': 'II', 'resp': 'button'}",11,397,Left,26.190829017536863,52.40262486365025,1.309541450876843,0.8231385065023273,Left,Correct,0.0,0.0,-45,45,834,-1,-1
"{'cat': 'II', 'resp': 'button'}",11,398,Right,79.63516030614414,63.396602906797966,3.981758015307207,0.995831509772729,Left,Incorrect,0.0,0.0,-45,45,687,-1,-1
"{'cat': 'II', 'resp': 'button'}",11,399,Right,43.292519525487634,18.560362201734357,2.164625976274382,0.29154548770467165,Left,Incorrect,0.0,0.0,-45,45,1505,-1,-1
