condition,subject,trial,cat,x,y,xt,yt,resp,fb,rotation,su,target_angle_left,target_angle_right,rt,mt,ep
"{'cat': 'RB', 'resp': 'button'}",1,0,Right,58.85993129651769,79.50419288959566,2.9429965648258847,1.2488489415576978,Right,Correct,0.0,0.0,-45,45,4326,-1,-1
"{'cat': 'RB', 'resp': 'button'}",1,1,Left,37.02671490283778,36.759894160462196,1.8513357451418893,0.5774230672062318,Right,Incorrect,0.0,0.0,-45,45,3494,-1,-1
"{'cat': 'RB', 'resp': 'button'}",1,2,Right,66.03915121571752,30.0402924624399,3.301957560785876,0.4718718105584502,Left,Incorrect,0.0,0.0,-45,45,5899,-1,-1
"{'cat': 'RB', 'resp': 'button'}",1,3,Right,56.49662336230632,43.93987719866817,2.824831168115316,0.690205977034868,Right,Correct,0.0,0.0,-45,45,4411,-1,-1
"{'cat': 'RB', 'resp': 'button'}",1,4,Right,56.389698393183124,43.6481393329498,2.8194849196591565,0.685623369356294,Left,Incorrect,0.0,0.0,-45,45,2743,-1,-1
"{'cat': 'RB', 'resp': 'button'}",1,5,Right,60.096232820804836,29.707323519285143,3.004811641040242,0.46664154663000745,Left,Incorrect,0.0,0.0,-45,45,3572,-1,-1
"{'cat': 'RB', 'resp': 'button'}",1,6,Left,32.88076562965595,37.29410543707611,1.6440382814827972,0.5858144383166075,Right,Incorrect,0.0,0.0,-45,45,3047,-1,-1
"{'cat': 'RB', 'resp': 'button'}",1,7,Left,39.751081783237474,73.12741819779697,1.9875540891618737,1.1486827989309378,Left,Correct,0.0,0.0,-45,45,2828,-1,-1
"{'cat': 'RB', 'resp': 'button'}",1,8,Left,36.88773723011048,30.371990967456238,1.844386861505524,0.47708211849128035,Left,Correct,0.0,0.0,-45,45,910,-1,-1
"{'cat': 'RB', 'resp': 'button'}",1,9,Left,45.184483016852745,16.09503126650351,2.259224150842637,0.25282015993072726,Left,Correct,0.0,0.0,-45,45,1085,-1,-1
"{'cat': 'RB', 'resp': 'button'}",1,10,Right,56.200835084261314,53.28311661876143,2.810041754213066,0.8369692386493456,Right,Correct,0.0,0.0,-45,45,858,-1,-1
"{'cat': 'RB', 'resp': 'button'}",1,11,Left,36.77685129866368,20.75126298520536,1.8388425649331839,0.3259600767351548,Left,Correct,0.0,0.0,-45,45,703,-1,-1
"{'cat': 'RB', 'resp': 'button'}",1,12,Right,62.41692861810398,57.164848167807875,3.120846430905199,0.8979433352378059,Right,Correct,0.0,0.0,-45,45,670,-1,-1
"{'cat': 'RB', 'resp': 'button'}",1,13,Right,67.0553707358878,55.455563498215675,3.35276853679439,0.8710939544333832,Right,Correct,0.0,0.0,-45,45,641,-1,-1
"{'cat': 'RB', 'resp': 'button'}",1,14,Left,41.16011771803187,82.46611255185977,2.0580058859015935,1.2953746668151582,Left,Correct,0.0,0.0,-45,45,1227,-1,-1
"{'cat': 'RB', 'resp': 'button'}",1,15,Right,63.6717020269105,75.4361652165413,3.1835851013455247,1.1849485122963601,Right,Correct,0.0,0.0,-45,45,960,-1,-1
"{'cat': 'RB', 'resp': 'button'}",1,16,Left,46.73029155412461,27.416474577329133,2.3365145777062306,0.4306569755973427,Left,Correct,0.0,0.0,-45,45,1003,-1,-1
"{'cat': 'RB', 'resp': 'button'}",1,17,Right,62.07818112026625,70.80708077215176,3.103909056013313,1.1122350238796554,Right,Correct,0.0,0.0,-45,45,693,-1,-1
"{'cat': 'RB', 'resp': 'button'}",1,18,Left,45.625360764804135,69.0929325322559,2.281268038240207,1.0853092462915517,Left,Correct,0.0,0.0,-45,45,1276,-1,-1
"{'cat': 'RB', 'resp': 'button'}",1,19,Left,43.15101735009048,88.014980476527,2.157550867504524,1.3825360803545315,Left,Correct,0.0,0.0,-45,45,752,-1,-1
"{'cat': 'RB', 'resp': 'button'}",1,20,Left,39.12187741897104,59.82369644761438,1.956093870948552,0.9397084263520558,Left,Correct,0.0,0.0,-45,45,850,-1,-1
"{'cat': 'RB', 'resp': 'button'}",1,21,Right,67.26199942361146,74.19901659405653,3.3630999711805725,1.1655154271773758,Right,Correct,0.0,0.0,-45,45,703,-1,-1
"{'cat': 'RB', 'resp': 'button'}",1,22,Right,61.06399227317345,75.95629327143155,3.0531996136586725,1.1931186646772058,Right,Correct,0.0,0.0,-45,45,750,-1,-1
"{'cat': 'RB', 'resp': 'button'}",1,23,Right,61.8421680113581,50.17792395737899,3.092108400567905,0.7881929863844456,Right,Correct,0.0,0.0,-45,45,595,-1,-1
"{'cat': 'RB', 'resp': 'button'}",1,24,Right,53.976215008711485,21.999209775306944,2.698810750435574,0.3455627790744253,Right,Correct,0.0,0.0,-45,45,1028,-1,-1
"{'cat': 'RB', 'resp': 'button'}",1,25,Left,32.398210518750155,26.754864097302253,1.6199105259375077,0.42026442247939033,Left,Correct,0.0,0.0,-45,45,615,-1,-1
"{'cat': 'RB', 'resp': 'button'}",1,26,Right,65.51634130633948,77.28592544704186,3.275817065316974,1.2140044780515757,Right,Correct,0.0,0.0,-45,45,652,-1,-1
"{'cat': 'RB', 'resp': 'button'}",1,27,Left,34.67403009397172,22.891403079314824,1.7337015046985862,0.359577318721691,Left,Correct,0.0,0.0,-45,45,556,-1,-1
"{'cat': 'RB', 'resp': 'button'}",1,28,Right,54.539585100950084,53.52304509661955,2.726979255047504,0.8407380263664758,Right,Correct,0.0,0.0,-45,45,630,-1,-1
"{'cat': 'RB', 'resp': 'button'}",1,29,Right,61.98094278059443,37.182495113287814,3.0990471390297216,0.5840612674502169,Right,Correct,0.0,0.0,-45,45,879,-1,-1
"{'cat': 'RB', 'resp': 'button'}",1,30,Right,58.226627954428636,48.401218827274306,2.911331397721432,0.7602845674627848,Right,Correct,0.0,0.0,-45,45,625,-1,-1
"{'cat': 'RB', 'resp': 'button'}",1,31,Right,59.609044457534,53.124103960918994,2.9804522228766994,0.8344714736608178,Right,Correct,0.0,0.0,-45,45,595,-1,-1
"{'cat': 'RB', 'resp': 'button'}",1,32,Right,58.08445693504794,50.07514185995179,2.9042228467523965,0.7865784889734564,Right,Correct,0.0,0.0,-45,45,500,-1,-1
"{'cat': 'RB', 'resp': 'button'}",1,33,Right,66.38034447879394,45.94336139745521,3.3190172239396976,0.7216766332373309,Right,Correct,0.0,0.0,-45,45,650,-1,-1
"{'cat': 'RB', 'resp': 'button'}",1,34,Left,38.65971761832558,88.95416925391615,1.932985880916279,1.3972888231714302,Left,Correct,0.0,0.0,-45,45,500,-1,-1
"{'cat': 'RB', 'resp': 'button'}",1,35,Left,43.293136693085785,87.43244567635469,2.164656834654289,1.3733856451111228,Left,Correct,0.0,0.0,-45,45,522,-1,-1
"{'cat': 'RB', 'resp': 'button'}",1,36,Left,34.696430248496064,67.76657137305789,1.7348215124248032,1.0644748139228353,Left,Correct,0.0,0.0,-45,45,560,-1,-1
"{'cat': 'RB', 'resp': 'button'}",1,37,Left,46.86525485424015,61.895981645907796,2.3432627427120076,0.972259806127563,Left,Correct,0.0,0.0,-45,45,2134,-1,-1
"{'cat': 'RB', 'resp': 'button'}",1,38,Left,34.2054205465289,45.1395097658323,1.710271027326445,0.7090497613349174,Left,Correct,0.0,0.0,-45,45,583,-1,-1
"{'cat': 'RB', 'resp': 'button'}",1,39,Right,51.464789732912394,46.05104626447066,2.5732394866456194,0.7233681431729236,Left,Incorrect,0.0,0.0,-45,45,611,-1,-1
"{'cat': 'RB', 'resp': 'button'}",1,40,Right,69.33947991327481,53.67510618373781,3.466973995663741,0.8431265963374138,Right,Correct,0.0,0.0,-45,45,593,-1,-1
"{'cat': 'RB', 'resp': 'button'}",1,41,Left,35.393075605400256,31.032981977533,1.769653780270013,0.4874649409980106,Left,Correct,0.0,0.0,-45,45,475,-1,-1
"{'cat': 'RB', 'resp': 'button'}",1,42,Left,43.63497173156401,53.10608565124092,2.1817485865782005,0.834188442714244,Left,Correct,0.0,0.0,-45,45,1093,-1,-1
"{'cat': 'RB', 'resp': 'button'}",1,43,Right,52.993135421668356,42.47177638233001,2.649656771083418,0.6671451033381822,Right,Correct,0.0,0.0,-45,45,941,-1,-1
"{'cat': 'RB', 'resp': 'button'}",1,44,Right,68.42979293674864,41.2326478507876,3.421489646837432,0.6476809178804465,Right,Correct,0.0,0.0,-45,45,521,-1,-1
"{'cat': 'RB', 'resp': 'button'}",1,45,Right,65.57699827763852,34.027075821562995,3.278849913881926,0.5344960571208259,Right,Correct,0.0,0.0,-45,45,574,-1,-1
"{'cat': 'RB', 'resp': 'button'}",1,46,Right,52.62692549567568,65.90334259186203,2.631346274783784,1.0352072846680254,Right,Correct,0.0,0.0,-45,45,1275,-1,-1
"{'cat': 'RB', 'resp': 'button'}",1,47,Left,36.650988563810905,75.44543796191077,1.8325494281905452,1.185094168240017,Left,Correct,0.0,0.0,-45,45,563,-1,-1
"{'cat': 'RB', 'resp': 'button'}",1,48,Left,36.31925035234402,30.634681055172415,1.8159625176172012,0.4812084447399803,Left,Correct,0.0,0.0,-45,45,561,-1,-1
"{'cat': 'RB', 'resp': 'button'}",1,49,Left,40.420028758514576,79.41095592832498,2.0210014379257286,1.247384378794843,Left,Correct,0.0,0.0,-45,45,553,-1,-1
"{'cat': 'RB', 'resp': 'button'}",1,50,Right,59.251289309557535,46.896747332175316,2.9625644654778767,0.7366523844800936,Right,Correct,0.0,0.0,-45,45,748,-1,-1
"{'cat': 'RB', 'resp': 'button'}",1,51,Left,45.2271183699296,83.55458436382958,2.2613559184964798,1.312472342055778,Left,Correct,0.0,0.0,-45,45,579,-1,-1
"{'cat': 'RB', 'resp': 'button'}",1,52,Right,57.11776453985978,11.709403262646333,2.8558882269929886,0.18393087633925037,Left,Incorrect,0.0,0.0,-45,45,614,-1,-1
"{'cat': 'RB', 'resp': 'button'}",1,53,Right,64.7183746995433,28.26262476299962,3.235918734977165,0.44394827163302286,Right,Correct,0.0,0.0,-45,45,644,-1,-1
"{'cat': 'RB', 'resp': 'button'}",1,54,Left,45.05147857352425,19.539183405416626,2.2525739286762128,0.3069207752180024,100,Correct,0.0,0.0,-45,45,946,-1,-1
"{'cat': 'RB', 'resp': 'button'}",1,55,Right,54.134395941550174,36.07492162681899,2.706719797077509,0.5666635438082106,Right,Correct,0.0,0.0,-45,45,836,-1,-1
"{'cat': 'RB', 'resp': 'button'}",1,56,Left,39.001264362276544,12.60270223220531,1.950063218113827,0.19796278374037943,Left,Correct,0.0,0.0,-45,45,539,-1,-1
"{'cat': 'RB', 'resp': 'button'}",1,57,Right,54.53282261255426,20.38617843028837,2.7266411306277134,0.32022534195682323,Right,Correct,0.0,0.0,-45,45,1495,-1,-1
"{'cat': 'RB', 'resp': 'button'}",1,58,Right,51.28169181173212,42.98938134586447,2.5640845905866056,0.6752756230926895,Left,Incorrect,0.0,0.0,-45,45,1487,-1,-1
"{'cat': 'RB', 'resp': 'button'}",1,59,Left,40.27165729022274,50.36884601922978,2.0135828645111373,0.7911919831190388,Left,Correct,0.0,0.0,-45,45,745,-1,-1
"{'cat': 'RB', 'resp': 'button'}",1,60,Right,54.80895099099018,36.358589254067894,2.740447549549509,0.5711193844773426,Right,Correct,0.0,0.0,-45,45,742,-1,-1
"{'cat': 'RB', 'resp': 'button'}",1,61,Left,42.63367884663494,14.558738703205265,2.131683942331747,0.22868813277761527,Left,Correct,0.0,0.0,-45,45,853,-1,-1
"{'cat': 'RB', 'resp': 'button'}",1,62,Left,34.53947224322137,49.92560335595185,1.7269736121610686,0.7842295436454813,Left,Correct,0.0,0.0,-45,45,495,-1,-1
"{'cat': 'RB', 'resp': 'button'}",1,63,Left,44.667701267582,72.33800784419026,2.2333850633791,1.1362827700931446,Left,Correct,0.0,0.0,-45,45,779,-1,-1
"{'cat': 'RB', 'resp': 'button'}",1,64,Left,33.63964175791811,74.0466285124199,1.6819820878959058,1.1631217207885542,Left,Correct,0.0,0.0,-45,45,517,-1,-1
"{'cat': 'RB', 'resp': 'button'}",1,65,Left,39.66387503012982,74.22050694103129,1.983193751506491,1.165852996758271,Left,Correct,0.0,0.0,-45,45,456,-1,-1
"{'cat': 'RB', 'resp': 'button'}",1,66,Right,64.19080824057605,69.29817203270463,3.2095404120288027,1.0885331408257326,Right,Correct,0.0,0.0,-45,45,620,-1,-1
"{'cat': 'RB', 'resp': 'button'}",1,67,Right,61.52719745167867,43.60201570295191,3.0763598725839336,0.6848988610705027,Right,Correct,0.0,0.0,-45,45,697,-1,-1
"{'cat': 'RB', 'resp': 'button'}",1,68,Right,53.83258453235662,80.51869171169677,2.691629226617831,1.2647846517906398,Right,Correct,0.0,0.0,-45,45,1994,-1,-1
"{'cat': 'RB', 'resp': 'button'}",1,69,Left,42.661220141512004,10.342410147678713,2.1330610070756,0.16245819870179987,Left,Correct,0.0,0.0,-45,45,562,-1,-1
"{'cat': 'RB', 'resp': 'button'}",1,70,Right,58.50613115319717,34.385363612013485,2.9253065576598583,0.5401240285725767,Right,Correct,0.0,0.0,-45,45,1044,-1,-1
"{'cat': 'RB', 'resp': 'button'}",1,71,Left,47.33900979800171,30.120809541021607,2.3669504899000855,0.4731365698712542,Left,Correct,0.0,0.0,-45,45,793,-1,-1
"{'cat': 'RB', 'resp': 'button'}",1,72,Left,48.899760059226594,48.19151096646674,2.44498800296133,0.7569904840882192,Right,Incorrect,0.0,0.0,-45,45,1647,-1,-1
"{'cat': 'RB', 'resp': 'button'}",1,73,Right,53.39337115776607,69.24546597353094,2.6696685578883033,1.0877052359842339,Left,Incorrect,0.0,0.0,-45,45,885,-1,-1
"{'cat': 'RB', 'resp': 'button'}",1,74,Left,37.409840107422475,53.052933369896515,1.8704920053711236,0.8333535286312784,Left,Correct,0.0,0.0,-45,45,618,-1,-1
"{'cat': 'RB', 'resp': 'button'}",1,75,Left,37.39338244401819,60.289095778609564,1.8696691222009094,0.9470189019482561,Left,Correct,0.0,0.0,-45,45,625,-1,-1
"{'cat': 'RB', 'resp': 'button'}",1,76,Left,44.16564012924361,60.08343555837007,2.2082820064621806,0.943788398763056,Left,Correct,0.0,0.0,-45,45,661,-1,-1
"{'cat': 'RB', 'resp': 'button'}",1,77,Right,60.59212584860579,38.112639941124016,3.0296062924302896,0.5986719482397407,Right,Correct,0.0,0.0,-45,45,611,-1,-1
"{'cat': 'RB', 'resp': 'button'}",1,78,Left,40.72018014130687,62.058640565135796,2.0360090070653434,0.9748148464560008,Left,Correct,0.0,0.0,-45,45,1325,-1,-1
"{'cat': 'RB', 'resp': 'button'}",1,79,Left,34.50256668032017,53.30156184614006,1.7251283340160086,0.837258975603478,Left,Correct,0.0,0.0,-45,45,493,-1,-1
"{'cat': 'RB', 'resp': 'button'}",1,80,Left,46.994216242430824,73.37813356878456,2.349710812121541,1.1526210267691208,Left,Correct,0.0,0.0,-45,45,737,-1,-1
"{'cat': 'RB', 'resp': 'button'}",1,81,Right,58.631424185741736,81.64373024549461,2.9315712092870867,1.2824567157545632,Right,Correct,0.0,0.0,-45,45,1472,-1,-1
"{'cat': 'RB', 'resp': 'button'}",1,82,Right,64.47595482270265,75.90738217232521,3.223797741135132,1.1923503709290488,Right,Correct,0.0,0.0,-45,45,655,-1,-1
"{'cat': 'RB', 'resp': 'button'}",1,83,Right,64.93943281886261,65.20451008019727,3.2469716409431304,1.0242300492443468,Right,Correct,0.0,0.0,-45,45,831,-1,-1
"{'cat': 'RB', 'resp': 'button'}",1,84,Right,63.041813388526386,51.868661764128916,3.152090669426319,0.814751033748606,Right,Correct,0.0,0.0,-45,45,608,-1,-1
"{'cat': 'RB', 'resp': 'button'}",1,85,Left,32.32789591279565,65.02120557873056,1.6163947956397822,1.021350708868458,Left,Correct,0.0,0.0,-45,45,586,-1,-1
"{'cat': 'RB', 'resp': 'button'}",1,86,Right,55.16706462689595,81.85621382273028,2.758353231344797,1.2857943999808237,Right,Correct,0.0,0.0,-45,45,3681,-1,-1
"{'cat': 'RB', 'resp': 'button'}",1,87,Right,60.075902675574014,77.99940267209169,3.0037951337787008,1.2252117520951769,Right,Correct,0.0,0.0,-45,45,703,-1,-1
"{'cat': 'RB', 'resp': 'button'}",1,88,Right,65.75595251739598,82.7905034602187,3.2877976258697994,1.300470187288117,Right,Correct,0.0,0.0,-45,45,547,-1,-1
"{'cat': 'RB', 'resp': 'button'}",1,89,Left,46.929348063198276,44.40347648916967,2.346467403159914,0.6974881776611126,Left,Correct,0.0,0.0,-45,45,906,-1,-1
"{'cat': 'RB', 'resp': 'button'}",1,90,Left,36.30678628003476,66.49010657047944,1.815339314001738,1.0444241516911033,Left,Correct,0.0,0.0,-45,45,619,-1,-1
"{'cat': 'RB', 'resp': 'button'}",1,91,Left,37.30477871543415,81.13716822593676,1.8652389357717079,1.2744996581584107,Left,Correct,0.0,0.0,-45,45,549,-1,-1
"{'cat': 'RB', 'resp': 'button'}",1,92,Right,57.402181131834716,60.52479387685351,2.870109056591736,0.9507212390177974,Right,Correct,0.0,0.0,-45,45,656,-1,-1
"{'cat': 'RB', 'resp': 'button'}",1,93,Right,61.85371896323321,11.267951883692113,3.0926859481616606,0.17699657429405208,Right,Correct,0.0,0.0,-45,45,522,-1,-1
"{'cat': 'RB', 'resp': 'button'}",1,94,Left,42.73801105922399,46.968000925212145,2.1369005529611997,0.7377716333022254,Left,Correct,0.0,0.0,-45,45,671,-1,-1
"{'cat': 'RB', 'resp': 'button'}",1,95,Right,61.32524619666356,50.339863306134504,3.066262309833178,0.7907367237263329,Right,Correct,0.0,0.0,-45,45,787,-1,-1
"{'cat': 'RB', 'resp': 'button'}",1,96,Left,38.588376904593,10.743347279386356,1.92941884522965,0.16875610443942032,Left,Correct,0.0,0.0,-45,45,594,-1,-1
"{'cat': 'RB', 'resp': 'button'}",1,97,Left,40.44622293767674,90.08295887843883,2.022311146883837,1.4150198091306745,Left,Correct,0.0,0.0,-45,45,542,-1,-1
"{'cat': 'RB', 'resp': 'button'}",1,98,Right,57.66123872034884,69.2304578884573,2.8830619360174423,1.087469489535175,Right,Correct,0.0,0.0,-45,45,587,-1,-1
"{'cat': 'RB', 'resp': 'button'}",1,99,Right,59.50307323687322,38.32238146338696,2.975153661843661,0.6019665603672107,Right,Correct,0.0,0.0,-45,45,1162,-1,-1
"{'cat': 'RB', 'resp': 'button'}",1,100,Right,55.605855062776406,14.541132656120311,2.78029275313882,0.22841157763671102,Right,Correct,0.0,0.0,-45,45,2926,-1,-1
"{'cat': 'RB', 'resp': 'button'}",1,101,Right,52.33879579151142,65.41018321268984,2.6169397895755715,1.0274607552547441,Right,Correct,0.0,0.0,-45,45,769,-1,-1
"{'cat': 'RB', 'resp': 'button'}",1,102,Right,63.64628463487413,45.11168492331186,3.1823142317437068,0.7086126897306698,Right,Correct,0.0,0.0,-45,45,658,-1,-1
"{'cat': 'RB', 'resp': 'button'}",1,103,Right,60.85341171262583,30.880301566082895,3.0426705856312912,0.48506664270321703,Right,Correct,0.0,0.0,-45,45,819,-1,-1
"{'cat': 'RB', 'resp': 'button'}",1,104,Right,56.57110294259165,64.00047034878533,2.828555147129583,1.005317037370177,Right,Correct,0.0,0.0,-45,45,778,-1,-1
"{'cat': 'RB', 'resp': 'button'}",1,105,Right,66.55099939596792,63.01622036377351,3.3275499697983957,0.989856474759132,Right,Correct,0.0,0.0,-45,45,588,-1,-1
"{'cat': 'RB', 'resp': 'button'}",1,106,Left,38.738649170283885,41.096797552183375,1.9369324585141943,0.6455469863800314,Left,Correct,0.0,0.0,-45,45,571,-1,-1
"{'cat': 'RB', 'resp': 'button'}",1,107,Left,35.766923541993584,70.41382184084583,1.7883461770996791,1.1060577270319087,Left,Correct,0.0,0.0,-45,45,557,-1,-1
"{'cat': 'RB', 'resp': 'button'}",1,108,Right,59.467782327665766,65.61559530723709,2.9733891163832884,1.0306873608906846,Right,Correct,0.0,0.0,-45,45,926,-1,-1
"{'cat': 'RB', 'resp': 'button'}",1,109,Left,38.7768219518848,23.693641518075815,1.93884109759424,0.37217885064988543,Left,Correct,0.0,0.0,-45,45,566,-1,-1
"{'cat': 'RB', 'resp': 'button'}",1,110,Right,66.81244802698424,23.956544614520688,3.3406224013492123,0.37630852283187155,Right,Correct,0.0,0.0,-45,45,528,-1,-1
"{'cat': 'RB', 'resp': 'button'}",1,111,Right,55.254007803280196,33.53506086973631,2.7627003901640097,0.5267675043302507,Right,Correct,0.0,0.0,-45,45,497,-1,-1
"{'cat': 'RB', 'resp': 'button'}",1,112,Left,46.00392738920664,36.21921977381305,2.300196369460332,0.5689301738008262,Left,Correct,0.0,0.0,-45,45,641,-1,-1
"{'cat': 'RB', 'resp': 'button'}",1,113,Right,59.406254780604954,16.15855413294107,2.970312739030248,0.25381797478340323,Right,Correct,0.0,0.0,-45,45,603,-1,-1
"{'cat': 'RB', 'resp': 'button'}",1,114,Right,54.381451478598805,45.7618200406782,2.7190725739299406,0.718824988273464,Right,Correct,0.0,0.0,-45,45,713,-1,-1
"{'cat': 'RB', 'resp': 'button'}",1,115,Right,51.396912728546866,51.87123219468702,2.569845636427343,0.8147914099773955,Right,Correct,0.0,0.0,-45,45,796,-1,-1
"{'cat': 'RB', 'resp': 'button'}",1,116,Left,41.511647144082396,66.92264590042872,2.07558235720412,1.0512184635978898,Left,Correct,0.0,0.0,-45,45,682,-1,-1
"{'cat': 'RB', 'resp': 'button'}",1,117,Right,61.92227600200876,48.99108694382224,3.096113800100438,0.769550194170454,Right,Correct,0.0,0.0,-45,45,595,-1,-1
"{'cat': 'RB', 'resp': 'button'}",1,118,Left,46.763615463873585,58.98611947754706,2.3381807731936792,0.9265517980721582,Left,Correct,0.0,0.0,-45,45,1456,-1,-1
"{'cat': 'RB', 'resp': 'button'}",1,119,Right,66.29676083016452,20.950026794603694,3.314838041508226,0.3290822513521814,Right,Correct,0.0,0.0,-45,45,643,-1,-1
"{'cat': 'RB', 'resp': 'button'}",1,120,Left,34.6855265769764,71.61835662735328,1.73427632884882,1.1249785152133347,Left,Correct,0.0,0.0,-45,45,570,-1,-1
"{'cat': 'RB', 'resp': 'button'}",1,121,Left,42.91123022118222,73.9830147215624,2.1455615110591113,1.1621224776984298,Left,Correct,0.0,0.0,-45,45,531,-1,-1
"{'cat': 'RB', 'resp': 'button'}",1,122,Left,40.074765618938265,75.46455524568097,2.0037382809469135,1.1853944618312622,Left,Correct,0.0,0.0,-45,45,679,-1,-1
"{'cat': 'RB', 'resp': 'button'}",1,123,Right,61.526985265102574,49.26295992750269,3.076349263255129,0.7738207650116541,Right,Correct,0.0,0.0,-45,45,567,-1,-1
"{'cat': 'RB', 'resp': 'button'}",1,124,Left,43.34279792463503,29.65968640231993,2.167139896231751,0.46589326454652685,Left,Correct,0.0,0.0,-45,45,1137,-1,-1
"{'cat': 'RB', 'resp': 'button'}",1,125,Right,66.291702129018,32.641378710649214,3.3145851064509,0.5127295778020893,Right,Correct,0.0,0.0,-45,45,547,-1,-1
"{'cat': 'RB', 'resp': 'button'}",1,126,Left,41.2319467087505,83.53339257695906,2.061597335437525,1.3121394622460336,Left,Correct,0.0,0.0,-45,45,617,-1,-1
"{'cat': 'RB', 'resp': 'button'}",1,127,Right,63.050174935484826,25.793085645106814,3.152508746774241,0.4051568418803996,Right,Correct,0.0,0.0,-45,45,555,-1,-1
"{'cat': 'RB', 'resp': 'button'}",1,128,Right,53.94881798814489,64.9303840632262,2.6974408994072445,1.0199240878389761,Right,Correct,0.0,0.0,-45,45,633,-1,-1
"{'cat': 'RB', 'resp': 'button'}",1,129,Right,55.094765588119905,53.79786193990036,2.754738279405995,0.8450548392461446,Right,Correct,0.0,0.0,-45,45,450,-1,-1
"{'cat': 'RB', 'resp': 'button'}",1,130,Left,41.85375285862248,27.070148275110192,2.0926876429311236,0.42521689476336294,Left,Correct,0.0,0.0,-45,45,571,-1,-1
"{'cat': 'RB', 'resp': 'button'}",1,131,Right,66.32303951454169,56.83319830092391,3.3161519757270845,0.8927337913109723,Right,Correct,0.0,0.0,-45,45,528,-1,-1
"{'cat': 'RB', 'resp': 'button'}",1,132,Right,65.79888762028278,76.45741051628646,3.2899443810141396,1.2009901959523226,Right,Correct,0.0,0.0,-45,45,564,-1,-1
"{'cat': 'RB', 'resp': 'button'}",1,133,Left,34.26385308883509,38.81989959297272,1.7131926544417546,0.6097815568718824,Left,Correct,0.0,0.0,-45,45,538,-1,-1
"{'cat': 'RB', 'resp': 'button'}",1,134,Left,36.989152435290656,13.743800137692034,1.8494576217645329,0.21588710772489839,Left,Correct,0.0,0.0,-45,45,693,-1,-1
"{'cat': 'RB', 'resp': 'button'}",1,135,Right,63.73571890869514,70.94779947240012,3.186785945434757,1.11444542805427,Right,Correct,0.0,0.0,-45,45,547,-1,-1
"{'cat': 'RB', 'resp': 'button'}",1,136,Right,53.08992559134204,41.348218683661294,2.654496279567102,0.6494963002780727,Right,Correct,0.0,0.0,-45,45,901,-1,-1
"{'cat': 'RB', 'resp': 'button'}",1,137,Left,31.525807410965044,48.63294700498729,1.5762903705482523,0.7639245451664488,Left,Correct,0.0,0.0,-45,45,548,-1,-1
"{'cat': 'RB', 'resp': 'button'}",1,138,Right,60.501302074096614,70.20258844589772,3.0250651037048306,1.1027396806230998,Right,Correct,0.0,0.0,-45,45,517,-1,-1
"{'cat': 'RB', 'resp': 'button'}",1,139,Right,62.14725175729343,57.341064305567755,3.1073625878646713,0.9007113318569578,Right,Correct,0.0,0.0,-45,45,540,-1,-1
"{'cat': 'RB', 'resp': 'button'}",1,140,Right,54.31272276447885,73.29997696934441,2.7156361382239425,1.1513933457759673,Right,Correct,0.0,0.0,-45,45,952,-1,-1
"{'cat': 'RB', 'resp': 'button'}",1,141,Left,45.367291067370424,80.74254330012093,2.2683645533685213,1.2683009043190785,Left,Correct,0.0,0.0,-45,45,749,-1,-1
"{'cat': 'RB', 'resp': 'button'}",1,142,Left,32.11957879510025,54.11325864245476,1.6059789397550128,0.8500090790647012,Left,Correct,0.0,0.0,-45,45,595,-1,-1
"{'cat': 'RB', 'resp': 'button'}",1,143,Left,39.768378008243936,65.00940579764625,1.9884189004121966,1.021165358340616,Left,Correct,0.0,0.0,-45,45,571,-1,-1
"{'cat': 'RB', 'resp': 'button'}",1,144,Right,59.179431509284186,41.32248108632045,2.9589715754642096,0.6490920150444375,Right,Correct,0.0,0.0,-45,45,643,-1,-1
"{'cat': 'RB', 'resp': 'button'}",1,145,Left,46.69104187084963,59.693555521665175,2.3345520935424817,0.9376641774675888,Left,Correct,0.0,0.0,-45,45,682,-1,-1
"{'cat': 'RB', 'resp': 'button'}",1,146,Right,60.334512090613785,12.983889989300948,3.016725604530689,0.2039504670270296,Right,Correct,0.0,0.0,-45,45,710,-1,-1
"{'cat': 'RB', 'resp': 'button'}",1,147,Right,52.10390600190901,59.89891816860981,2.605195300095451,0.9408900063824038,Right,Correct,0.0,0.0,-45,45,1376,-1,-1
"{'cat': 'RB', 'resp': 'button'}",1,148,Right,51.56746365181583,61.76569877214758,2.5783731825907914,0.9702133275320947,Right,Correct,0.0,0.0,-45,45,1034,-1,-1
"{'cat': 'RB', 'resp': 'button'}",1,149,Left,36.16078245929126,20.556669521178133,1.808039122964563,0.3229034097500322,Left,Correct,0.0,0.0,-45,45,683,-1,-1
"{'cat': 'RB', 'resp': 'button'}",1,150,Left,40.423496499608284,67.83608075155989,2.0211748249804145,1.0655666646871227,Left,Correct,0.0,0.0,-45,45,793,-1,-1
"{'cat': 'RB', 'resp': 'button'}",1,151,Right,63.05064070324433,75.65221909697075,3.1525320351622166,1.1883422787140439,Right,Correct,0.0,0.0,-45,45,662,-1,-1
"{'cat': 'RB', 'resp': 'button'}",1,152,Left,34.95830780743953,68.05817917555318,1.7479153903719764,1.0690553785730785,Left,Correct,0.0,0.0,-45,45,666,-1,-1
"{'cat': 'RB', 'resp': 'button'}",1,153,Right,57.36180747653551,55.76192641551533,2.868090373826776,0.8759062918849881,Right,Correct,0.0,0.0,-45,45,634,-1,-1
"{'cat': 'RB', 'resp': 'button'}",1,154,Left,34.69404384543306,37.14773597232105,1.7347021922716528,0.5835152721406855,Left,Correct,0.0,0.0,-45,45,590,-1,-1
"{'cat': 'RB', 'resp': 'button'}",1,155,Right,61.014907361962514,59.513855882704775,3.050745368098126,0.9348414621395351,Right,Correct,0.0,0.0,-45,45,543,-1,-1
"{'cat': 'RB', 'resp': 'button'}",1,156,Right,61.80234863602551,81.09298618643231,3.0901174318012754,1.2738056483047717,Right,Correct,0.0,0.0,-45,45,561,-1,-1
"{'cat': 'RB', 'resp': 'button'}",1,157,Right,54.78882452574801,39.09154966143283,2.7394412262874006,0.6140486261689897,Right,Correct,0.0,0.0,-45,45,553,-1,-1
"{'cat': 'RB', 'resp': 'button'}",1,158,Left,37.96279513599404,43.250934028884295,1.898139756799702,0.6793840830301985,Left,Correct,0.0,0.0,-45,45,628,-1,-1
"{'cat': 'RB', 'resp': 'button'}",1,159,Left,39.82867074801309,16.603761680008112,1.9914335374006544,0.26081127857934605,Left,Correct,0.0,0.0,-45,45,564,-1,-1
"{'cat': 'RB', 'resp': 'button'}",1,160,Right,55.947494695114756,14.467962776853838,2.7973747347557376,0.22726222786087302,Right,Correct,0.0,0.0,-45,45,778,-1,-1
"{'cat': 'RB', 'resp': 'button'}",1,161,Left,30.557060520218595,46.85591663096754,1.5278530260109298,0.7360110173253172,Left,Correct,0.0,0.0,-45,45,580,-1,-1
"{'cat': 'RB', 'resp': 'button'}",1,162,Left,44.91836982702067,58.66452690492805,2.2459184913510337,0.9215002337542136,Left,Correct,0.0,0.0,-45,45,1237,-1,-1
"{'cat': 'RB', 'resp': 'button'}",1,163,Left,41.03793838264606,79.42580990927422,2.0518969191323033,1.2476177045819765,Left,Correct,0.0,0.0,-45,45,722,-1,-1
"{'cat': 'RB', 'resp': 'button'}",1,164,Right,57.10105609803435,63.824727780717346,2.8550528049017174,1.00255647956635,Right,Correct,0.0,0.0,-45,45,539,-1,-1
"{'cat': 'RB', 'resp': 'button'}",1,165,Left,40.86835115914849,70.39231693916854,2.0434175579574245,1.1057199288262811,Left,Correct,0.0,0.0,-45,45,642,-1,-1
"{'cat': 'RB', 'resp': 'button'}",1,166,Left,47.817052590285776,54.59745868537384,2.390852629514289,0.8576148755532134,Left,Correct,0.0,0.0,-45,45,1475,-1,-1
"{'cat': 'RB', 'resp': 'button'}",1,167,Left,35.95903076005767,43.59662753421091,1.7979515380028834,0.6848142239138374,Left,Correct,0.0,0.0,-45,45,718,-1,-1
"{'cat': 'RB', 'resp': 'button'}",1,168,Left,42.822048618032326,71.36279330758504,2.1411024309016167,1.12096413597378,Left,Correct,0.0,0.0,-45,45,1284,-1,-1
"{'cat': 'RB', 'resp': 'button'}",1,169,Right,66.2229192809822,73.17796966874896,3.3111459640491097,1.1494768595797922,Right,Correct,0.0,0.0,-45,45,576,-1,-1
"{'cat': 'RB', 'resp': 'button'}",1,170,Left,37.428956102615025,46.19341907899957,1.8714478051307513,0.7256045301138982,Left,Correct,0.0,0.0,-45,45,586,-1,-1
"{'cat': 'RB', 'resp': 'button'}",1,171,Left,39.08838843973475,84.32970419310954,1.9544194219867377,1.3246478958623662,Left,Correct,0.0,0.0,-45,45,915,-1,-1
"{'cat': 'RB', 'resp': 'button'}",1,172,Right,62.74497618971659,54.789375430715076,3.1372488094858295,0.8606294967395379,Right,Correct,0.0,0.0,-45,45,643,-1,-1
"{'cat': 'RB', 'resp': 'button'}",1,173,Right,55.22580346107049,61.612149117403746,2.7612901730535246,0.9678013751955723,Right,Correct,0.0,0.0,-45,45,959,-1,-1
"{'cat': 'RB', 'resp': 'button'}",1,174,Left,38.08922412095719,49.013507939795055,1.9044612060478596,0.7699023823516257,Left,Correct,0.0,0.0,-45,45,1177,-1,-1
"{'cat': 'RB', 'resp': 'button'}",1,175,Right,60.2758376849087,47.96390708208657,3.013791884245435,0.753415290632733,Right,Correct,0.0,0.0,-45,45,752,-1,-1
"{'cat': 'RB', 'resp': 'button'}",1,176,Left,40.17016443262287,71.08579218367933,2.0085082216311436,1.1166130124942886,Left,Correct,0.0,0.0,-45,45,1257,-1,-1
"{'cat': 'RB', 'resp': 'button'}",1,177,Left,42.0373785250302,43.34508974555033,2.10186892625151,0.680863077569056,Left,Correct,0.0,0.0,-45,45,685,-1,-1
"{'cat': 'RB', 'resp': 'button'}",1,178,Right,58.14072024803492,89.92647605721658,2.9070360124017456,1.41256178272285,Right,Correct,0.0,0.0,-45,45,615,-1,-1
"{'cat': 'RB', 'resp': 'button'}",1,179,Right,55.19820433007407,63.43617563998716,2.7599102165037035,0.9964531168120773,Right,Correct,0.0,0.0,-45,45,581,-1,-1
"{'cat': 'RB', 'resp': 'button'}",1,180,Left,39.12952366451052,31.348729578703608,1.956476183225526,0.4924246927191416,Left,Correct,0.0,0.0,-45,45,696,-1,-1
"{'cat': 'RB', 'resp': 'button'}",1,181,Left,44.00376556765757,12.908819162515954,2.2001882783828783,0.20277125723739636,Left,Correct,0.0,0.0,-45,45,563,-1,-1
"{'cat': 'RB', 'resp': 'button'}",1,182,Left,38.99326880711903,44.50130046547246,1.9496634403559514,0.6990247930876017,Left,Correct,0.0,0.0,-45,45,571,-1,-1
"{'cat': 'RB', 'resp': 'button'}",1,183,Right,56.90508036826187,48.83135038038593,2.8452540184130934,0.767041058099448,Right,Correct,0.0,0.0,-45,45,579,-1,-1
"{'cat': 'RB', 'resp': 'button'}",1,184,Right,64.01473897621038,71.39141162601543,3.200736948810519,1.121413671468475,Right,Correct,0.0,0.0,-45,45,626,-1,-1
"{'cat': 'RB', 'resp': 'button'}",1,185,Left,41.61352336444406,44.24303008519071,2.0806761682222032,0.6949678914409367,Left,Correct,0.0,0.0,-45,45,579,-1,-1
"{'cat': 'RB', 'resp': 'button'}",1,186,Right,60.385426185770115,29.477304541882518,3.019271309288506,0.4630284169820358,Right,Correct,0.0,0.0,-45,45,781,-1,-1
"{'cat': 'RB', 'resp': 'button'}",1,187,Right,62.131539644157314,78.84656970401988,3.1065769822078657,1.2385190207145222,Right,Correct,0.0,0.0,-45,45,534,-1,-1
"{'cat': 'RB', 'resp': 'button'}",1,188,Left,32.76624238940987,70.86776639454675,1.6383121194704933,1.1131882714071286,Left,Correct,0.0,0.0,-45,45,525,-1,-1
"{'cat': 'RB', 'resp': 'button'}",1,189,Right,63.089345966450146,40.06754170889042,3.1544672983225075,0.6293794734002638,Right,Correct,0.0,0.0,-45,45,567,-1,-1
"{'cat': 'RB', 'resp': 'button'}",1,190,Left,44.85644992980722,62.39308048942026,2.2428224964903607,0.9800682165019967,Left,Correct,0.0,0.0,-45,45,594,-1,-1
"{'cat': 'RB', 'resp': 'button'}",1,191,Right,66.52414278251747,51.27924904986706,3.3262071391258736,0.8054925604833187,Right,Correct,0.0,0.0,-45,45,603,-1,-1
"{'cat': 'RB', 'resp': 'button'}",1,192,Left,32.16541634422944,55.57944293894454,1.6082708172114721,0.8730398481380064,Left,Correct,0.0,0.0,-45,45,552,-1,-1
"{'cat': 'RB', 'resp': 'button'}",1,193,Left,48.982163932260654,62.64164632543488,2.449108196613033,0.9839726795237813,Right,Incorrect,0.0,0.0,-45,45,1523,-1,-1
"{'cat': 'RB', 'resp': 'button'}",1,194,Left,47.73930489388231,72.48414992226878,2.3869652446941156,1.138578364487504,Left,Correct,0.0,0.0,-45,45,976,-1,-1
"{'cat': 'RB', 'resp': 'button'}",1,195,Right,59.56928677468767,49.549234052285605,2.9784643387343834,0.7783175484483082,Right,Correct,0.0,0.0,-45,45,622,-1,-1
"{'cat': 'RB', 'resp': 'button'}",1,196,Right,65.15520124215772,41.01319388162621,3.2577600621078857,0.6442337429938537,Right,Correct,0.0,0.0,-45,45,517,-1,-1
"{'cat': 'RB', 'resp': 'button'}",1,197,Left,36.46158014151453,42.928240033638765,1.8230790070757266,0.674315217606094,Left,Correct,0.0,0.0,-45,45,551,-1,-1
"{'cat': 'RB', 'resp': 'button'}",1,198,Left,37.89771422889584,49.149427541111294,1.8948857114447921,0.7720374024564955,Left,Correct,0.0,0.0,-45,45,548,-1,-1
"{'cat': 'RB', 'resp': 'button'}",1,199,Left,39.113480395254456,79.66692868661897,1.9556740197627227,1.2514051894797205,Left,Correct,0.0,0.0,-45,45,565,-1,-1
"{'cat': 'RB', 'resp': 'button'}",1,200,Left,34.16144471350513,57.241962708699944,1.7080722356752562,0.8991546476135631,Left,Correct,0.0,0.0,-45,45,580,-1,-1
"{'cat': 'RB', 'resp': 'button'}",1,201,Right,61.66128336480431,18.449776912747065,3.0830641682402153,0.28980841804728374,Right,Correct,0.0,0.0,-45,45,682,-1,-1
"{'cat': 'RB', 'resp': 'button'}",1,202,Left,47.19004034904904,41.51303087788732,2.359502017452452,0.6520851641710852,Left,Correct,0.0,0.0,-45,45,964,-1,-1
"{'cat': 'RB', 'resp': 'button'}",1,203,Left,33.75878249225074,54.31251499519041,1.6879391246125368,0.8531389905343785,Left,Correct,0.0,0.0,-45,45,566,-1,-1
"{'cat': 'RB', 'resp': 'button'}",1,204,Left,35.99972990103795,17.973092507449756,1.7999864950518976,0.2823206769184695,Left,Correct,0.0,0.0,-45,45,579,-1,-1
"{'cat': 'RB', 'resp': 'button'}",1,205,Left,45.135651901703035,52.792796343729684,2.2567825950851517,0.8292673057796164,Left,Correct,0.0,0.0,-45,45,670,-1,-1
"{'cat': 'RB', 'resp': 'button'}",1,206,Right,57.56128255031149,83.76025415566119,2.8780641275155743,1.3157029955911956,Right,Correct,0.0,0.0,-45,45,461,-1,-1
"{'cat': 'RB', 'resp': 'button'}",1,207,Right,69.02794380071964,52.52717660559798,3.451397190035982,0.8250949606898013,Right,Correct,0.0,0.0,-45,45,446,-1,-1
"{'cat': 'RB', 'resp': 'button'}",1,208,Left,33.51702069606596,73.73545915976997,1.6758510348032982,1.1582338840270179,Left,Correct,0.0,0.0,-45,45,479,-1,-1
"{'cat': 'RB', 'resp': 'button'}",1,209,Right,58.93722394773868,10.745571842654094,2.9468611973869336,0.1687910477975172,Left,Incorrect,0.0,0.0,-45,45,761,-1,-1
"{'cat': 'RB', 'resp': 'button'}",1,210,Left,37.82531230381811,36.88067851245923,1.8912656151909055,0.5793203433707441,Left,Correct,0.0,0.0,-45,45,649,-1,-1
"{'cat': 'RB', 'resp': 'button'}",1,211,Left,40.249580449027036,71.82105405445563,2.012479022451352,1.128162478952766,Left,Correct,0.0,0.0,-45,45,628,-1,-1
"{'cat': 'RB', 'resp': 'button'}",1,212,Right,51.74494071559053,37.540741856622304,2.5872470357795265,0.5896885941353773,Right,Correct,0.0,0.0,-45,45,733,-1,-1
"{'cat': 'RB', 'resp': 'button'}",1,213,Left,32.628209681941144,30.591058562370524,1.6314104840970571,0.4805232242253919,Left,Correct,0.0,0.0,-45,45,504,-1,-1
"{'cat': 'RB', 'resp': 'button'}",1,214,Left,39.95600615487964,69.90227013900021,1.997800307743982,1.0980222916896611,Left,Correct,0.0,0.0,-45,45,622,-1,-1
"{'cat': 'RB', 'resp': 'button'}",1,215,Left,33.936053684345154,31.814833406480382,1.6968026842172577,0.4997462345249095,Left,Correct,0.0,0.0,-45,45,552,-1,-1
"{'cat': 'RB', 'resp': 'button'}",1,216,Right,58.22537347099902,44.135691923436795,2.9112686735499507,0.693281827538857,Right,Correct,0.0,0.0,-45,45,1297,-1,-1
"{'cat': 'RB', 'resp': 'button'}",1,217,Left,44.49680843093105,31.000390698798167,2.2248404215465523,0.48695299838878836,Left,Correct,0.0,0.0,-45,45,1169,-1,-1
"{'cat': 'RB', 'resp': 'button'}",1,218,Left,31.111368331342824,37.8376571328056,1.555568416567141,0.5943525283873576,Left,Correct,0.0,0.0,-45,45,2044,-1,-1
"{'cat': 'RB', 'resp': 'button'}",1,219,Right,55.0819864840962,38.17799633110133,2.7540993242048097,0.5996985640128301,Right,Correct,0.0,0.0,-45,45,668,-1,-1
"{'cat': 'RB', 'resp': 'button'}",1,220,Left,41.14818715736636,28.269587881601563,2.057409357868318,0.4440576480442526,Left,Correct,0.0,0.0,-45,45,980,-1,-1
"{'cat': 'RB', 'resp': 'button'}",1,221,Left,31.8241645469057,69.6483376103948,1.591208227345285,1.0940335288577898,Left,Correct,0.0,0.0,-45,45,743,-1,-1
"{'cat': 'RB', 'resp': 'button'}",1,222,Right,54.76873006320743,61.7522117510975,2.7384365031603717,0.970001473900846,Right,Correct,0.0,0.0,-45,45,711,-1,-1
"{'cat': 'RB', 'resp': 'button'}",1,223,Right,56.92894056937595,43.25331515807146,2.846447028468798,0.6794214857200066,Right,Correct,0.0,0.0,-45,45,660,-1,-1
"{'cat': 'RB', 'resp': 'button'}",1,224,Right,64.2169062177291,30.152255170918828,3.210845310886455,0.4736305166706172,Right,Correct,0.0,0.0,-45,45,565,-1,-1
"{'cat': 'RB', 'resp': 'button'}",1,225,Right,57.21013248788667,47.293791530441275,2.860506624394333,0.7428891401622073,Right,Correct,0.0,0.0,-45,45,606,-1,-1
"{'cat': 'RB', 'resp': 'button'}",1,226,Left,42.609106254521386,65.94679457329248,2.130455312726069,1.0358898267962546,Left,Correct,0.0,0.0,-45,45,920,-1,-1
"{'cat': 'RB', 'resp': 'button'}",1,227,Right,57.218474170757816,62.910810081937385,2.8609237085378907,0.9882006939239859,Right,Correct,0.0,0.0,-45,45,615,-1,-1
"{'cat': 'RB', 'resp': 'button'}",1,228,Right,56.235679701727726,23.93995948173426,2.8117839850863864,0.3760480041752683,Right,Correct,0.0,0.0,-45,45,622,-1,-1
"{'cat': 'RB', 'resp': 'button'}",1,229,Left,36.51220269787694,50.93789680707959,1.825610134893847,0.800130611992181,Left,Correct,0.0,0.0,-45,45,645,-1,-1
"{'cat': 'RB', 'resp': 'button'}",1,230,Right,61.055734824500924,37.82770442228722,3.0527867412250465,0.5941961915761184,Right,Correct,0.0,0.0,-45,45,542,-1,-1
"{'cat': 'RB', 'resp': 'button'}",1,231,Left,44.83757275467974,61.425017577986516,2.241878637733987,0.9648619198481316,Left,Correct,0.0,0.0,-45,45,627,-1,-1
"{'cat': 'RB', 'resp': 'button'}",1,232,Right,62.75439077523198,17.50587322373056,3.137719538761599,0.27498161357173095,Right,Correct,0.0,0.0,-45,45,679,-1,-1
"{'cat': 'RB', 'resp': 'button'}",1,233,Right,63.138929725047376,48.045050182532464,3.1569464862523686,0.7546898834739848,Right,Correct,0.0,0.0,-45,45,534,-1,-1
"{'cat': 'RB', 'resp': 'button'}",1,234,Right,51.44797654015446,45.564091620333514,2.572398827007723,0.7157190775096601,Right,Correct,0.0,0.0,-45,45,774,-1,-1
"{'cat': 'RB', 'resp': 'button'}",1,235,Left,40.86097042981096,41.11335088310626,2.043048521490548,0.6458070054941303,Left,Correct,0.0,0.0,-45,45,694,-1,-1
"{'cat': 'RB', 'resp': 'button'}",1,236,Right,59.96372213035336,46.69178124256891,2.998186106517668,0.7334327846733809,Right,Correct,0.0,0.0,-45,45,659,-1,-1
"{'cat': 'RB', 'resp': 'button'}",1,237,Right,58.09987181586677,13.5531753391245,2.9049935907933384,0.21289278039103937,Right,Correct,0.0,0.0,-45,45,1125,-1,-1
"{'cat': 'RB', 'resp': 'button'}",1,238,Right,66.45701818014746,38.935605249057566,3.322850909007373,0.6115990570675571,Right,Correct,0.0,0.0,-45,45,555,-1,-1
"{'cat': 'RB', 'resp': 'button'}",1,239,Left,36.66376107795803,54.6258415807429,1.8331880538979015,0.8580607130311088,Left,Correct,0.0,0.0,-45,45,589,-1,-1
"{'cat': 'RB', 'resp': 'button'}",1,240,Left,39.141311731591685,87.7139505088158,1.9570655865795843,1.3778075126791722,Left,Correct,0.0,0.0,-45,45,580,-1,-1
"{'cat': 'RB', 'resp': 'button'}",1,241,Left,38.197344771200015,54.33816689907262,1.9098672385600008,0.8535419296983131,Left,Correct,0.0,0.0,-45,45,570,-1,-1
"{'cat': 'RB', 'resp': 'button'}",1,242,Right,68.34847786986207,44.49420034262908,3.417423893493103,0.6989132646187799,Right,Correct,0.0,0.0,-45,45,820,-1,-1
"{'cat': 'RB', 'resp': 'button'}",1,243,Right,67.14942777716372,35.52037602994843,3.3574713888581864,0.5579527619421648,Right,Correct,0.0,0.0,-45,45,1036,-1,-1
"{'cat': 'RB', 'resp': 'button'}",1,244,Right,60.61777902045131,69.16783715770896,3.030888951022565,1.086485845396768,Right,Correct,0.0,0.0,-45,45,611,-1,-1
"{'cat': 'RB', 'resp': 'button'}",1,245,Right,56.60639462317129,37.871785431304716,2.830319731158564,0.5948886144465793,Right,Correct,0.0,0.0,-45,45,560,-1,-1
"{'cat': 'RB', 'resp': 'button'}",1,246,Left,35.43757812048688,49.176917347796966,1.771878906024344,0.772469211330157,Left,Correct,0.0,0.0,-45,45,671,-1,-1
"{'cat': 'RB', 'resp': 'button'}",1,247,Left,37.832917424295054,62.75353146608011,1.8916458712147528,0.985730167203266,Left,Correct,0.0,0.0,-45,45,513,-1,-1
"{'cat': 'RB', 'resp': 'button'}",1,248,Left,39.60734229277236,22.599775355831152,1.980367114638618,0.35499644115329404,Left,Correct,0.0,0.0,-45,45,671,-1,-1
"{'cat': 'RB', 'resp': 'button'}",1,249,Right,51.70438501344618,46.016343993398685,2.5852192506723086,0.7228230411736105,Right,Correct,0.0,0.0,-45,45,765,-1,-1
"{'cat': 'RB', 'resp': 'button'}",1,250,Left,48.491781277168094,53.05822641091622,2.4245890638584044,0.8334366715251916,Right,Incorrect,0.0,0.0,-45,45,1699,-1,-1
"{'cat': 'RB', 'resp': 'button'}",1,251,Right,60.835158044564494,51.358407070440364,3.0417579022282246,0.8067359717628476,Right,Correct,0.0,0.0,-45,45,575,-1,-1
"{'cat': 'RB', 'resp': 'button'}",1,252,Right,67.23482150658228,72.06618154275456,3.3617410753291144,1.1320129325349304,Right,Correct,0.0,0.0,-45,45,739,-1,-1
"{'cat': 'RB', 'resp': 'button'}",1,253,Left,45.630060981267,79.39214726728697,2.28150304906335,1.2470889330381387,Left,Correct,0.0,0.0,-45,45,617,-1,-1
"{'cat': 'RB', 'resp': 'button'}",1,254,Right,59.392147987205824,36.68856271771286,2.9696073993602914,0.5763025955236755,Right,Correct,0.0,0.0,-45,45,701,-1,-1
"{'cat': 'RB', 'resp': 'button'}",1,255,Left,35.29811327448708,66.37316146733227,1.764905663724354,1.042587182306501,Left,Correct,0.0,0.0,-45,45,520,-1,-1
"{'cat': 'RB', 'resp': 'button'}",1,256,Right,52.21316020794356,37.42786308150551,2.610658010397178,0.5879154984821118,Right,Correct,0.0,0.0,-45,45,945,-1,-1
"{'cat': 'RB', 'resp': 'button'}",1,257,Left,39.09717612885866,53.816167407609896,1.9548588064429333,0.8453423808605286,Left,Correct,0.0,0.0,-45,45,545,-1,-1
"{'cat': 'RB', 'resp': 'button'}",1,258,Right,62.479220624596095,11.598317134669998,3.123961031229805,0.1821859395214194,Right,Correct,0.0,0.0,-45,45,605,-1,-1
"{'cat': 'RB', 'resp': 'button'}",1,259,Right,67.37212399406518,51.62928390166005,3.368606199703259,0.810990895077785,Right,Correct,0.0,0.0,-45,45,671,-1,-1
"{'cat': 'RB', 'resp': 'button'}",1,260,Left,46.68839736229891,21.4060779150509,2.3344198681149453,0.33624588560047314,Left,Correct,0.0,0.0,-45,45,660,-1,-1
"{'cat': 'RB', 'resp': 'button'}",1,261,Left,34.4853092329231,37.925987734885574,1.724265461646155,0.5957400222402656,Left,Correct,0.0,0.0,-45,45,601,-1,-1
"{'cat': 'RB', 'resp': 'button'}",1,262,Left,44.86683494830397,40.37657690604115,2.243341747415198,0.6342337869256109,Left,Correct,0.0,0.0,-45,45,1230,-1,-1
"{'cat': 'RB', 'resp': 'button'}",1,263,Left,38.3916803187478,53.72402558712219,1.91958401593739,0.8438950205288658,Left,Correct,0.0,0.0,-45,45,481,-1,-1
"{'cat': 'RB', 'resp': 'button'}",1,264,Left,37.92959808044322,13.350035514680314,1.896479904022161,0.2097018674904125,Left,Correct,0.0,0.0,-45,45,651,-1,-1
"{'cat': 'RB', 'resp': 'button'}",1,265,Left,35.71614911387142,77.32535539942035,1.7858074556935708,1.214623842295194,Left,Correct,0.0,0.0,-45,45,714,-1,-1
"{'cat': 'RB', 'resp': 'button'}",1,266,Right,60.78908012945647,39.077224078348735,3.0394540064728237,0.6138236004361128,Right,Correct,0.0,0.0,-45,45,518,-1,-1
"{'cat': 'RB', 'resp': 'button'}",1,267,Left,32.65156180358838,65.08369596889489,1.632578090179419,1.022332305621759,Left,Correct,0.0,0.0,-45,45,514,-1,-1
"{'cat': 'RB', 'resp': 'button'}",1,268,Left,36.57728173408831,86.37199153342664,1.8288640867044155,1.3567280703866647,Left,Correct,0.0,0.0,-45,45,415,-1,-1
"{'cat': 'RB', 'resp': 'button'}",1,269,Right,57.197925211185655,19.022679311680935,2.859896260559283,0.29880754788585684,Right,Correct,0.0,0.0,-45,45,582,-1,-1
"{'cat': 'RB', 'resp': 'button'}",1,270,Right,64.14186304347737,31.242731520240675,3.2070931521738686,0.49075967911033186,Right,Correct,0.0,0.0,-45,45,578,-1,-1
"{'cat': 'RB', 'resp': 'button'}",1,271,Right,60.89779274772695,81.21222807106588,3.0448896373863477,1.2756786954485966,Right,Correct,0.0,0.0,-45,45,670,-1,-1
"{'cat': 'RB', 'resp': 'button'}",1,272,Left,44.48861285149825,27.641326055854872,2.2244306425749127,0.434188934362769,Left,Correct,0.0,0.0,-45,45,2739,-1,-1
"{'cat': 'RB', 'resp': 'button'}",1,273,Left,45.70261357033969,35.69410546337255,2.2851306785169845,0.5606816975009524,Left,Correct,0.0,0.0,-45,45,478,-1,-1
"{'cat': 'RB', 'resp': 'button'}",1,274,Right,56.299051812796705,20.584803063989167,2.8149525906398356,0.3233453304071051,Right,Correct,0.0,0.0,-45,45,739,-1,-1
"{'cat': 'RB', 'resp': 'button'}",1,275,Right,52.98940285881605,36.1782209291253,2.6494701429408023,0.5682861654544428,Right,Correct,0.0,0.0,-45,45,702,-1,-1
"{'cat': 'RB', 'resp': 'button'}",1,276,Left,35.12272659038608,38.412985029444414,1.7561363295193042,0.6033897578547863,Left,Correct,0.0,0.0,-45,45,581,-1,-1
"{'cat': 'RB', 'resp': 'button'}",1,277,Left,44.85046590236654,58.46622505961582,2.2425232951183265,0.9183853156520826,Left,Correct,0.0,0.0,-45,45,656,-1,-1
"{'cat': 'RB', 'resp': 'button'}",1,278,Right,53.409371940004796,74.12357088959335,2.6704685970002395,1.1643303288229436,Right,Correct,0.0,0.0,-45,45,984,-1,-1
"{'cat': 'RB', 'resp': 'button'}",1,279,Right,57.71478153611149,42.20366087295333,2.8857390768055744,0.6629335547653259,Right,Correct,0.0,0.0,-45,45,520,-1,-1
"{'cat': 'RB', 'resp': 'button'}",1,280,Right,68.38048586423801,59.279196945547696,3.419024293211901,0.9311554481741756,Right,Correct,0.0,0.0,-45,45,764,-1,-1
"{'cat': 'RB', 'resp': 'button'}",1,281,Left,32.144946200146805,69.57565607994616,1.6072473100073403,1.0928918500472444,Left,Correct,0.0,0.0,-45,45,663,-1,-1
"{'cat': 'RB', 'resp': 'button'}",1,282,Right,51.928822604687035,64.36359077880059,2.5964411302343517,1.0110209197466984,Right,Correct,0.0,0.0,-45,45,852,-1,-1
"{'cat': 'RB', 'resp': 'button'}",1,283,Left,42.41501121721401,39.04724989316939,2.1207505608607007,0.613352767036329,Left,Correct,0.0,0.0,-45,45,903,-1,-1
"{'cat': 'RB', 'resp': 'button'}",1,284,Right,62.19385500998257,45.31763374522112,3.109692750499129,0.711847726260298,Right,Correct,0.0,0.0,-45,45,639,-1,-1
"{'cat': 'RB', 'resp': 'button'}",1,285,Left,42.90102851699828,77.81625325961721,2.145051425849914,1.222334847851481,Left,Correct,0.0,0.0,-45,45,890,-1,-1
"{'cat': 'RB', 'resp': 'button'}",1,286,Right,65.14068749345182,28.922456777771803,3.257034374672591,0.45431288868408104,Right,Correct,0.0,0.0,-45,45,601,-1,-1
"{'cat': 'RB', 'resp': 'button'}",1,287,Right,56.37264045571689,15.583551487249807,2.818632022785845,0.24478585434591144,Right,Correct,0.0,0.0,-45,45,776,-1,-1
"{'cat': 'RB', 'resp': 'button'}",1,288,Right,67.10615210764179,71.49080036266486,3.355307605382089,1.1229748660930123,Right,Correct,0.0,0.0,-45,45,579,-1,-1
"{'cat': 'RB', 'resp': 'button'}",1,289,Right,52.67019458542071,33.3339900928454,2.6335097292710357,0.5236090919525902,Right,Correct,0.0,0.0,-45,45,564,-1,-1
"{'cat': 'RB', 'resp': 'button'}",1,290,Left,42.08985103024743,23.927492203688498,2.1044925515123714,0.3758521686296742,Left,Correct,0.0,0.0,-45,45,647,-1,-1
"{'cat': 'RB', 'resp': 'button'}",1,291,Left,35.45502822550657,84.64579243094883,1.7727514112753284,1.3296129982917766,Left,Correct,0.0,0.0,-45,45,510,-1,-1
"{'cat': 'RB', 'resp': 'button'}",1,292,Right,61.743238640133164,84.30949922001503,3.087161932006658,1.324330516887168,Right,Correct,0.0,0.0,-45,45,596,-1,-1
"{'cat': 'RB', 'resp': 'button'}",1,293,Right,59.407892835629966,22.336146251397132,2.9703946417814984,0.35085536486448216,Right,Correct,0.0,0.0,-45,45,1102,-1,-1
"{'cat': 'RB', 'resp': 'button'}",1,294,Right,65.49376034348285,28.445374067179273,3.2746880171741424,0.4468188909903201,Right,Correct,0.0,0.0,-45,45,660,-1,-1
"{'cat': 'RB', 'resp': 'button'}",1,295,Right,55.05758457641369,81.99589122669899,2.7528792288206843,1.2879884475117267,Right,Correct,0.0,0.0,-45,45,760,-1,-1
"{'cat': 'RB', 'resp': 'button'}",1,296,Right,58.73033650995996,36.8218350411279,2.936516825497998,0.5783960322845131,Right,Correct,0.0,0.0,-45,45,663,-1,-1
"{'cat': 'RB', 'resp': 'button'}",1,297,Left,38.86344796865447,71.73892746204885,1.9431723984327234,1.1268724374559187,Left,Correct,0.0,0.0,-45,45,588,-1,-1
"{'cat': 'RB', 'resp': 'button'}",1,298,Right,59.28153835904614,77.23078793047672,2.9640769179523065,1.2131383799666846,Right,Correct,0.0,0.0,-45,45,648,-1,-1
"{'cat': 'RB', 'resp': 'button'}",1,299,Right,66.301183629365,65.23565730785562,3.3150591814682504,1.0247193087523028,Right,Correct,0.0,0.0,-45,45,602,-1,-1
"{'cat': 'RB', 'resp': 'button'}",1,300,Left,39.06923378634975,22.51458015621537,1.9534616893174874,0.35365819808712373,Left,Correct,0.0,0.0,-45,45,524,-1,-1
"{'cat': 'RB', 'resp': 'button'}",1,301,Left,38.652902238600944,66.35320737112714,1.9326451119300472,1.042273744096266,Left,Correct,0.0,0.0,-45,45,497,-1,-1
"{'cat': 'RB', 'resp': 'button'}",1,302,Right,52.80310065553781,75.37910074335494,2.6401550327768906,1.1840521456476438,Right,Correct,0.0,0.0,-45,45,1783,-1,-1
"{'cat': 'RB', 'resp': 'button'}",1,303,Right,66.879040074887,34.585643865899414,3.3439520037443504,0.5432700234439125,Right,Correct,0.0,0.0,-45,45,544,-1,-1
"{'cat': 'RB', 'resp': 'button'}",1,304,Right,68.7996586916592,64.79426455440677,3.43998293458296,1.017785927594389,Right,Correct,0.0,0.0,-45,45,603,-1,-1
"{'cat': 'RB', 'resp': 'button'}",1,305,Left,47.47703462469218,63.308934901356864,2.373851731234609,0.9944544239634859,Left,Correct,0.0,0.0,-45,45,653,-1,-1
"{'cat': 'RB', 'resp': 'button'}",1,306,Left,38.1911329455699,75.93790423101487,1.909556647278495,1.192829810305808,Left,Correct,0.0,0.0,-45,45,487,-1,-1
"{'cat': 'RB', 'resp': 'button'}",1,307,Right,59.24454804285535,65.91141910708046,2.9622274021427675,1.0353341502724096,Right,Correct,0.0,0.0,-45,45,610,-1,-1
"{'cat': 'RB', 'resp': 'button'}",1,308,Right,56.55187246921047,85.36307041933571,2.8275936234605235,1.3408799745862663,Left,Incorrect,0.0,0.0,-45,45,1375,-1,-1
"{'cat': 'RB', 'resp': 'button'}",1,309,Right,65.94211360769815,35.295746960139475,3.2971056803849077,0.5544242967646922,Right,Correct,0.0,0.0,-45,45,499,-1,-1
"{'cat': 'RB', 'resp': 'button'}",1,310,Right,57.04609685613717,12.250624118465055,2.8523048428068587,0.19243235366229877,Right,Correct,0.0,0.0,-45,45,570,-1,-1
"{'cat': 'RB', 'resp': 'button'}",1,311,Left,33.370853217393,62.19635707309652,1.66854266086965,0.9769780923044381,Left,Correct,0.0,0.0,-45,45,522,-1,-1
"{'cat': 'RB', 'resp': 'button'}",1,312,Right,60.40428666839711,30.15078015711384,3.020214333419856,0.4736073472079488,Right,Correct,0.0,0.0,-45,45,2091,-1,-1
"{'cat': 'RB', 'resp': 'button'}",1,313,Right,63.50157769820597,55.306515975298126,3.1750788849102984,0.8687527214182157,Right,Correct,0.0,0.0,-45,45,1008,-1,-1
"{'cat': 'RB', 'resp': 'button'}",1,314,Left,42.77884133294903,34.14599811380474,2.1389420666474512,0.5363640841190995,Left,Correct,0.0,0.0,-45,45,605,-1,-1
"{'cat': 'RB', 'resp': 'button'}",1,315,Right,68.993466234035,49.19159547597953,3.44967331170175,0.7726997748284911,Right,Correct,0.0,0.0,-45,45,554,-1,-1
"{'cat': 'RB', 'resp': 'button'}",1,316,Right,57.84953801463424,30.031477687213492,2.892476900731712,0.4717333483929784,Right,Correct,0.0,0.0,-45,45,589,-1,-1
"{'cat': 'RB', 'resp': 'button'}",1,317,Left,42.70486144523811,59.54664745907932,2.135243072261906,0.9353565510167244,Left,Correct,0.0,0.0,-45,45,655,-1,-1
"{'cat': 'RB', 'resp': 'button'}",1,318,Right,51.50428587501837,56.04725172956002,2.575214293750918,0.8803881714374179,Right,Correct,0.0,0.0,-45,45,1205,-1,-1
"{'cat': 'RB', 'resp': 'button'}",1,319,Right,56.18563039806177,29.607024045321833,2.8092815199030885,0.4650660461771971,Right,Correct,0.0,0.0,-45,45,1591,-1,-1
"{'cat': 'RB', 'resp': 'button'}",1,320,Left,40.51182799241722,34.18720357079676,2.0255913996208608,0.5370113379239693,Left,Correct,0.0,0.0,-45,45,716,-1,-1
"{'cat': 'RB', 'resp': 'button'}",1,321,Left,42.43153115776482,28.247316809350302,2.121576557888241,0.4437078148593919,Left,Correct,0.0,0.0,-45,45,628,-1,-1
"{'cat': 'RB', 'resp': 'button'}",1,322,Left,45.474503257188246,23.361237763825866,2.2737251628594124,0.3669574646879989,Left,Correct,0.0,0.0,-45,45,611,-1,-1
"{'cat': 'RB', 'resp': 'button'}",1,323,Left,45.80676179246272,54.474714335948576,2.2903380896231362,0.8556868118210932,Left,Correct,0.0,0.0,-45,45,659,-1,-1
"{'cat': 'RB', 'resp': 'button'}",1,324,Left,44.25683530463963,48.72202034183182,2.2128417652319814,0.7653237058697565,Left,Correct,0.0,0.0,-45,45,721,-1,-1
"{'cat': 'RB', 'resp': 'button'}",1,325,Left,35.631690129877555,66.14420611107923,1.7815845064938776,1.038990759980478,Left,Correct,0.0,0.0,-45,45,630,-1,-1
"{'cat': 'RB', 'resp': 'button'}",1,326,Right,68.83854396738752,50.42558227420634,3.441927198369376,0.7920831941281717,Right,Correct,0.0,0.0,-45,45,658,-1,-1
"{'cat': 'RB', 'resp': 'button'}",1,327,Left,49.35910719709694,50.76604628953472,2.4679553598548467,0.7974311903750084,Right,Incorrect,0.0,0.0,-45,45,663,-1,-1
"{'cat': 'RB', 'resp': 'button'}",1,328,Left,47.22634479341669,43.44453160325747,2.361317239670835,0.6824251066172163,Left,Correct,0.0,0.0,-45,45,685,-1,-1
"{'cat': 'RB', 'resp': 'button'}",1,329,Right,64.24371899818503,26.75825592592784,3.2121859499092515,0.42031770119885226,Right,Correct,0.0,0.0,-45,45,606,-1,-1
"{'cat': 'RB', 'resp': 'button'}",1,330,Left,34.744564479727586,28.561714814832904,1.7372282239863792,0.44864636718102907,Left,Correct,0.0,0.0,-45,45,599,-1,-1
"{'cat': 'RB', 'resp': 'button'}",1,331,Left,48.30143335224094,50.63628487082725,2.415071667612047,0.7953929027763544,Right,Incorrect,0.0,0.0,-45,45,691,-1,-1
"{'cat': 'RB', 'resp': 'button'}",1,332,Right,54.7241184069032,61.3282967028441,2.73620592034516,0.9633426318941507,Right,Correct,0.0,0.0,-45,45,920,-1,-1
"{'cat': 'RB', 'resp': 'button'}",1,333,Right,56.50470660121441,25.99723752444995,2.8252353300607207,0.4083636521022044,Right,Correct,0.0,0.0,-45,45,742,-1,-1
"{'cat': 'RB', 'resp': 'button'}",1,334,Left,41.68141196147569,32.4412658838606,2.084070598073785,0.5095862128694483,Left,Correct,0.0,0.0,-45,45,658,-1,-1
"{'cat': 'RB', 'resp': 'button'}",1,335,Left,41.973382314492774,59.46199997826872,2.0986691157246384,0.9340269114974273,Left,Correct,0.0,0.0,-45,45,1389,-1,-1
"{'cat': 'RB', 'resp': 'button'}",1,336,Left,38.94533836273348,72.04557135118431,1.947266918136674,1.1316891884027993,Left,Correct,0.0,0.0,-45,45,670,-1,-1
"{'cat': 'RB', 'resp': 'button'}",1,337,Left,46.95783450829908,47.37747598428984,2.347891725414954,0.744203652489359,Left,Correct,0.0,0.0,-45,45,2437,-1,-1
"{'cat': 'RB', 'resp': 'button'}",1,338,Left,47.421614502819885,74.61144996629311,2.3710807251409944,1.171993915438944,Left,Correct,0.0,0.0,-45,45,1300,-1,-1
"{'cat': 'RB', 'resp': 'button'}",1,339,Left,41.67003952633288,16.523711892265844,2.083501976316644,0.2595538594538834,Left,Correct,0.0,0.0,-45,45,731,-1,-1
"{'cat': 'RB', 'resp': 'button'}",1,340,Right,69.07873122125747,45.20970537336262,3.4539365610628736,0.710152391359575,Right,Correct,0.0,0.0,-45,45,572,-1,-1
"{'cat': 'RB', 'resp': 'button'}",1,341,Left,36.40497361273805,37.790726638284994,1.8202486806369023,0.5936153459032811,Left,Correct,0.0,0.0,-45,45,978,-1,-1
"{'cat': 'RB', 'resp': 'button'}",1,342,Left,40.69717266847561,51.65977121736777,2.0348586334237804,0.81146978871306,Left,Correct,0.0,0.0,-45,45,480,-1,-1
"{'cat': 'RB', 'resp': 'button'}",1,343,Right,58.505475581067984,12.132611805677627,2.925273779053399,0.19057862058786815,Right,Correct,0.0,0.0,-45,45,596,-1,-1
"{'cat': 'RB', 'resp': 'button'}",1,344,Right,52.16832885616029,44.1972926421507,2.6084164428080148,0.6942494493656942,Right,Correct,0.0,0.0,-45,45,719,-1,-1
"{'cat': 'RB', 'resp': 'button'}",1,345,Right,62.06366761125296,21.547153682784817,3.103183380562648,0.33846189857803516,Right,Correct,0.0,0.0,-45,45,567,-1,-1
"{'cat': 'RB', 'resp': 'button'}",1,346,Left,48.05105538995141,41.27995842330985,2.4025527694975706,0.6484240706158116,Right,Incorrect,0.0,0.0,-45,45,1421,-1,-1
"{'cat': 'RB', 'resp': 'button'}",1,347,Right,62.54263631978136,28.47955761551826,3.1271318159890678,0.4473558449119971,Right,Correct,0.0,0.0,-45,45,835,-1,-1
"{'cat': 'RB', 'resp': 'button'}",1,348,Right,56.56937615803348,40.502658061719266,2.828468807901674,0.6362142650877832,Right,Correct,0.0,0.0,-45,45,657,-1,-1
"{'cat': 'RB', 'resp': 'button'}",1,349,Right,58.89870469847473,51.02561898749884,2.9449352349237365,0.8015085487799911,Right,Correct,0.0,0.0,-45,45,1182,-1,-1
"{'cat': 'RB', 'resp': 'button'}",1,350,Left,46.620690142188344,25.22144261521186,2.3310345071094174,0.3961774941644306,Left,Correct,0.0,0.0,-45,45,720,-1,-1
"{'cat': 'RB', 'resp': 'button'}",1,351,Right,60.43269945351991,78.44199001865628,3.0216349726759955,1.2321638978778722,Right,Correct,0.0,0.0,-45,45,627,-1,-1
"{'cat': 'RB', 'resp': 'button'}",1,352,Right,58.895075903452856,74.21434175623014,2.944753795172643,1.165756154261874,Right,Correct,0.0,0.0,-45,45,855,-1,-1
"{'cat': 'RB', 'resp': 'button'}",1,353,Left,36.21039988155775,46.3209328448293,1.8105199940778873,0.7276075116637094,Left,Correct,0.0,0.0,-45,45,541,-1,-1
"{'cat': 'RB', 'resp': 'button'}",1,354,Left,43.258942381294176,46.70721774725556,2.1629471190647087,0.7336752607219845,Left,Correct,0.0,0.0,-45,45,815,-1,-1
"{'cat': 'RB', 'resp': 'button'}",1,355,Left,45.35930198404185,67.83048909875589,2.2679650992020925,1.06547883121027,Left,Correct,0.0,0.0,-45,45,869,-1,-1
"{'cat': 'RB', 'resp': 'button'}",1,356,Left,31.788358594314975,33.31570966941413,1.5894179297157487,0.5233219437328094,Left,Correct,0.0,0.0,-45,45,629,-1,-1
"{'cat': 'RB', 'resp': 'button'}",1,357,Right,55.1972701253532,79.64485828921411,2.75986350626766,1.251058508487976,Right,Correct,0.0,0.0,-45,45,1023,-1,-1
"{'cat': 'RB', 'resp': 'button'}",1,358,Right,56.25533381926123,63.372266643913164,2.8127666909630613,0.9954492366492553,Right,Correct,0.0,0.0,-45,45,674,-1,-1
"{'cat': 'RB', 'resp': 'button'}",1,359,Right,66.10666170883951,25.831123832761744,3.3053330854419753,0.40575434433486257,Right,Correct,0.0,0.0,-45,45,526,-1,-1
"{'cat': 'RB', 'resp': 'button'}",1,360,Right,68.04802775727032,67.37591141619428,3.402401387863516,1.058338341670163,Right,Correct,0.0,0.0,-45,45,613,-1,-1
"{'cat': 'RB', 'resp': 'button'}",1,361,Left,34.422795254760835,21.760286597515833,1.7211397627380418,0.3418097825738209,Left,Correct,0.0,0.0,-45,45,654,-1,-1
"{'cat': 'RB', 'resp': 'button'}",1,362,Left,47.57444649718517,64.8216396352081,2.3787223248592584,1.0182159343580737,Left,Correct,0.0,0.0,-45,45,1073,-1,-1
"{'cat': 'RB', 'resp': 'button'}",1,363,Left,48.6722884529708,63.72851955509912,2.43361442264854,1.0010452442922644,Left,Correct,0.0,0.0,-45,45,560,-1,-1
"{'cat': 'RB', 'resp': 'button'}",1,364,Right,59.39884293386182,40.64979115406909,2.969942146693091,0.6385254262979141,Right,Correct,0.0,0.0,-45,45,609,-1,-1
"{'cat': 'RB', 'resp': 'button'}",1,365,Left,44.24755538346803,13.848437718363002,2.212377769173402,0.217530750998525,Left,Correct,0.0,0.0,-45,45,671,-1,-1
"{'cat': 'RB', 'resp': 'button'}",1,366,Right,56.49405543479552,15.887994677977233,2.824702771739776,0.24956803680303502,Right,Correct,0.0,0.0,-45,45,628,-1,-1
"{'cat': 'RB', 'resp': 'button'}",1,367,Left,35.92597356426368,29.45001034845857,1.7962986782131838,0.4625996807943042,Left,Correct,0.0,0.0,-45,45,570,-1,-1
"{'cat': 'RB', 'resp': 'button'}",1,368,Left,46.342687599410276,35.36337556024272,2.317134379970514,0.555486604330977,Left,Correct,0.0,0.0,-45,45,1629,-1,-1
"{'cat': 'RB', 'resp': 'button'}",1,369,Left,44.963846164217436,48.66335209128041,2.248192308210872,0.7644021471451001,Left,Correct,0.0,0.0,-45,45,604,-1,-1
"{'cat': 'RB', 'resp': 'button'}",1,370,Left,39.4666471792122,11.140118891701093,1.9733323589606102,0.1749885783514251,Left,Correct,0.0,0.0,-45,45,641,-1,-1
"{'cat': 'RB', 'resp': 'button'}",1,371,Right,56.38504369852392,24.296595472893287,2.819252184926196,0.3816500292244228,Right,Correct,0.0,0.0,-45,45,614,-1,-1
"{'cat': 'RB', 'resp': 'button'}",1,372,Left,43.20503549062472,78.7969500066477,2.1602517745312357,1.2377395963308333,Left,Correct,0.0,0.0,-45,45,542,-1,-1
"{'cat': 'RB', 'resp': 'button'}",1,373,Right,57.00998974125969,86.35831102239581,2.8504994870629843,1.3565131774219057,Right,Correct,0.0,0.0,-45,45,537,-1,-1
"{'cat': 'RB', 'resp': 'button'}",1,374,Left,39.80013234360771,14.73897563660384,1.9900066171803854,0.23151928790696782,Left,Correct,0.0,0.0,-45,45,584,-1,-1
"{'cat': 'RB', 'resp': 'button'}",1,375,Right,55.60409729560383,20.168691903072325,2.780204864780192,0.3168090715760398,Right,Correct,0.0,0.0,-45,45,991,-1,-1
"{'cat': 'RB', 'resp': 'button'}",1,376,Left,43.723302326010796,49.64616406194503,2.18616511630054,0.7798401214796006,Left,Correct,0.0,0.0,-45,45,569,-1,-1
"{'cat': 'RB', 'resp': 'button'}",1,377,Left,31.198632604017988,57.752111076115575,1.5599316302008992,0.9071680394301321,Left,Correct,0.0,0.0,-45,45,542,-1,-1
"{'cat': 'RB', 'resp': 'button'}",1,378,Left,47.56002789365607,47.1539713820775,2.3780013946828036,0.74069285040759,Left,Correct,0.0,0.0,-45,45,643,-1,-1
"{'cat': 'RB', 'resp': 'button'}",1,379,Left,43.62667762822922,18.77837111672064,2.181333881411461,0.29496996373336165,Left,Correct,0.0,0.0,-45,45,671,-1,-1
"{'cat': 'RB', 'resp': 'button'}",1,380,Left,48.21699312469707,33.85423939960155,2.4108496562348534,0.5317811489532918,Left,Correct,0.0,0.0,-45,45,773,-1,-1
"{'cat': 'RB', 'resp': 'button'}",1,381,Right,55.94873255794313,72.98547685639853,2.7974366278971563,1.1464531895540477,Left,Incorrect,0.0,0.0,-45,45,519,-1,-1
"{'cat': 'RB', 'resp': 'button'}",1,382,Left,41.99918657189778,45.470566869336864,2.099959328594889,0.7142499941563606,Left,Correct,0.0,0.0,-45,45,707,-1,-1
"{'cat': 'RB', 'resp': 'button'}",1,383,Right,67.56483474605294,63.663260520464725,3.378241737302647,1.0000201577733254,Right,Correct,0.0,0.0,-45,45,710,-1,-1
"{'cat': 'RB', 'resp': 'button'}",1,384,Right,59.91147391658834,67.45710927456469,2.995573695829417,1.0596137946468815,Right,Correct,0.0,0.0,-45,45,629,-1,-1
"{'cat': 'RB', 'resp': 'button'}",1,385,Left,39.70812779568712,33.92193206811029,1.985406389784356,0.5328444629037364,Left,Correct,0.0,0.0,-45,45,541,-1,-1
"{'cat': 'RB', 'resp': 'button'}",1,386,Right,65.62536097941799,75.78344942477997,3.2812680489708996,1.190403639882912,Right,Correct,0.0,0.0,-45,45,674,-1,-1
"{'cat': 'RB', 'resp': 'button'}",1,387,Left,33.89518530309956,71.86459288505047,1.694759265154978,1.1288463853044794,Left,Correct,0.0,0.0,-45,45,722,-1,-1
"{'cat': 'RB', 'resp': 'button'}",1,388,Left,34.348301791038104,65.85918962310657,1.7174150895519051,1.0345137314566437,Left,Correct,0.0,0.0,-45,45,576,-1,-1
"{'cat': 'RB', 'resp': 'button'}",1,389,Left,46.20193587577448,18.843152880791735,2.3100967937887242,0.2959875533038233,Left,Correct,0.0,0.0,-45,45,920,-1,-1
"{'cat': 'RB', 'resp': 'button'}",1,390,Left,38.75835477160189,14.101905374791386,1.9379177385800943,0.22151221163531518,Left,Correct,0.0,0.0,-45,45,601,-1,-1
"{'cat': 'RB', 'resp': 'button'}",1,391,Right,64.51165812687783,84.37064623951808,3.2255829063438917,1.3252910120234664,Right,Correct,0.0,0.0,-45,45,599,-1,-1
"{'cat': 'RB', 'resp': 'button'}",1,392,Right,65.13523493944831,18.96842803005361,3.2567617469724155,0.2979553707468156,Right,Correct,0.0,0.0,-45,45,611,-1,-1
"{'cat': 'RB', 'resp': 'button'}",1,393,Left,32.26487582288105,36.27224709911877,1.6132437911440525,0.5697631250789262,Left,Correct,0.0,0.0,-45,45,601,-1,-1
"{'cat': 'RB', 'resp': 'button'}",1,394,Left,43.13117095366321,84.55127729869378,2.15655854768316,1.3281283580660492,Left,Correct,0.0,0.0,-45,45,1744,-1,-1
"{'cat': 'RB', 'resp': 'button'}",1,395,Right,63.52647513309143,14.032065078291986,3.176323756654572,0.22041516282327991,Right,Correct,0.0,0.0,-45,45,656,-1,-1
"{'cat': 'RB', 'resp': 'button'}",1,396,Left,39.35796123169844,79.23398674106198,1.9678980615849218,1.2446045533017571,Left,Correct,0.0,0.0,-45,45,550,-1,-1
"{'cat': 'RB', 'resp': 'button'}",1,397,Right,67.97937803230636,57.24022404964235,3.398968901615318,0.899127336820951,Right,Correct,0.0,0.0,-45,45,542,-1,-1
"{'cat': 'RB', 'resp': 'button'}",1,398,Right,57.91836592888461,30.021520181183714,2.8959182964442305,0.4715769362540223,Right,Correct,0.0,0.0,-45,45,578,-1,-1
"{'cat': 'RB', 'resp': 'button'}",1,399,Left,41.11839040444146,38.43988589480467,2.0559195202220732,0.6038123156597412,Left,Correct,0.0,0.0,-45,45,632,-1,-1
