condition,subject,trial,cat,x,y,xt,yt,resp,fb,rotation,su,target_angle_left,target_angle_right,rt,mt,ep
"{'cat': 'II', 'resp': 'reach'}",12,0,Left,22.549320204896418,37.00220757135182,1.1274660102448208,0.5812293173638174,Right,Incorrect,0.0,0.0,-45,45,2004,2059,-0.76
"{'cat': 'II', 'resp': 'reach'}",12,1,Right,63.726522376011935,50.934817010023025,3.186326118800597,0.8000822346531438,Left,Incorrect,0.0,0.0,-45,45,2004,3721,-2.56
"{'cat': 'II', 'resp': 'reach'}",12,2,Right,39.04603902484838,27.55608864844578,1.9523019512424191,0.4328500282981318,Right,Correct,0.0,0.0,-45,45,2004,1625,-0.53
"{'cat': 'II', 'resp': 'reach'}",12,3,Right,36.38281453747334,19.934959171255098,1.8191407268736668,0.3131376064101374,Left,Incorrect,0.0,0.0,-45,45,2012,2129,-2.52
"{'cat': 'II', 'resp': 'reach'}",12,4,Left,32.96988602380816,50.995991844963655,1.6484943011904079,0.8010431667133141,Left,Correct,0.0,0.0,-45,45,2004,7341,-2.56
"{'cat': 'II', 'resp': 'reach'}",12,5,Left,59.17781608574469,84.65395436480523,2.9588908042872344,1.3297412056489886,Left,Correct,0.0,0.0,-45,45,2004,4396,-2.49
"{'cat': 'II', 'resp': 'reach'}",12,6,Right,71.59570985690034,49.685703919594545,3.579785492845017,0.7804612121111789,Left,Incorrect,0.0,0.0,-45,45,2005,6770,-2.38
"{'cat': 'II', 'resp': 'reach'}",12,7,Left,26.517924344064713,57.508170179698595,1.3258962172032358,0.9033362247896635,Right,Incorrect,0.0,0.0,-45,45,2004,3858,-0.6
"{'cat': 'II', 'resp': 'reach'}",12,8,Left,15.287689805170338,30.496092730581594,0.764384490258517,0.4790315044279412,Left,Correct,0.0,0.0,-45,45,2012,7779,-2.45
"{'cat': 'II', 'resp': 'reach'}",12,9,Right,45.68058584933736,37.002197017989374,2.2840292924668684,0.5812291515919878,Left,Incorrect,0.0,0.0,-45,45,2004,6812,-2.51
"{'cat': 'II', 'resp': 'reach'}",12,10,Left,22.172899319914805,53.22680654117686,1.1086449659957403,0.836084722019032,Right,Incorrect,0.0,0.0,-45,45,2008,14112,-0.57
"{'cat': 'II', 'resp': 'reach'}",12,11,Right,70.73433279561333,37.49544481620974,3.5367166397806664,0.5889770698884301,Left,Incorrect,0.0,0.0,-45,45,2005,8241,-2.57
"{'cat': 'II', 'resp': 'reach'}",12,12,Left,56.6730737124315,64.40887686758595,2.8336536856215755,1.0117322719658879,Left,Correct,0.0,0.0,-45,45,2008,3930,-2.47
"{'cat': 'II', 'resp': 'reach'}",12,13,Right,80.72889777313713,53.74414475423684,4.036444888656857,0.8442110516668845,Right,Correct,0.0,0.0,-45,45,2004,4133,-0.63
"{'cat': 'II', 'resp': 'reach'}",12,14,Right,80.25048102216363,48.725871621443346,4.012524051108182,0.765384201628429,Right,Correct,0.0,0.0,-45,45,2012,4896,-0.67
"{'cat': 'II', 'resp': 'reach'}",12,15,Right,84.39540355745453,57.57315745530131,4.219770177872727,0.9043570425277153,Left,Incorrect,0.0,0.0,-45,45,2004,5783,-2.38
"{'cat': 'II', 'resp': 'reach'}",12,16,Right,78.81420947210985,51.58823072576011,3.9407104736054923,0.810346033298716,Right,Correct,0.0,0.0,-45,45,2004,6545,-0.68
"{'cat': 'II', 'resp': 'reach'}",12,17,Right,43.367802617585696,26.111262382763428,2.168390130879285,0.4101547503882256,Left,Incorrect,0.0,0.0,-45,45,2004,2912,-2.35
"{'cat': 'II', 'resp': 'reach'}",12,18,Left,38.26435061157652,57.041069524112416,1.9132175305788257,0.8959990248492811,Left,Correct,0.0,0.0,-45,45,2012,2712,-2.27
"{'cat': 'II', 'resp': 'reach'}",12,19,Right,57.26254931091025,28.202138616352578,2.863127465545513,0.44299815746327137,Right,Correct,0.0,0.0,-45,45,2004,2275,-0.62
"{'cat': 'II', 'resp': 'reach'}",12,20,Right,39.06016064067964,19.035533294534936,1.953008032033982,0.29900945777637433,Left,Incorrect,0.0,0.0,-45,45,2004,2388,-2.42
"{'cat': 'II', 'resp': 'reach'}",12,21,Left,45.56675260451695,60.88283026181272,2.2783376302258476,0.9563452614013261,Right,Incorrect,0.0,0.0,-45,45,2004,3788,-0.67
"{'cat': 'II', 'resp': 'reach'}",12,22,Left,50.43800732869204,61.007084490149914,2.521900366434602,0.958297042255934,Right,Incorrect,0.0,0.0,-45,45,2008,8096,-0.71
"{'cat': 'II', 'resp': 'reach'}",12,23,Right,62.52357733080856,30.238317918549875,3.1261788665404278,0.4749823871491444,Right,Correct,0.0,0.0,-45,45,2013,2079,-0.71
"{'cat': 'II', 'resp': 'reach'}",12,24,Right,64.13516352164369,46.0173073226735,3.206758176082184,0.7228381731144744,Left,Incorrect,0.0,0.0,-45,45,2004,1558,-2.4
"{'cat': 'II', 'resp': 'reach'}",12,25,Right,59.278174687762885,36.08954382328763,2.963908734388144,0.5668932287332366,Right,Correct,0.0,0.0,-45,45,2004,7737,-0.7
"{'cat': 'II', 'resp': 'reach'}",12,26,Right,65.71666117255043,41.31147830409536,3.2858330586275213,0.6489191837454005,Right,Correct,0.0,0.0,-45,45,2004,2188,-0.65
"{'cat': 'II', 'resp': 'reach'}",12,27,Right,42.835853174371024,18.85686289126767,2.1417926587185514,0.2962029096447825,Left,Incorrect,0.0,0.0,-45,45,2008,1088,-2.47
"{'cat': 'II', 'resp': 'reach'}",12,28,Left,37.6000753945127,45.89044055417959,1.880003769725635,0.7208453545750485,Right,Incorrect,0.0,0.0,-45,45,2005,6024,-0.79
"{'cat': 'II', 'resp': 'reach'}",12,29,Left,18.705248865107425,32.01745073052544,0.9352624432553712,0.5029289400084593,Right,Incorrect,0.0,0.0,-45,45,2005,5920,-0.72
"{'cat': 'II', 'resp': 'reach'}",12,30,Right,57.796356689829416,37.357229976932466,2.889817834491471,0.5868059962699772,Left,Incorrect,0.0,0.0,-45,45,2009,2074,-2.43
"{'cat': 'II', 'resp': 'reach'}",12,31,Left,35.760760689824565,63.7059154066311,1.7880380344912283,1.0006901791584255,Right,Incorrect,0.0,0.0,-45,45,2008,1954,-0.65
"{'cat': 'II', 'resp': 'reach'}",12,32,Left,15.249914963297854,34.20247803243591,0.7624957481648927,0.5372512686063348,Left,Correct,0.0,0.0,-45,45,2013,2558,-2.36
"{'cat': 'II', 'resp': 'reach'}",12,33,Left,33.48882321396721,44.23030469359882,1.6744411606983605,0.694768001457241,Left,Correct,0.0,0.0,-45,45,2004,1937,-2.49
"{'cat': 'II', 'resp': 'reach'}",12,34,Right,37.8583904252529,19.25008350260667,1.892919521262645,0.30237960456389595,Right,Correct,0.0,0.0,-45,45,2008,11512,-0.67
"{'cat': 'II', 'resp': 'reach'}",12,35,Right,44.728386939778005,37.39409583152519,2.2364193469889004,0.5873850837597612,Left,Incorrect,0.0,0.0,-45,45,2004,2837,-2.42
"{'cat': 'II', 'resp': 'reach'}",12,36,Right,32.90233940139166,21.195855042421638,1.645116970069583,0.33294371243912996,Left,Incorrect,0.0,0.0,-45,45,2013,2733,-2.42
"{'cat': 'II', 'resp': 'reach'}",12,37,Right,59.53922604066705,34.76003306619932,2.9769613020333527,0.5460093225965504,Left,Incorrect,0.0,0.0,-45,45,2017,2479,-2.5
"{'cat': 'II', 'resp': 'reach'}",12,38,Left,27.139825509848606,58.80375301667197,1.3569912754924303,0.9236871924034264,Left,Correct,0.0,0.0,-45,45,2008,4429,-2.38
"{'cat': 'II', 'resp': 'reach'}",12,39,Right,82.58684510508589,59.47953831115267,4.129342255254294,0.9343024029861494,Left,Incorrect,0.0,0.0,-45,45,2004,1004,-2.4
"{'cat': 'II', 'resp': 'reach'}",12,40,Left,33.11820304747188,57.68597119664597,1.655910152373594,0.906129116632877,Left,Correct,0.0,0.0,-45,45,2013,1804,-2.33
"{'cat': 'II', 'resp': 'reach'}",12,41,Left,28.1423376489051,51.23937986556692,1.4071168824452551,0.8048662968008088,Left,Correct,0.0,0.0,-45,45,2008,1126,-2.36
"{'cat': 'II', 'resp': 'reach'}",12,42,Left,37.64730970148349,70.55687884735646,1.8823654850741747,1.1083048612354005,Right,Incorrect,0.0,0.0,-45,45,2008,592,-0.67
"{'cat': 'II', 'resp': 'reach'}",12,43,Right,68.4459108224585,50.816983992633595,3.422295541122925,0.7982313179442391,Right,Correct,0.0,0.0,-45,45,2009,620,-0.65
"{'cat': 'II', 'resp': 'reach'}",12,44,Right,85.88252977829059,69.88152700489512,4.29412648891453,1.097696459301076,Right,Correct,0.0,0.0,-45,45,2004,642,-0.62
"{'cat': 'II', 'resp': 'reach'}",12,45,Right,44.85129971190191,30.222402784278007,2.2425649855950955,0.47473239280459756,Right,Correct,0.0,0.0,-45,45,2004,675,-0.63
"{'cat': 'II', 'resp': 'reach'}",12,46,Right,46.37272043964409,22.688722270117317,2.3186360219822046,0.35639361601569847,Right,Correct,0.0,0.0,-45,45,2009,654,-0.56
"{'cat': 'II', 'resp': 'reach'}",12,47,Left,41.360573632328126,68.52352231051103,2.068028681616406,1.0763649714439887,Right,Incorrect,0.0,0.0,-45,45,2013,3020,-0.61
"{'cat': 'II', 'resp': 'reach'}",12,48,Left,36.65714993385683,52.033656064704815,1.8328574966928415,0.8173427581614732,Left,Correct,0.0,0.0,-45,45,2009,570,-2.41
"{'cat': 'II', 'resp': 'reach'}",12,49,Right,62.01003729145704,35.11300673755291,3.100501864572852,0.5515538200607256,Right,Correct,0.0,0.0,-45,45,2012,2159,-0.67
"{'cat': 'II', 'resp': 'reach'}",12,50,Left,36.079234325508324,68.80232491757235,1.803961716275416,1.0807443925547164,Right,Incorrect,0.0,0.0,-45,45,2012,950,-0.63
"{'cat': 'II', 'resp': 'reach'}",12,51,Left,68.37420648394837,84.73266731795407,3.418710324197418,1.3309776258257624,Right,Incorrect,0.0,0.0,-45,45,2009,933,-0.63
"{'cat': 'II', 'resp': 'reach'}",12,52,Left,49.89280331924234,58.41863446871575,2.494640165962117,0.9176377643983245,Right,Incorrect,0.0,0.0,-45,45,2009,704,-0.61
"{'cat': 'II', 'resp': 'reach'}",12,53,Left,41.58506421158996,62.91127760595158,2.079253210579498,0.9882080377740279,Right,Incorrect,0.0,0.0,-45,45,2013,1845,-0.64
"{'cat': 'II', 'resp': 'reach'}",12,54,Right,78.0848344170453,57.4547695017148,3.904241720852265,0.9024974089014105,Left,Incorrect,0.0,0.0,-45,45,2008,875,-2.4
"{'cat': 'II', 'resp': 'reach'}",12,55,Left,26.207920620845343,45.12951478986605,1.3103960310422673,0.7088927606195755,Right,Incorrect,0.0,0.0,-45,45,2009,2437,-0.59
"{'cat': 'II', 'resp': 'reach'}",12,56,Right,34.3580343583743,12.904207023345208,1.717901717918715,0.20269880992471556,Left,Incorrect,0.0,0.0,-45,45,2012,2821,-2.51
"{'cat': 'II', 'resp': 'reach'}",12,57,Left,47.6907649692106,54.98062356811796,2.38453824846053,0.8636336154569261,Right,Incorrect,0.0,0.0,-45,45,2004,896,-0.49
"{'cat': 'II', 'resp': 'reach'}",12,58,Left,37.98277729367656,69.05003166776946,1.8991388646838283,1.0846353610880355,Right,Incorrect,0.0,0.0,-45,45,2012,2904,-0.5
"{'cat': 'II', 'resp': 'reach'}",12,59,Right,61.81146175589893,40.92700995322837,3.0905730877949464,0.642879969012293,Right,Correct,0.0,0.0,-45,45,2017,717,-0.5
"{'cat': 'II', 'resp': 'reach'}",12,60,Right,46.34603483660652,17.746592989787697,2.317301741830326,0.2787628308148258,Right,Correct,0.0,0.0,-45,45,2012,588,-0.57
"{'cat': 'II', 'resp': 'reach'}",12,61,Left,31.83355716940058,50.04776170188471,1.591677858470029,0.786148402456268,Right,Incorrect,0.0,0.0,-45,45,2004,1662,-0.55
"{'cat': 'II', 'resp': 'reach'}",12,62,Right,35.664548530564446,17.86861415938917,1.7832274265282222,0.2806795348648378,Left,Incorrect,0.0,0.0,-45,45,2004,746,-2.28
"{'cat': 'II', 'resp': 'reach'}",12,63,Left,32.451136660879904,58.939667638270386,1.6225568330439952,0.9258221342870715,Left,Correct,0.0,0.0,-45,45,2008,846,-2.48
"{'cat': 'II', 'resp': 'reach'}",12,64,Left,53.46294005820625,67.45797472027026,2.6731470029103126,1.059627389036235,Left,Correct,0.0,0.0,-45,45,2008,555,-2.39
"{'cat': 'II', 'resp': 'reach'}",12,65,Left,18.118281519060943,42.3156830237795,0.9059140759530472,0.6646931945957,Left,Correct,0.0,0.0,-45,45,2004,592,-2.45
"{'cat': 'II', 'resp': 'reach'}",12,66,Right,61.4345420369014,35.76938204196773,3.07172710184507,0.5618641392324625,Left,Incorrect,0.0,0.0,-45,45,2005,875,-2.48
"{'cat': 'II', 'resp': 'reach'}",12,67,Right,45.560568677634734,37.30154052132329,2.2780284338817367,0.5859312283468562,Right,Correct,0.0,0.0,-45,45,2004,434,-0.48
"{'cat': 'II', 'resp': 'reach'}",12,68,Left,29.041656638280394,47.795524891441,1.4520828319140195,0.7507703493670957,Left,Correct,0.0,0.0,-45,45,2004,488,-2.45
"{'cat': 'II', 'resp': 'reach'}",12,69,Left,40.86026143411607,68.60853154645842,2.0430130717058033,1.0777002933996866,Right,Incorrect,0.0,0.0,-45,45,2004,433,-0.68
"{'cat': 'II', 'resp': 'reach'}",12,70,Right,80.04062039132036,53.34714868784991,4.002031019566018,0.8379750520385582,Right,Correct,0.0,0.0,-45,45,2012,434,-0.64
"{'cat': 'II', 'resp': 'reach'}",12,71,Left,28.074781242906965,46.111824755348,1.4037390621453483,0.7243228494751062,Right,Incorrect,0.0,0.0,-45,45,2012,384,-0.61
"{'cat': 'II', 'resp': 'reach'}",12,72,Right,52.489856651069104,25.616061935639728,2.624492832553455,0.4023761599545345,Left,Incorrect,0.0,0.0,-45,45,2004,541,-2.58
"{'cat': 'II', 'resp': 'reach'}",12,73,Left,45.241484434628624,67.80780043400459,2.262074221731431,1.065122438497758,Left,Correct,0.0,0.0,-45,45,2016,1196,-2.43
"{'cat': 'II', 'resp': 'reach'}",12,74,Right,67.22710542911933,55.285116636560716,3.3613552714559667,0.8684165813913699,Left,Incorrect,0.0,0.0,-45,45,2004,588,-2.36
"{'cat': 'II', 'resp': 'reach'}",12,75,Right,49.75206956577528,31.193771101864858,2.487603478288764,0.48999061065690114,Right,Correct,0.0,0.0,-45,45,2004,613,-0.52
"{'cat': 'II', 'resp': 'reach'}",12,76,Left,24.950156038194258,56.00307237663718,1.2475078019097128,0.8796942037845042,Right,Incorrect,0.0,0.0,-45,45,2004,433,-0.61
"{'cat': 'II', 'resp': 'reach'}",12,77,Left,53.465284369977034,63.88868948943727,2.6732642184988515,1.0035611877374777,Left,Correct,0.0,0.0,-45,45,2008,1904,-2.44
"{'cat': 'II', 'resp': 'reach'}",12,78,Right,38.382701283737106,12.65300194164691,1.9191350641868552,0.19875288972867663,Right,Correct,0.0,0.0,-45,45,2005,2616,-0.55
"{'cat': 'II', 'resp': 'reach'}",12,79,Left,39.7216188478699,50.985070875687555,1.986080942393495,0.8008716205290747,Left,Correct,0.0,0.0,-45,45,2004,3529,-2.43
"{'cat': 'II', 'resp': 'reach'}",12,80,Right,71.23725547380423,47.12739568111009,3.561862773690211,0.7402754002729741,Left,Incorrect,0.0,0.0,-45,45,2005,5604,-2.51
"{'cat': 'II', 'resp': 'reach'}",12,81,Left,34.78696005285096,42.59138536668989,1.7393480026425479,0.669023916871024,Right,Incorrect,0.0,0.0,-45,45,2005,4291,-0.6
"{'cat': 'II', 'resp': 'reach'}",12,82,Left,22.61308290734788,45.27259223666007,1.1306541453673942,0.7111402158982879,Right,Incorrect,0.0,0.0,-45,45,2012,6179,-0.65
"{'cat': 'II', 'resp': 'reach'}",12,83,Right,40.39401473223961,24.20128041108146,2.0197007366119806,0.38015282373460046,Left,Incorrect,0.0,0.0,-45,45,2016,3767,-2.49
"{'cat': 'II', 'resp': 'reach'}",12,84,Right,40.990680167895285,23.02102689449854,2.049534008394764,0.36161344484924834,Right,Correct,0.0,0.0,-45,45,2008,2104,-0.58
"{'cat': 'II', 'resp': 'reach'}",12,85,Left,46.35762064873656,53.9215109682731,2.3178810324368277,0.8469971136419411,Right,Incorrect,0.0,0.0,-45,45,2004,1129,-0.6
"{'cat': 'II', 'resp': 'reach'}",12,86,Left,32.55394574681275,58.75776218617701,1.6276972873406377,0.9229647701273492,Left,Correct,0.0,0.0,-45,45,2012,1954,-2.51
"{'cat': 'II', 'resp': 'reach'}",12,87,Right,83.69783394915908,57.18778266887303,4.184891697457954,0.898303589538106,Left,Incorrect,0.0,0.0,-45,45,2004,2338,-2.53
"{'cat': 'II', 'resp': 'reach'}",12,88,Left,33.592451250154674,64.72467966361586,1.679622562507734,1.0166928906858412,Right,Incorrect,0.0,0.0,-45,45,2008,3980,-0.62
"{'cat': 'II', 'resp': 'reach'}",12,89,Right,62.580624606260365,32.61365233263662,3.1290312303130183,0.5122940528747141,Left,Incorrect,0.0,0.0,-45,45,2008,4429,-2.41
"{'cat': 'II', 'resp': 'reach'}",12,90,Right,50.92327142276639,29.013088474076127,2.5461635711383197,0.45573652804054127,Right,Correct,0.0,0.0,-45,45,2013,3196,-0.61
"{'cat': 'II', 'resp': 'reach'}",12,91,Left,20.914452578715125,37.450970265734426,1.0457226289357562,0.5882784652832053,Left,Correct,0.0,0.0,-45,45,2012,1525,-2.36
"{'cat': 'II', 'resp': 'reach'}",12,92,Left,59.10941770550889,72.46632884398107,2.9554708852754445,1.1382984316443652,Right,Incorrect,0.0,0.0,-45,45,2012,746,-0.64
"{'cat': 'II', 'resp': 'reach'}",12,93,Right,54.707832144575505,42.111342108250334,2.735391607228775,0.6614834150004287,Left,Incorrect,0.0,0.0,-45,45,2004,833,-2.35
"{'cat': 'II', 'resp': 'reach'}",12,94,Right,58.148894540062294,31.094408351474442,2.9074447270031145,0.48842982422356607,Right,Correct,0.0,0.0,-45,45,2004,521,-0.53
"{'cat': 'II', 'resp': 'reach'}",12,95,Left,61.948661617508264,79.91389337614311,3.097433080875413,1.2552845017512462,Right,Incorrect,0.0,0.0,-45,45,2005,1200,-0.64
"{'cat': 'II', 'resp': 'reach'}",12,96,Left,46.01650882707394,53.95367411064991,2.3008254413536973,0.8475023311009778,Left,Correct,0.0,0.0,-45,45,2012,587,-2.56
"{'cat': 'II', 'resp': 'reach'}",12,97,Right,83.24994505253085,55.11448618517933,4.162497252626542,0.8657363245286778,Left,Incorrect,0.0,0.0,-45,45,2004,717,-2.27
"{'cat': 'II', 'resp': 'reach'}",12,98,Right,66.84082279744878,51.431214317625354,3.342041139872439,0.80787962532727,Left,Incorrect,0.0,0.0,-45,45,2004,521,-2.4
"{'cat': 'II', 'resp': 'reach'}",12,99,Right,61.773352676462956,37.75759499774779,3.088667633823148,0.5930949153107159,Left,Incorrect,0.0,0.0,-45,45,2004,483,-2.47
"{'cat': 'II', 'resp': 'reach'}",12,100,Right,72.28584716055894,62.5161907789238,3.614292358027947,0.9820020284074249,Left,Incorrect,0.0,0.0,-45,45,2013,917,-2.51
"{'cat': 'II', 'resp': 'reach'}",12,101,Right,52.51672132474626,40.877380639795014,2.6258360662373126,0.6421003935798683,Left,Incorrect,0.0,0.0,-45,45,2004,663,-2.33
"{'cat': 'II', 'resp': 'reach'}",12,102,Left,51.4383381969335,74.7299492777156,2.571916909846675,1.1738552982700459,Left,Correct,0.0,0.0,-45,45,2004,2146,-2.41
"{'cat': 'II', 'resp': 'reach'}",12,103,Left,25.361920124953933,37.04277053739601,1.2680960062476967,0.5818664789444786,Right,Incorrect,0.0,0.0,-45,45,2008,2354,-0.56
"{'cat': 'II', 'resp': 'reach'}",12,104,Left,51.38517607210376,69.56240812793651,2.569258803605188,1.0926837517037011,Right,Incorrect,0.0,0.0,-45,45,2004,846,-0.56
"{'cat': 'II', 'resp': 'reach'}",12,105,Left,29.956053384602328,60.470137363151395,1.4978026692301165,0.9498626965082105,Right,Incorrect,0.0,0.0,-45,45,2004,2546,-0.67
"{'cat': 'II', 'resp': 'reach'}",12,106,Right,70.86843430019844,61.29985602938456,3.543421715009922,0.9628958868401325,Right,Correct,0.0,0.0,-45,45,2013,1000,-0.65
"{'cat': 'II', 'resp': 'reach'}",12,107,Left,18.554868938077586,46.00320414816288,0.9277434469038793,0.7226166409673,Left,Correct,0.0,0.0,-45,45,2005,1300,-2.36
"{'cat': 'II', 'resp': 'reach'}",12,108,Left,21.03964128952895,45.846639998431634,1.0519820644764477,0.7201573370542439,Left,Correct,0.0,0.0,-45,45,2004,1159,-2.46
"{'cat': 'II', 'resp': 'reach'}",12,109,Left,19.602172967228626,45.3226011999996,0.9801086483614313,0.7119257548574934,Left,Correct,0.0,0.0,-45,45,2008,1138,-2.42
"{'cat': 'II', 'resp': 'reach'}",12,110,Right,40.870946642490374,27.152067675730855,2.043547332124519,0.4265036816992447,Right,Correct,0.0,0.0,-45,45,2009,1158,-0.47
"{'cat': 'II', 'resp': 'reach'}",12,111,Right,43.98694360733858,36.49614109038703,2.1993471803669293,0.5732800436696823,Right,Correct,0.0,0.0,-45,45,2004,554,-0.49
"{'cat': 'II', 'resp': 'reach'}",12,112,Right,61.405687874212866,29.47964848545954,3.070284393710643,0.4630652355616458,Right,Correct,0.0,0.0,-45,45,2013,416,-0.54
"{'cat': 'II', 'resp': 'reach'}",12,113,Left,37.45365387679548,51.33341530112353,1.8726826938397738,0.8063434019684177,Left,Correct,0.0,0.0,-45,45,2008,2196,-2.26
"{'cat': 'II', 'resp': 'reach'}",12,114,Left,56.86549240364164,64.74231724144276,2.8432746201820818,1.0169699411104818,Left,Correct,0.0,0.0,-45,45,2008,562,-2.37
"{'cat': 'II', 'resp': 'reach'}",12,115,Right,57.08244507374586,49.08487383992844,2.854122253687293,0.771023395289505,Left,Incorrect,0.0,0.0,-45,45,2008,512,-2.4
"{'cat': 'II', 'resp': 'reach'}",12,116,Right,54.22306250796193,41.85107565908962,2.7111531253980963,0.6573951591771328,Left,Incorrect,0.0,0.0,-45,45,2004,1059,-2.35
"{'cat': 'II', 'resp': 'reach'}",12,117,Right,37.67930371494756,21.90408559066448,1.883965185747378,0.34406857187616785,Right,Correct,0.0,0.0,-45,45,2004,2558,-0.62
"{'cat': 'II', 'resp': 'reach'}",12,118,Right,63.30106532185614,33.58522158242632,3.165053266092807,0.5275554269626795,Left,Incorrect,0.0,0.0,-45,45,2004,1130,-2.38
"{'cat': 'II', 'resp': 'reach'}",12,119,Left,26.238887422430757,47.9767772227129,1.311944371121538,0.7536174543289448,Left,Correct,0.0,0.0,-45,45,2012,1342,-2.37
"{'cat': 'II', 'resp': 'reach'}",12,120,Right,65.75470188478627,40.25345363118879,3.2877350942393138,0.6322997710468005,Right,Correct,0.0,0.0,-45,45,2004,1771,-0.54
"{'cat': 'II', 'resp': 'reach'}",12,121,Left,33.5618032494897,60.72772235059831,1.6780901624744848,0.9539088320294018,Left,Correct,0.0,0.0,-45,45,2008,1288,-2.33
"{'cat': 'II', 'resp': 'reach'}",12,122,Right,79.28933694597006,60.57719187760145,3.9644668472985027,0.9515443048888601,Right,Correct,0.0,0.0,-45,45,2013,1383,-0.53
"{'cat': 'II', 'resp': 'reach'}",12,123,Left,54.12854620292329,77.89276699267089,2.7064273101461644,1.2235367227597818,Right,Incorrect,0.0,0.0,-45,45,2012,1583,-0.7
"{'cat': 'II', 'resp': 'reach'}",12,124,Left,17.94522793244193,48.812664123486734,0.8972613966220965,0.76674753506246,Left,Correct,0.0,0.0,-45,45,2004,1229,-2.42
"{'cat': 'II', 'resp': 'reach'}",12,125,Left,63.54622289402046,74.58603055937495,3.1773111447010227,1.1715946283287808,Right,Incorrect,0.0,0.0,-45,45,2004,930,-0.54
"{'cat': 'II', 'resp': 'reach'}",12,126,Left,43.44322444972786,71.7556274486023,2.172161222486393,1.1271347602312753,Right,Incorrect,0.0,0.0,-45,45,2005,1441,-0.47
"{'cat': 'II', 'resp': 'reach'}",12,127,Left,50.11457912261821,75.65706288316713,2.5057289561309104,1.1884183647296942,Right,Incorrect,0.0,0.0,-45,45,2004,950,-0.93
"{'cat': 'II', 'resp': 'reach'}",12,128,Left,34.873148352707645,59.037735904604425,1.743657417635382,0.9273625870123983,Right,Incorrect,0.0,0.0,-45,45,2004,3254,-0.62
"{'cat': 'II', 'resp': 'reach'}",12,129,Right,68.22840674794148,57.29475889189986,3.4114203373970735,0.8999839681199554,Left,Incorrect,0.0,0.0,-45,45,2004,1442,-2.37
"{'cat': 'II', 'resp': 'reach'}",12,130,Left,53.96934313301503,70.85852011278969,2.698467156650752,1.1130430311529236,Right,Incorrect,0.0,0.0,-45,45,2004,1316,-0.62
"{'cat': 'II', 'resp': 'reach'}",12,131,Left,25.87146282162554,54.85983976607429,1.293573141081277,0.8617363479310609,Left,Correct,0.0,0.0,-45,45,2004,1379,-2.6
"{'cat': 'II', 'resp': 'reach'}",12,132,Right,54.009795981014115,40.836721715069125,2.7004897990507057,0.6414617246837597,Right,Correct,0.0,0.0,-45,45,2012,567,-0.67
"{'cat': 'II', 'resp': 'reach'}",12,133,Left,36.763337223485166,56.063421865319214,1.8381668611742583,0.8806421713359611,Right,Incorrect,0.0,0.0,-45,45,2005,1437,-0.65
"{'cat': 'II', 'resp': 'reach'}",12,134,Left,37.04442509464175,52.87112184935133,1.8522212547320875,0.8304976399448647,Left,Correct,0.0,0.0,-45,45,2017,670,-2.42
"{'cat': 'II', 'resp': 'reach'}",12,135,Left,36.04990408556055,56.63883960858672,1.8024952042780273,0.8896808121109331,Left,Correct,0.0,0.0,-45,45,2013,2541,-2.32
"{'cat': 'II', 'resp': 'reach'}",12,136,Right,41.704974728650065,23.20963321729328,2.085248736432503,0.3645760660398111,Left,Incorrect,0.0,0.0,-45,45,2004,1075,-2.46
"{'cat': 'II', 'resp': 'reach'}",12,137,Left,23.504095895016032,53.965685179899154,1.1752047947508018,0.8476910005355538,Left,Correct,0.0,0.0,-45,45,2004,1038,-2.44
"{'cat': 'II', 'resp': 'reach'}",12,138,Right,83.95489212193282,58.99402153628975,4.197744606096641,0.9266759233206296,Right,Correct,0.0,0.0,-45,45,2004,1037,-0.62
"{'cat': 'II', 'resp': 'reach'}",12,139,Right,43.41967049784369,28.647871030809377,2.1709835248921845,0.449999705856893,Left,Incorrect,0.0,0.0,-45,45,2008,987,-2.34
"{'cat': 'II', 'resp': 'reach'}",12,140,Left,32.296754576277635,55.303849474560266,1.6148377288138818,0.8687108361225714,Right,Incorrect,0.0,0.0,-45,45,2012,917,-0.6
"{'cat': 'II', 'resp': 'reach'}",12,141,Left,39.413198221121725,47.10757893514166,1.970659911056086,0.7399641195552117,Left,Correct,0.0,0.0,-45,45,2012,1917,-2.36
"{'cat': 'II', 'resp': 'reach'}",12,142,Right,38.196223309704706,28.90014888959581,1.9098111654852352,0.45396247719602706,Right,Correct,0.0,0.0,-45,45,2012,1433,-1.16
"{'cat': 'II', 'resp': 'reach'}",12,143,Left,14.263872533262042,42.14045414110548,0.7131936266631022,0.6619407057431728,Right,Incorrect,0.0,0.0,-45,45,2004,1509,-0.15
"{'cat': 'II', 'resp': 'reach'}",12,144,Left,32.99848018212198,56.57501150231899,1.649924009106099,0.888678202562217,Right,Incorrect,0.0,0.0,-45,45,2004,796,-0.7
"{'cat': 'II', 'resp': 'reach'}",12,145,Right,64.39297210105683,42.09665989943102,3.2196486050528415,0.6612527874036026,Right,Correct,0.0,0.0,-45,45,2009,846,-0.74
"{'cat': 'II', 'resp': 'reach'}",12,146,Right,68.0687259378943,44.76281130942688,3.403436296894715,0.703132595818608,Right,Correct,0.0,0.0,-45,45,2004,1434,-0.75
"{'cat': 'II', 'resp': 'reach'}",12,147,Left,55.00377566819092,72.80758356174054,2.7501887834095458,1.1436588482159455,Right,Incorrect,0.0,0.0,-45,45,2013,645,2.84
"{'cat': 'II', 'resp': 'reach'}",12,148,Right,33.65686281246276,20.456067250183654,1.682843140623138,0.32132315297257863,Right,Correct,0.0,0.0,-45,45,2004,1229,-0.68
"{'cat': 'II', 'resp': 'reach'}",12,149,Left,38.67568809110685,47.6372687671318,1.9337844045553425,0.7482844679795188,Left,Correct,0.0,0.0,-45,45,2009,1641,-2.37
"{'cat': 'II', 'resp': 'reach'}",12,150,Right,73.56438439352362,53.99440228535538,3.678219219676181,0.848142087773222,Right,Correct,0.0,0.0,-45,45,2005,1050,-0.7
"{'cat': 'II', 'resp': 'reach'}",12,151,Right,68.60245208660236,51.2518156414448,3.4301226043301174,0.8050616375115073,Right,Correct,0.0,0.0,-45,45,2004,1000,-0.84
"{'cat': 'II', 'resp': 'reach'}",12,152,Left,28.816030508844847,52.964757874332605,1.4408015254422424,0.8319684711858273,Left,Correct,0.0,0.0,-45,45,2004,1609,-2.44
"{'cat': 'II', 'resp': 'reach'}",12,153,Left,10.74085100241188,32.248817686685676,0.537042550120594,0.5065632436572416,Right,Incorrect,0.0,0.0,-45,45,2004,2508,-0.87
"{'cat': 'II', 'resp': 'reach'}",12,154,Left,32.95593282418422,63.425606135008145,1.6477966412092109,0.9962870914161065,Right,Incorrect,0.0,0.0,-45,45,2004,1188,-0.96
"{'cat': 'II', 'resp': 'reach'}",12,155,Left,56.22292591836282,80.2675893920927,2.811146295918141,1.2608403457778021,Right,Incorrect,0.0,0.0,-45,45,2008,967,-0.72
"{'cat': 'II', 'resp': 'reach'}",12,156,Left,37.67804486224958,46.226666178213875,1.883902243112479,0.7261267743271224,Right,Incorrect,0.0,0.0,-45,45,2008,1025,-0.73
"{'cat': 'II', 'resp': 'reach'}",12,157,Left,25.574375130162405,51.609791642854205,1.2787187565081204,0.8106847113924535,Left,Correct,0.0,0.0,-45,45,2008,875,-2.41
"{'cat': 'II', 'resp': 'reach'}",12,158,Right,45.5490876459926,26.46345011249784,2.27745438229963,0.4156869023103159,Right,Correct,0.0,0.0,-45,45,2017,525,-0.54
"{'cat': 'II', 'resp': 'reach'}",12,159,Right,47.26134660479491,23.229869836763786,2.3630673302397454,0.3648939421151212,Left,Incorrect,0.0,0.0,-45,45,2008,1005,-2.4
"{'cat': 'II', 'resp': 'reach'}",12,160,Left,30.037952222601383,38.885921486593396,1.501897611130069,0.6108186263517564,Right,Incorrect,0.0,0.0,-45,45,2004,3083,-0.65
"{'cat': 'II', 'resp': 'reach'}",12,161,Right,79.17952810916145,58.87185974081656,3.9589764054580723,0.9247570103245901,Left,Incorrect,0.0,0.0,-45,45,2004,384,-2.33
"{'cat': 'II', 'resp': 'reach'}",12,162,Right,76.51993297913494,61.451037305307125,3.8259966489567465,0.9652706367691258,Right,Correct,0.0,0.0,-45,45,2012,738,-0.66
"{'cat': 'II', 'resp': 'reach'}",12,163,Left,35.66224016102277,64.00786694136767,1.7831120080511385,1.0054332227747682,Left,Correct,0.0,0.0,-45,45,2004,929,-2.4
"{'cat': 'II', 'resp': 'reach'}",12,164,Left,49.515228652937836,68.79091887992327,2.4757614326468915,1.0805652269342916,Right,Incorrect,0.0,0.0,-45,45,2004,608,-0.58
"{'cat': 'II', 'resp': 'reach'}",12,165,Left,36.688423505095756,61.313314578120405,1.8344211752547879,0.9631072932293152,Left,Correct,0.0,0.0,-45,45,2008,604,-2.31
"{'cat': 'II', 'resp': 'reach'}",12,166,Left,56.85170688823455,76.97992118834925,2.8425853444117273,1.2091977743961961,Right,Incorrect,0.0,0.0,-45,45,2005,704,-0.56
"{'cat': 'II', 'resp': 'reach'}",12,167,Right,57.29477814050171,34.22522051871693,2.8647389070250857,0.5376085067454588,Left,Incorrect,0.0,0.0,-45,45,2016,2346,-2.38
"{'cat': 'II', 'resp': 'reach'}",12,168,Left,29.33800903810495,53.006669468465724,1.4669004519052475,0.8326268169669714,Left,Correct,0.0,0.0,-45,45,2017,1300,-2.45
"{'cat': 'II', 'resp': 'reach'}",12,169,Left,39.77470155359749,58.32494019016237,1.9887350776798742,0.916166018112391,Right,Incorrect,0.0,0.0,-45,45,2004,904,-0.59
"{'cat': 'II', 'resp': 'reach'}",12,170,Right,51.09178313440212,44.3302020779839,2.5545891567201062,0.6963371859017259,Right,Correct,0.0,0.0,-45,45,2013,1533,-0.58
"{'cat': 'II', 'resp': 'reach'}",12,171,Left,29.054479414269117,60.61935222608423,1.4527239707134558,0.9522065580941916,Left,Correct,0.0,0.0,-45,45,2008,1337,-2.47
"{'cat': 'II', 'resp': 'reach'}",12,172,Left,66.73447784087651,87.5036245335076,3.336723892043825,1.3745037199847354,Left,Correct,0.0,0.0,-45,45,2004,2763,-2.42
"{'cat': 'II', 'resp': 'reach'}",12,173,Left,21.94119149502067,49.94523718862456,1.0970595747510337,0.7845379511679134,Right,Incorrect,0.0,0.0,-45,45,2004,1263,-0.71
"{'cat': 'II', 'resp': 'reach'}",12,174,Right,79.70832817427325,57.47551789992514,3.9854164087136623,0.9028233239783674,Right,Correct,0.0,0.0,-45,45,2004,1200,-0.59
"{'cat': 'II', 'resp': 'reach'}",12,175,Right,78.82251034052601,65.71663462200635,3.941125517026301,1.032274482735699,Right,Correct,0.0,0.0,-45,45,2005,937,-0.64
"{'cat': 'II', 'resp': 'reach'}",12,176,Left,29.42309038358058,50.54668632133916,1.471154519179029,0.7939854920521339,Left,Correct,0.0,0.0,-45,45,2004,1488,-2.37
"{'cat': 'II', 'resp': 'reach'}",12,177,Left,55.21135279420426,66.6871689527618,2.760567639710213,1.0475196003534888,Right,Incorrect,0.0,0.0,-45,45,2017,1350,-0.7
"{'cat': 'II', 'resp': 'reach'}",12,178,Left,26.841196540874115,52.28447791037973,1.3420598270437056,0.8212826585001339,Left,Correct,0.0,0.0,-45,45,2004,1784,-2.42
"{'cat': 'II', 'resp': 'reach'}",12,179,Right,48.475228520059,40.37027292227636,2.42376142600295,0.6341347641801918,Left,Incorrect,0.0,0.0,-45,45,2004,1075,-2.45
"{'cat': 'II', 'resp': 'reach'}",12,180,Left,33.53869900792618,56.38735436200443,1.6769349503963094,0.8857304910951874,Right,Incorrect,0.0,0.0,-45,45,2012,1313,-0.71
"{'cat': 'II', 'resp': 'reach'}",12,181,Left,31.10697468127855,45.13071152708183,1.5553487340639276,0.7089115589238023,Left,Correct,0.0,0.0,-45,45,2009,1712,-2.41
"{'cat': 'II', 'resp': 'reach'}",12,182,Right,59.97819926725578,29.636324218623706,2.9989099633627894,0.4655262922231676,Right,Correct,0.0,0.0,-45,45,2012,946,-0.58
"{'cat': 'II', 'resp': 'reach'}",12,183,Left,21.67499045722845,37.723942498977735,1.0837495228614225,0.5925663030961612,Left,Correct,0.0,0.0,-45,45,2012,1017,-2.41
"{'cat': 'II', 'resp': 'reach'}",12,184,Left,22.49365003696051,53.17471739104951,1.1246825018480253,0.8352665075621728,Left,Correct,0.0,0.0,-45,45,2017,1471,-1.92
"{'cat': 'II', 'resp': 'reach'}",12,185,Right,54.047989918710634,36.84180513532974,2.7023994959355315,0.5787097217906931,Right,Correct,0.0,0.0,-45,45,2017,813,-1.01
"{'cat': 'II', 'resp': 'reach'}",12,186,Right,69.9031332582303,46.92511787386048,3.4951566629115147,0.7370980279067759,Right,Correct,0.0,0.0,-45,45,2004,854,-1.26
"{'cat': 'II', 'resp': 'reach'}",12,187,Left,26.222500150350413,39.507075181284804,1.3111250075175207,0.62057568577172,Left,Correct,0.0,0.0,-45,45,2009,1279,-1.71
"{'cat': 'II', 'resp': 'reach'}",12,188,Right,46.94980882579979,23.751888859778052,2.3474904412899895,0.37309379775379986,Right,Correct,0.0,0.0,-45,45,2004,804,-0.68
"{'cat': 'II', 'resp': 'reach'}",12,189,Left,21.567471193273434,40.323562124504974,1.0783735596636717,0.6334010326845823,Left,Correct,0.0,0.0,-45,45,2004,866,-2.22
"{'cat': 'II', 'resp': 'reach'}",12,190,Right,39.97165971535652,21.60023780423562,1.9985829857678261,0.33929574200789575,Right,Correct,0.0,0.0,-45,45,2004,675,-0.72
"{'cat': 'II', 'resp': 'reach'}",12,191,Left,31.773748983343573,64.35363828075994,1.5886874491671787,1.0108645862730514,Right,Incorrect,0.0,0.0,-45,45,2005,1512,-0.72
"{'cat': 'II', 'resp': 'reach'}",12,192,Right,52.37916370425301,40.827295751724925,2.6189581852126502,0.641313661997784,Right,Correct,0.0,0.0,-45,45,2012,1988,-1.33
"{'cat': 'II', 'resp': 'reach'}",12,193,Left,48.40208198986464,70.14300907167107,2.420104099493232,1.1018038100012204,Right,Incorrect,0.0,0.0,-45,45,2012,1480,-1.12
"{'cat': 'II', 'resp': 'reach'}",12,194,Right,63.62862138238988,50.168729271712124,3.181431069119494,0.7880485565997302,Right,Correct,0.0,0.0,-45,45,2004,796,-0.88
"{'cat': 'II', 'resp': 'reach'}",12,195,Left,12.777880268690655,33.58794948907135,0.6388940134345327,0.5275982768200579,Left,Correct,0.0,0.0,-45,45,2004,1079,-2.21
"{'cat': 'II', 'resp': 'reach'}",12,196,Right,81.37239461400776,58.32526229338372,4.068619730700388,0.9161710776979604,Right,Correct,0.0,0.0,-45,45,2008,896,-0.87
"{'cat': 'II', 'resp': 'reach'}",12,197,Left,51.92323470438765,65.70958763581324,2.5961617352193826,1.0321637889354278,Right,Incorrect,0.0,0.0,-45,45,2004,2212,-1.16
"{'cat': 'II', 'resp': 'reach'}",12,198,Right,48.92381801413132,18.313931512703636,2.446190900706566,0.2876745634932818,Right,Correct,0.0,0.0,-45,45,2012,2146,-0.83
"{'cat': 'II', 'resp': 'reach'}",12,199,Left,42.174970738855926,72.94171784923287,2.1087485369427963,1.1457658246768476,Left,Correct,0.0,0.0,-45,45,2004,5800,-2.03
"{'cat': 'II', 'resp': 'reach'}",12,200,Left,49.84462337859297,68.65970707474705,2.492231168929649,1.0785041567182623,Left,Correct,0.0,0.0,-45,45,2012,2629,-1.9
"{'cat': 'II', 'resp': 'reach'}",12,201,Right,77.6939606046876,55.15278536437049,3.8846980302343805,0.8663379266286049,Right,Correct,0.0,0.0,-45,45,2004,1833,-0.72
"{'cat': 'II', 'resp': 'reach'}",12,202,Left,27.88247414585857,44.73997444019055,1.3941237072929287,0.7027738751154887,Left,Correct,0.0,0.0,-45,45,2009,2262,-1.83
"{'cat': 'II', 'resp': 'reach'}",12,203,Right,57.128622066336106,28.13447827911864,2.8564311033168055,0.4419353513713036,Left,Incorrect,0.0,0.0,-45,45,2004,4333,-1.91
"{'cat': 'II', 'resp': 'reach'}",12,204,Left,16.19030339148894,37.695610825463724,0.8095151695744469,0.5921212702092835,Left,Correct,0.0,0.0,-45,45,2004,1208,-1.82
"{'cat': 'II', 'resp': 'reach'}",12,205,Right,40.57958985167066,21.368164072067426,2.028979492583533,0.33565033634754193,Right,Correct,0.0,0.0,-45,45,2004,3133,2.55
"{'cat': 'II', 'resp': 'reach'}",12,206,Left,37.18635822497432,62.66164097889429,1.8593179112487161,0.9842867548058772,Right,Incorrect,0.0,0.0,-45,45,2004,7916,-0.67
"{'cat': 'II', 'resp': 'reach'}",12,207,Right,66.497257629835,42.50338884385989,3.3248628814917502,0.667641670722703,Right,Correct,0.0,0.0,-45,45,2012,2075,-0.83
"{'cat': 'II', 'resp': 'reach'}",12,208,Right,45.92781836007182,31.53922142422942,2.296390918003591,0.4954169316315048,Right,Correct,0.0,0.0,-45,45,2004,10617,2.93
"{'cat': 'II', 'resp': 'reach'}",12,209,Left,47.70090807593454,59.29919197353748,2.385045403796727,0.931469529339381,Right,Incorrect,0.0,0.0,-45,45,2012,5429,-0.48
"{'cat': 'II', 'resp': 'reach'}",12,210,Right,32.78692420239435,11.24243532564794,1.6393462101197176,0.1765957611375697,Right,Correct,0.0,0.0,-45,45,2012,6346,-0.47
"{'cat': 'II', 'resp': 'reach'}",12,211,Right,52.68906204941259,30.81402262102273,2.6344531024706295,0.4840255354687736,Right,Correct,0.0,0.0,-45,45,2004,954,-0.57
"{'cat': 'II', 'resp': 'reach'}",12,212,Right,49.08220480244266,35.62390772312435,2.4541102401221333,0.5595790339756408,Right,Correct,0.0,0.0,-45,45,2004,3413,-0.64
"{'cat': 'II', 'resp': 'reach'}",12,213,Right,33.87990872695991,14.962723827085892,1.6939954363479957,0.23503391626432998,Left,Incorrect,0.0,0.0,-45,45,2004,966,-2.37
"{'cat': 'II', 'resp': 'reach'}",12,214,Left,56.17649585464549,81.99277281458689,2.8088247927322745,1.2879394636088153,Left,Correct,0.0,0.0,-45,45,2009,2154,-2.37
"{'cat': 'II', 'resp': 'reach'}",12,215,Right,76.56988361321552,50.57860751347642,3.8284941806607766,0.7944869089656951,Right,Correct,0.0,0.0,-45,45,2004,987,-0.57
"{'cat': 'II', 'resp': 'reach'}",12,216,Right,34.36817213902095,14.5614760431191,1.7184086069510474,0.22873113081243368,Right,Correct,0.0,0.0,-45,45,2004,1400,-0.56
"{'cat': 'II', 'resp': 'reach'}",12,217,Right,82.91451196704509,63.352164425114466,4.1457255983522545,0.9951334717347613,Left,Incorrect,0.0,0.0,-45,45,2004,5833,-2.2
"{'cat': 'II', 'resp': 'reach'}",12,218,Right,73.13764371116731,55.075172756479475,3.6568821855583655,0.8651187906347232,Right,Correct,0.0,0.0,-45,45,2012,3487,-0.47
"{'cat': 'II', 'resp': 'reach'}",12,219,Right,63.389562417089664,44.59319070125086,3.1694781208544835,0.700468201535892,Right,Correct,0.0,0.0,-45,45,2013,5362,-0.48
"{'cat': 'II', 'resp': 'reach'}",12,220,Left,29.421683805393698,61.47611466885585,1.4710841902696847,0.9656645510746062,Left,Correct,0.0,0.0,-45,45,2004,4229,-2.4
"{'cat': 'II', 'resp': 'reach'}",12,221,Left,37.980767182410894,57.27418910830657,1.8990383591205446,0.8996608587148424,Left,Correct,0.0,0.0,-45,45,2004,1366,-2.4
"{'cat': 'II', 'resp': 'reach'}",12,222,Right,57.27881635847372,26.855617559630154,2.8639408179236856,0.42184705416475565,Right,Correct,0.0,0.0,-45,45,2004,1129,-0.4
"{'cat': 'II', 'resp': 'reach'}",12,223,Left,43.376222982719604,63.733521468979056,2.1688111491359803,1.0011238141717598,Left,Correct,0.0,0.0,-45,45,2008,3292,-2.4
"{'cat': 'II', 'resp': 'reach'}",12,224,Right,85.67472416624383,66.29931474933107,4.283736208312192,1.0414272007726797,Right,Correct,0.0,0.0,-45,45,2004,1563,-0.47
"{'cat': 'II', 'resp': 'reach'}",12,225,Left,11.177047896477802,35.46595475961151,0.5588523948238902,0.5570979146267174,Left,Correct,0.0,0.0,-45,45,2005,3154,-2.36
"{'cat': 'II', 'resp': 'reach'}",12,226,Left,23.78614553157856,54.22608614737371,1.1893072765789279,0.8517813693675824,Right,Incorrect,0.0,0.0,-45,45,2008,675,-0.46
"{'cat': 'II', 'resp': 'reach'}",12,227,Left,22.31602054555579,43.36580823774979,1.1158010272777894,0.6811885228834923,Right,Incorrect,0.0,0.0,-45,45,2004,1450,-0.52
"{'cat': 'II', 'resp': 'reach'}",12,228,Left,67.22756635643222,79.8053048923019,3.3613783178216115,1.2535787978357462,Right,Incorrect,0.0,0.0,-45,45,2004,1038,-0.53
"{'cat': 'II', 'resp': 'reach'}",12,229,Left,17.48707043498055,35.9755988414402,0.8743535217490275,0.5651033851438101,Left,Correct,0.0,0.0,-45,45,2017,1238,-2.41
"{'cat': 'II', 'resp': 'reach'}",12,230,Right,56.78908091253271,30.887401653518836,2.8394540456266357,0.48517817061586005,Right,Correct,0.0,0.0,-45,45,2013,1796,-0.48
"{'cat': 'II', 'resp': 'reach'}",12,231,Right,56.28502299626423,36.049109461176826,2.8142511498132112,0.5662580872584371,Right,Correct,0.0,0.0,-45,45,2008,1400,-0.48
"{'cat': 'II', 'resp': 'reach'}",12,232,Left,60.90969491918894,73.29941307348592,3.045484745959447,1.151384488120535,Right,Incorrect,0.0,0.0,-45,45,2012,3146,-0.52
"{'cat': 'II', 'resp': 'reach'}",12,233,Right,64.11729322893501,53.03113795299454,3.2058646614467508,0.8330111670231726,Right,Correct,0.0,0.0,-45,45,2004,1250,-0.45
"{'cat': 'II', 'resp': 'reach'}",12,234,Left,10.350167851897627,34.73999776856857,0.5175083925948814,0.5456946088773041,Right,Incorrect,0.0,0.0,-45,45,2004,53199,-0.15
"{'cat': 'II', 'resp': 'reach'}",12,235,Left,50.91448019936755,63.91058538691527,2.5457240099683776,1.0039051276907809,Right,Incorrect,0.0,0.0,-45,45,2005,6075,-0.91
"{'cat': 'II', 'resp': 'reach'}",12,236,Right,37.53383735868822,23.17947682859898,1.876691867934411,0.36410237059390693,Right,Correct,0.0,0.0,-45,45,2004,2188,-0.56
"{'cat': 'II', 'resp': 'reach'}",12,237,Right,60.95206138384383,48.65395177596514,3.0476030691921916,0.7642544873374207,Right,Correct,0.0,0.0,-45,45,2012,2229,-0.43
"{'cat': 'II', 'resp': 'reach'}",12,238,Right,63.85186526074942,39.38500789751255,3.1925932630374714,0.6186582573620071,Right,Correct,0.0,0.0,-45,45,2004,1921,-0.51
"{'cat': 'II', 'resp': 'reach'}",12,239,Right,46.64409728399497,18.198723249583253,2.332204864199748,0.2858648763280226,Left,Incorrect,0.0,0.0,-45,45,2004,2892,-2.18
"{'cat': 'II', 'resp': 'reach'}",12,240,Right,50.78830835837351,41.4693004928764,2.5394154179186756,0.6513982488896405,Right,Correct,0.0,0.0,-45,45,2004,1300,-0.52
"{'cat': 'II', 'resp': 'reach'}",12,241,Left,11.995709460828952,31.065561018852588,0.5997854730414476,0.48797669138236366,Left,Correct,0.0,0.0,-45,45,2013,6054,-2.5
"{'cat': 'II', 'resp': 'reach'}",12,242,Left,36.15706730189306,50.020586463944,1.8078533650946529,0.7857215348168977,Right,Incorrect,0.0,0.0,-45,45,2004,688,-0.57
"{'cat': 'II', 'resp': 'reach'}",12,243,Left,49.87067228483468,58.03692501632286,2.493533614241734,0.9116418863411078,Right,Incorrect,0.0,0.0,-45,45,2008,9479,-0.61
"{'cat': 'II', 'resp': 'reach'}",12,244,Left,47.41735249413845,56.260082381876266,2.3708676247069222,0.8837313075062951,Right,Incorrect,0.0,0.0,-45,45,2017,925,-0.53
"{'cat': 'II', 'resp': 'reach'}",12,245,Right,74.004633418849,41.904084624698314,3.7002316709424496,0.6582278220617861,Right,Correct,0.0,0.0,-45,45,2004,854,-0.51
"{'cat': 'II', 'resp': 'reach'}",12,246,Left,57.599383247444365,78.06924604418445,2.8799691623722183,1.2263088492185195,Left,Correct,0.0,0.0,-45,45,2004,2113,-2.46
"{'cat': 'II', 'resp': 'reach'}",12,247,Right,44.64525229882857,37.18024146598029,2.232262614941428,0.5840258672410913,Right,Correct,0.0,0.0,-45,45,2004,2188,-0.54
"{'cat': 'II', 'resp': 'reach'}",12,248,Right,42.146940905402566,22.1269447284174,2.1073470452701284,0.3475692350259175,Right,Correct,0.0,0.0,-45,45,2004,1975,-0.61
"{'cat': 'II', 'resp': 'reach'}",12,249,Left,50.90438349644107,70.10785478280852,2.5452191748220536,1.1012516077230563,Left,Correct,0.0,0.0,-45,45,2008,6846,-2.41
"{'cat': 'II', 'resp': 'reach'}",12,250,Left,58.717701152034834,77.34149162214577,2.9358850576017415,1.2148773094890484,Left,Correct,0.0,0.0,-45,45,2008,2458,-2.43
"{'cat': 'II', 'resp': 'reach'}",12,251,Right,57.46605197026194,29.655562385046295,2.8733025985130967,0.46582848463467613,Right,Correct,0.0,0.0,-45,45,2008,1963,-0.48
"{'cat': 'II', 'resp': 'reach'}",12,252,Left,55.653216661944086,67.62912605425441,2.7826608330972045,1.0623158279037186,Left,Correct,0.0,0.0,-45,45,2004,1384,-2.32
"{'cat': 'II', 'resp': 'reach'}",12,253,Left,53.40006082285374,76.50886973003823,2.670003041142687,1.201798515391733,Left,Correct,0.0,0.0,-45,45,2008,2146,-2.44
"{'cat': 'II', 'resp': 'reach'}",12,254,Right,50.062636307333186,35.98123092603953,2.5031318153666593,0.5651918537218183,Right,Correct,0.0,0.0,-45,45,2004,975,-0.51
"{'cat': 'II', 'resp': 'reach'}",12,255,Right,54.891634815274,28.31059564015716,2.7445817407637003,0.44470179640934476,Right,Correct,0.0,0.0,-45,45,2004,1058,-0.51
"{'cat': 'II', 'resp': 'reach'}",12,256,Right,78.85202219721526,57.163192791548354,3.942601109860763,0.8979173326483267,Left,Incorrect,0.0,0.0,-45,45,2013,4374,-2.4
"{'cat': 'II', 'resp': 'reach'}",12,257,Right,38.65798198012941,13.445637606221823,1.9328990990064705,0.21120358163268563,Left,Incorrect,0.0,0.0,-45,45,2004,4063,-2.45
"{'cat': 'II', 'resp': 'reach'}",12,258,Right,53.51352894301983,35.39437986257905,2.6756764471509915,0.5559736187732243,Right,Correct,0.0,0.0,-45,45,2017,4958,-0.48
"{'cat': 'II', 'resp': 'reach'}",12,259,Left,29.603616176282795,42.28247696429217,1.4801808088141397,0.6641715950329998,Left,Correct,0.0,0.0,-45,45,2012,4113,-2.44
"{'cat': 'II', 'resp': 'reach'}",12,260,Right,30.299443825715883,12.319583905937257,1.514972191285794,0.1935155714708777,Right,Correct,0.0,0.0,-45,45,2005,1795,-0.69
"{'cat': 'II', 'resp': 'reach'}",12,261,Left,29.587351010883687,50.179619946040916,1.4793675505441843,0.78821962691205,Left,Correct,0.0,0.0,-45,45,2004,837,-2.44
"{'cat': 'II', 'resp': 'reach'}",12,262,Right,63.07182026968284,41.10387419294504,3.153591013484142,0.6456581459931762,Right,Correct,0.0,0.0,-45,45,2004,434,-0.51
"{'cat': 'II', 'resp': 'reach'}",12,263,Left,42.43633072465496,51.80180592358853,2.121816536232748,0.8137008646611498,Left,Correct,0.0,0.0,-45,45,2004,2667,-2.32
"{'cat': 'II', 'resp': 'reach'}",12,264,Left,17.517909880676243,31.915304553397114,0.8758954940338122,0.5013244316101663,Left,Correct,0.0,0.0,-45,45,2004,1109,-2.35
"{'cat': 'II', 'resp': 'reach'}",12,265,Right,37.13322645292473,24.843410186006615,1.8566613226462365,0.3902393746523811,Right,Correct,0.0,0.0,-45,45,2004,1612,-0.44
"{'cat': 'II', 'resp': 'reach'}",12,266,Left,42.41326010685253,53.667990290673416,2.1206630053426268,0.8430148201505397,Left,Correct,0.0,0.0,-45,45,2004,1216,-2.43
"{'cat': 'II', 'resp': 'reach'}",12,267,Left,41.71137338989294,48.80165870038719,2.085568669494647,0.766574662280664,Left,Correct,0.0,0.0,-45,45,2016,1521,-2.47
"{'cat': 'II', 'resp': 'reach'}",12,268,Left,35.92876864122408,59.88386193709496,1.7964384320612041,0.9406535036508149,Left,Correct,0.0,0.0,-45,45,2004,1491,-2.42
"{'cat': 'II', 'resp': 'reach'}",12,269,Right,81.93981911366376,59.02411501103842,4.096990955683188,0.9271486305165867,Right,Correct,0.0,0.0,-45,45,2004,2925,-0.73
"{'cat': 'II', 'resp': 'reach'}",12,270,Left,44.27466366156186,59.30190682808439,2.213733183078093,0.9315121741748814,Left,Correct,0.0,0.0,-45,45,2004,2738,-2.39
"{'cat': 'II', 'resp': 'reach'}",12,271,Right,86.84010717793593,59.701349136841245,4.342005358896796,0.9377865992884991,Right,Correct,0.0,0.0,-45,45,2012,759,-0.62
"{'cat': 'II', 'resp': 'reach'}",12,272,Left,51.02787943614299,63.612867795338026,2.5513939718071494,0.9992285906980632,Left,Correct,0.0,0.0,-45,45,2008,746,-2.39
"{'cat': 'II', 'resp': 'reach'}",12,273,Right,34.94619880733326,24.12455234442701,1.747309940366663,0.3789475820819715,Left,Incorrect,0.0,0.0,-45,45,2008,1038,-2.33
"{'cat': 'II', 'resp': 'reach'}",12,274,Right,34.81402606673472,24.319539305342843,1.740701303336736,0.3820104301017665,Left,Incorrect,0.0,0.0,-45,45,2005,1162,-2.32
"{'cat': 'II', 'resp': 'reach'}",12,275,Left,28.924900560964723,57.356444643118195,1.446245028048236,0.9009529256342489,Left,Correct,0.0,0.0,-45,45,2012,1150,-2.24
"{'cat': 'II', 'resp': 'reach'}",12,276,Left,63.64808909511325,88.75899501284306,3.182404454755663,1.3942230333618042,Left,Correct,0.0,0.0,-45,45,2017,1904,-2.25
"{'cat': 'II', 'resp': 'reach'}",12,277,Right,82.10411710836439,62.156709628793436,4.10520585541822,0.9763553117056571,Left,Incorrect,0.0,0.0,-45,45,2004,1333,-2.24
"{'cat': 'II', 'resp': 'reach'}",12,278,Right,74.92463079305332,55.13365984370533,3.7462315396526664,0.8660375036525162,Right,Correct,0.0,0.0,-45,45,2004,2117,-0.79
"{'cat': 'II', 'resp': 'reach'}",12,279,Left,33.359372394377765,42.23139961542552,1.6679686197188883,0.6633692739131781,Left,Correct,0.0,0.0,-45,45,2013,1021,-2.2
"{'cat': 'II', 'resp': 'reach'}",12,280,Right,78.9924959572543,58.68207698442173,3.949624797862715,0.92177590975825,Right,Correct,0.0,0.0,-45,45,2005,916,-0.48
"{'cat': 'II', 'resp': 'reach'}",12,281,Right,61.84231152127545,31.03735207359884,3.0921155760637724,0.48753358630649024,Right,Correct,0.0,0.0,-45,45,2004,1042,-0.5
"{'cat': 'II', 'resp': 'reach'}",12,282,Left,51.50457648372331,71.17963374644113,2.5752288241861656,1.118087072315158,Left,Correct,0.0,0.0,-45,45,2005,1058,-2.19
"{'cat': 'II', 'resp': 'reach'}",12,283,Left,35.53660101433151,52.63757791429414,1.7768300507165753,0.8268291403915342,Left,Correct,0.0,0.0,-45,45,2004,8842,-2.42
"{'cat': 'II', 'resp': 'reach'}",12,284,Right,45.43800878234553,29.002778421865912,2.2719004391172763,0.45557457811913266,Right,Correct,0.0,0.0,-45,45,2005,3104,-0.39
"{'cat': 'II', 'resp': 'reach'}",12,285,Left,53.22818004693589,61.58471914567786,2.6614090023467947,0.9673705062072612,Left,Correct,0.0,0.0,-45,45,2013,850,-2.32
"{'cat': 'II', 'resp': 'reach'}",12,286,Left,46.31941293227657,54.731056094271395,2.315970646613829,0.8597134187448694,Right,Incorrect,0.0,0.0,-45,45,2008,2942,-0.51
"{'cat': 'II', 'resp': 'reach'}",12,287,Left,36.95478528020048,55.09692355500893,1.8477392640100243,0.8654604513790723,Right,Incorrect,0.0,0.0,-45,45,2005,745,-0.53
"{'cat': 'II', 'resp': 'reach'}",12,288,Right,48.08388103587664,34.426233599323794,2.404194051793832,0.5407660128320086,Left,Incorrect,0.0,0.0,-45,45,2004,1867,-2.37
"{'cat': 'II', 'resp': 'reach'}",12,289,Right,65.45681549464783,47.870191991436144,3.272840774732391,0.7519432174311436,Right,Correct,0.0,0.0,-45,45,2013,845,-0.72
"{'cat': 'II', 'resp': 'reach'}",12,290,Right,59.92333115641205,38.502305744710696,2.9961665578206023,0.6047928043692561,Right,Correct,0.0,0.0,-45,45,2004,1329,-0.71
"{'cat': 'II', 'resp': 'reach'}",12,291,Left,46.466934701451336,73.45400880928129,2.323346735072567,1.15381287225979,Left,Correct,0.0,0.0,-45,45,2013,987,-2.51
"{'cat': 'II', 'resp': 'reach'}",12,292,Right,75.26619477387564,58.17900991493424,3.763309738693782,0.9138737507094258,Right,Correct,0.0,0.0,-45,45,2004,1005,-0.71
"{'cat': 'II', 'resp': 'reach'}",12,293,Right,88.18437344414258,60.98253692914604,4.409218672207129,0.9579114500693674,Right,Correct,0.0,0.0,-45,45,2008,1450,-0.66
"{'cat': 'II', 'resp': 'reach'}",12,294,Left,32.840194222397365,46.005499239446344,1.6420097111198684,0.7226526921768772,Left,Correct,0.0,0.0,-45,45,2004,1162,-2.48
"{'cat': 'II', 'resp': 'reach'}",12,295,Right,66.9353859866774,40.07881689077937,3.34676929933387,0.629556583543215,Right,Correct,0.0,0.0,-45,45,2004,1313,-0.65
"{'cat': 'II', 'resp': 'reach'}",12,296,Right,77.0807533971422,49.53615971854062,3.85403766985711,0.7781121772940891,Right,Correct,0.0,0.0,-45,45,2008,1609,-0.63
"{'cat': 'II', 'resp': 'reach'}",12,297,Right,44.920675113892,20.808598605471918,2.2460337556946,0.326860702552247,Left,Incorrect,0.0,0.0,-45,45,2004,1429,-2.26
"{'cat': 'II', 'resp': 'reach'}",12,298,Right,46.63145480113609,19.874986718817745,2.3315727400568047,0.3121955613301627,Left,Incorrect,0.0,0.0,-45,45,2013,2008,-2.36
"{'cat': 'II', 'resp': 'reach'}",12,299,Right,42.766027058226165,14.765216013213056,2.1383013529113084,0.23193147077888254,Right,Correct,0.0,0.0,-45,45,2004,1317,-0.62
"{'cat': 'II', 'resp': 'reach'}",12,300,Left,34.07330531194105,44.23040013490565,1.7036652655970526,0.694769500645783,Left,Correct,0.0,0.0,-45,45,2009,1158,-2.44
"{'cat': 'II', 'resp': 'reach'}",12,301,Left,27.877618049439562,50.21564489549727,1.393880902471978,0.7887855054948402,Left,Correct,0.0,0.0,-45,45,2005,675,-2.53
"{'cat': 'II', 'resp': 'reach'}",12,302,Left,30.925628918326197,45.59058157026862,1.54628144591631,0.7161351806702105,Left,Correct,0.0,0.0,-45,45,2017,696,-2.47
"{'cat': 'II', 'resp': 'reach'}",12,303,Left,59.80748153671109,82.94699319019963,2.9903740768355545,1.3029283222184689,Right,Incorrect,0.0,0.0,-45,45,2004,1196,-0.55
"{'cat': 'II', 'resp': 'reach'}",12,304,Left,56.06145182775266,85.05430366475531,2.803072591387633,1.3360298777469533,Right,Incorrect,0.0,0.0,-45,45,2013,546,2.69
"{'cat': 'II', 'resp': 'reach'}",12,305,Left,35.340900073854584,55.30037044987586,1.7670450036927292,0.8686561877306204,Left,Correct,0.0,0.0,-45,45,2008,954,-2.49
"{'cat': 'II', 'resp': 'reach'}",12,306,Right,74.3272402371495,60.06439343105657,3.716362011857475,0.9434892857266718,Right,Correct,0.0,0.0,-45,45,2009,1125,-0.64
"{'cat': 'II', 'resp': 'reach'}",12,307,Right,42.09862825058618,29.1686447909399,2.104931412529309,0.4581800009519349,Right,Correct,0.0,0.0,-45,45,2008,1883,-0.63
"{'cat': 'II', 'resp': 'reach'}",12,308,Right,48.02976786750684,17.383860180490732,2.401488393375342,0.2730650371703091,Right,Correct,0.0,0.0,-45,45,2009,1004,-0.62
"{'cat': 'II', 'resp': 'reach'}",12,309,Right,31.685610419043012,18.60384187677808,1.5842805209521507,0.2922284648431609,Left,Incorrect,0.0,0.0,-45,45,2005,1229,-2.43
"{'cat': 'II', 'resp': 'reach'}",12,310,Right,45.45549976936675,29.588215176744704,2.2727749884683375,0.46477059716047586,Right,Correct,0.0,0.0,-45,45,2008,1016,-0.58
"{'cat': 'II', 'resp': 'reach'}",12,311,Left,38.311947035231405,70.59013427431417,1.9155973517615703,1.1088272362605123,Right,Incorrect,0.0,0.0,-45,45,2004,1563,-0.58
"{'cat': 'II', 'resp': 'reach'}",12,312,Left,58.670317445999956,69.15325401999563,2.933515872299998,1.0862567740052356,Left,Correct,0.0,0.0,-45,45,2009,741,-2.42
"{'cat': 'II', 'resp': 'reach'}",12,313,Left,49.61185211910932,57.30311487427243,2.4805926059554664,0.9001152235841313,Right,Incorrect,0.0,0.0,-45,45,2004,950,-0.31
"{'cat': 'II', 'resp': 'reach'}",12,314,Left,36.09174462813318,44.17763290020535,1.8045872314066589,0.6939406348613595,Left,Correct,0.0,0.0,-45,45,2004,1267,-2.0
"{'cat': 'II', 'resp': 'reach'}",12,315,Left,68.80429682281753,87.34449532347814,3.440214841140877,1.3720041241987349,Right,Incorrect,0.0,0.0,-45,45,2004,575,-0.22
"{'cat': 'II', 'resp': 'reach'}",12,316,Left,28.98384216364,55.551371726585664,1.4491921081819998,0.8725989065653863,Left,Correct,0.0,0.0,-45,45,2009,895,-2.14
"{'cat': 'II', 'resp': 'reach'}",12,317,Left,15.407510186104684,39.54811248665597,0.7703755093052342,0.6212202982571059,Right,Incorrect,0.0,0.0,-45,45,2009,796,-0.22
"{'cat': 'II', 'resp': 'reach'}",12,318,Left,41.62863196690643,66.9871914389816,2.0814315983453215,1.0522323425465883,Right,Incorrect,0.0,0.0,-45,45,2017,1087,-0.36
"{'cat': 'II', 'resp': 'reach'}",12,319,Right,47.267511826818456,28.333881220421247,2.363375591340923,0.44506756544880594,Left,Incorrect,0.0,0.0,-45,45,2004,779,-2.15
"{'cat': 'II', 'resp': 'reach'}",12,320,Left,53.383492034390386,67.25014591853027,2.669174601719519,1.0563628218524814,Left,Correct,0.0,0.0,-45,45,2005,1541,-2.11
"{'cat': 'II', 'resp': 'reach'}",12,321,Right,68.64625642252082,41.15588942940368,3.432312821126041,0.6464751994168421,Right,Correct,0.0,0.0,-45,45,2008,1125,-0.61
"{'cat': 'II', 'resp': 'reach'}",12,322,Right,58.52341920364279,50.22568011615273,2.9261709601821395,0.7889431383722819,Right,Correct,0.0,0.0,-45,45,2004,958,-0.3
"{'cat': 'II', 'resp': 'reach'}",12,323,Left,55.577888663357996,68.59488306309098,2.7788944331679,1.0774859035242876,Left,Correct,0.0,0.0,-45,45,2012,1400,-2.12
"{'cat': 'II', 'resp': 'reach'}",12,324,Right,57.54292825990994,26.617462701399404,2.877146412995497,0.4181061263995834,Right,Correct,0.0,0.0,-45,45,2004,1117,-0.5
"{'cat': 'II', 'resp': 'reach'}",12,325,Left,29.9679370309884,57.87691586686226,1.49839685154942,0.9091284684988452,Left,Correct,0.0,0.0,-45,45,2004,1371,-2.04
"{'cat': 'II', 'resp': 'reach'}",12,326,Right,42.8037859565156,34.145507666409316,2.1401892978257795,0.5363563801894273,Left,Incorrect,0.0,0.0,-45,45,2017,1088,-1.8
"{'cat': 'II', 'resp': 'reach'}",12,327,Left,34.48107932190498,59.73358697738003,1.724053966095249,0.9382929901035201,Right,Incorrect,0.0,0.0,-45,45,2013,2308,-0.5
"{'cat': 'II', 'resp': 'reach'}",12,328,Left,24.40516987540951,49.48278809086746,1.2202584937704755,0.7772738177270486,Left,Correct,0.0,0.0,-45,45,2008,946,-2.19
"{'cat': 'II', 'resp': 'reach'}",12,329,Right,68.76681953117439,42.220509411413005,3.43834097655872,0.663198210988569,Right,Correct,0.0,0.0,-45,45,2004,725,-0.28
"{'cat': 'II', 'resp': 'reach'}",12,330,Left,49.28976174654895,75.39711548629035,2.4644880873274473,1.184335120567955,Left,Correct,0.0,0.0,-45,45,2004,1650,-2.34
"{'cat': 'II', 'resp': 'reach'}",12,331,Right,59.031682350400715,45.55330030514989,2.951584117520036,0.7155495679271429,Right,Correct,0.0,0.0,-45,45,2004,896,-0.36
"{'cat': 'II', 'resp': 'reach'}",12,332,Right,66.74701994618191,44.724096809430144,3.3373509973090956,0.7025244698747222,Right,Correct,0.0,0.0,-45,45,2004,834,-0.4
"{'cat': 'II', 'resp': 'reach'}",12,333,Right,84.07902595578977,64.47266602445607,4.203951297789489,1.0127342696988972,Left,Incorrect,0.0,0.0,-45,45,2016,2238,-1.96
"{'cat': 'II', 'resp': 'reach'}",12,334,Right,84.20166041779821,57.37843196045495,4.21008302088991,0.9012983016073353,Right,Correct,0.0,0.0,-45,45,2004,746,-0.22
"{'cat': 'II', 'resp': 'reach'}",12,335,Right,39.296615368401234,22.236568160676644,1.9648307684200617,0.34929119587315227,Left,Incorrect,0.0,0.0,-45,45,2004,883,-2.02
"{'cat': 'II', 'resp': 'reach'}",12,336,Right,38.95338681501636,17.003636161471345,1.9476693407508179,0.2670924922459606,Right,Correct,0.0,0.0,-45,45,2004,2379,-0.93
"{'cat': 'II', 'resp': 'reach'}",12,337,Left,43.493689111368326,55.57161145175266,2.1746844555684164,0.8729168314248628,Left,Correct,0.0,0.0,-45,45,2004,1242,-2.0
"{'cat': 'II', 'resp': 'reach'}",12,338,Right,45.529895285779475,18.053588465541825,2.276494764288974,0.2835851044713982,Left,Incorrect,0.0,0.0,-45,45,2004,1237,-2.11
"{'cat': 'II', 'resp': 'reach'}",12,339,Right,41.76251629498964,29.666805282004717,2.088125814749482,0.46600508764712445,Left,Incorrect,0.0,0.0,-45,45,2004,1975,-1.75
"{'cat': 'II', 'resp': 'reach'}",12,340,Left,23.323744374752504,43.36712464793692,1.1661872187376252,0.6812092010063574,Left,Correct,0.0,0.0,-45,45,2016,1038,-2.25
"{'cat': 'II', 'resp': 'reach'}",12,341,Right,38.794740171482665,12.12019913028356,1.9397370085741332,0.19038364273872116,Right,Correct,0.0,0.0,-45,45,2008,1400,-0.37
"{'cat': 'II', 'resp': 'reach'}",12,342,Right,80.09516433211479,65.62055369715385,4.004758216605739,1.0307652470973654,Right,Correct,0.0,0.0,-45,45,2012,1363,-0.4
"{'cat': 'II', 'resp': 'reach'}",12,343,Left,47.3436382272755,57.044278167841476,2.367181911363775,0.896049426107117,Left,Correct,0.0,0.0,-45,45,2004,1020,-2.02
"{'cat': 'II', 'resp': 'reach'}",12,344,Left,48.10765173818116,66.87456768592048,2.405382586909058,1.0504632527704059,Left,Correct,0.0,0.0,-45,45,2004,2608,-2.1
"{'cat': 'II', 'resp': 'reach'}",12,345,Left,27.751307099395873,57.16846214669438,1.3875653549697937,0.8980001034854062,Right,Incorrect,0.0,0.0,-45,45,2012,1888,-0.57
"{'cat': 'II', 'resp': 'reach'}",12,346,Right,60.436612649305374,43.866876945768354,3.021830632465269,0.6890592917437666,Right,Correct,0.0,0.0,-45,45,2004,967,-0.35
"{'cat': 'II', 'resp': 'reach'}",12,347,Left,53.09896500887727,82.08699892170743,2.6549482504438635,1.2894195638383468,Left,Correct,0.0,0.0,-45,45,2004,1038,-2.07
"{'cat': 'II', 'resp': 'reach'}",12,348,Right,60.743174599476006,34.62995094095955,3.0371587299738003,0.5439659973514673,Right,Correct,0.0,0.0,-45,45,2004,783,-0.5
"{'cat': 'II', 'resp': 'reach'}",12,349,Left,32.828645567309664,64.35101891220637,1.641432278365483,1.010823441328027,Left,Correct,0.0,0.0,-45,45,2008,954,-2.05
"{'cat': 'II', 'resp': 'reach'}",12,350,Left,37.087539278548334,49.446922733568385,1.8543769639274166,0.7767104460120028,Right,Incorrect,0.0,0.0,-45,45,2004,1388,-0.41
"{'cat': 'II', 'resp': 'reach'}",12,351,Right,42.18967545668276,18.18429977506306,2.1094837728341376,0.2856383129200632,Left,Incorrect,0.0,0.0,-45,45,2004,746,-2.16
"{'cat': 'II', 'resp': 'reach'}",12,352,Right,66.4518725865974,51.96093744411398,3.3225936293298703,0.8162004967403363,Right,Correct,0.0,0.0,-45,45,2004,987,-0.39
"{'cat': 'II', 'resp': 'reach'}",12,353,Left,14.050757782798648,32.28532411084259,0.7025378891399324,0.5071366852269424,Left,Correct,0.0,0.0,-45,45,2008,1421,-2.03
"{'cat': 'II', 'resp': 'reach'}",12,354,Left,34.2424084333809,56.41070627128524,1.7121204216690449,0.8860973020284069,Right,Incorrect,0.0,0.0,-45,45,2013,4704,-0.45
"{'cat': 'II', 'resp': 'reach'}",12,355,Right,53.996590438551806,41.3979473078881,2.6998295219275907,0.650277435680793,Left,Incorrect,0.0,0.0,-45,45,2004,1575,-1.86
"{'cat': 'II', 'resp': 'reach'}",12,356,Left,56.18424934432868,78.26803719524965,2.809212467216434,1.2294314533174449,Left,Correct,0.0,0.0,-45,45,2013,1241,-2.08
"{'cat': 'II', 'resp': 'reach'}",12,357,Right,76.72634249655223,45.97266266626883,3.8363171248276116,0.7221368964915597,Right,Correct,0.0,0.0,-45,45,2008,775,-0.4
"{'cat': 'II', 'resp': 'reach'}",12,358,Left,56.62805595263585,85.2552429080727,2.8314027976317924,1.3391862240000725,Left,Correct,0.0,0.0,-45,45,2004,1400,-2.1
"{'cat': 'II', 'resp': 'reach'}",12,359,Left,23.18972125847875,48.62098746763682,1.1594860629239376,0.7637366851930462,Left,Correct,0.0,0.0,-45,45,2008,1296,-2.12
"{'cat': 'II', 'resp': 'reach'}",12,360,Left,32.53322116233315,60.01174841405486,1.6266610581166574,0.9426623397333682,Left,Correct,0.0,0.0,-45,45,2017,1500,-1.85
"{'cat': 'II', 'resp': 'reach'}",12,361,Right,47.53951464412228,26.927493858498366,2.376975732206114,0.4229760844272137,Right,Correct,0.0,0.0,-45,45,2004,950,-0.51
"{'cat': 'II', 'resp': 'reach'}",12,362,Right,44.1787065790852,32.622186602292295,2.20893532895426,0.5124281088689843,Left,Incorrect,0.0,0.0,-45,45,2005,2095,-2.03
"{'cat': 'II', 'resp': 'reach'}",12,363,Left,33.0186038616627,47.42601349199444,1.650930193083135,0.7449660778775006,Left,Correct,0.0,0.0,-45,45,2008,1088,-1.97
"{'cat': 'II', 'resp': 'reach'}",12,364,Right,59.87050320788997,47.11311852498135,2.993525160394498,0.740051135228933,Right,Correct,0.0,0.0,-45,45,2004,1541,-0.25
"{'cat': 'II', 'resp': 'reach'}",12,365,Right,67.08012704751404,45.2722304165302,3.354006352375702,0.7111345324409782,Right,Correct,0.0,0.0,-45,45,2012,1263,-0.35
"{'cat': 'II', 'resp': 'reach'}",12,366,Right,38.707689451889806,13.699115700950642,1.9353844725944902,0.21518520623391563,Left,Incorrect,0.0,0.0,-45,45,2017,875,-2.0
"{'cat': 'II', 'resp': 'reach'}",12,367,Right,71.16084991798738,39.30327741217925,3.558042495899369,0.6173744379005199,Right,Correct,0.0,0.0,-45,45,2004,725,-0.28
"{'cat': 'II', 'resp': 'reach'}",12,368,Left,39.2638814806808,62.45706744554651,1.96319407403404,0.9810733212584556,Left,Correct,0.0,0.0,-45,45,2004,1008,-2.11
"{'cat': 'II', 'resp': 'reach'}",12,369,Right,60.03178707377056,36.76930171227102,3.001589353688528,0.5775708406844863,Right,Correct,0.0,0.0,-45,45,2008,846,-0.41
"{'cat': 'II', 'resp': 'reach'}",12,370,Right,39.39088116307799,11.988984435791814,1.9695440581538997,0.18832252713742964,Left,Incorrect,0.0,0.0,-45,45,2017,1258,-2.11
"{'cat': 'II', 'resp': 'reach'}",12,371,Left,65.69001986137292,85.7140776598348,3.2845009930686455,1.3463935834268101,Left,Correct,0.0,0.0,-45,45,2008,1662,-2.16
"{'cat': 'II', 'resp': 'reach'}",12,372,Left,46.03992395547716,61.913499481066616,2.3019961977738577,0.9725349756387718,Right,Incorrect,0.0,0.0,-45,45,2004,2300,-0.32
"{'cat': 'II', 'resp': 'reach'}",12,373,Left,34.74985289960521,62.345446267489386,1.7374926449802603,0.9793199798936093,Left,Correct,0.0,0.0,-45,45,2004,1421,-2.01
"{'cat': 'II', 'resp': 'reach'}",12,374,Left,29.147081541130834,55.575320753852694,1.4573540770565419,0.872975097006,Left,Correct,0.0,0.0,-45,45,2016,946,-2.13
"{'cat': 'II', 'resp': 'reach'}",12,375,Right,34.93285390227577,11.592792134158202,1.7466426951137886,0.18209915301632473,Right,Correct,0.0,0.0,-45,45,2016,1713,-0.4
"{'cat': 'II', 'resp': 'reach'}",12,376,Right,64.8230974507443,56.701949304547725,3.241154872537215,0.8906721368969401,Right,Correct,0.0,0.0,-45,45,2009,1258,-0.41
"{'cat': 'II', 'resp': 'reach'}",12,377,Left,30.641626327203753,51.1021189266849,1.5320813163601879,0.8027102070147261,Left,Correct,0.0,0.0,-45,45,2004,1059,-2.01
"{'cat': 'II', 'resp': 'reach'}",12,378,Right,68.22956925134105,35.22919728131245,3.4114784625670524,0.5533789368541836,Right,Correct,0.0,0.0,-45,45,2013,937,-0.48
"{'cat': 'II', 'resp': 'reach'}",12,379,Left,35.41184050617902,46.6871589568818,1.770592025308951,0.7333601779795939,Left,Correct,0.0,0.0,-45,45,2004,1246,-2.08
"{'cat': 'II', 'resp': 'reach'}",12,380,Right,74.79053677696156,62.63153173801061,3.7395268388480782,0.9838137999560503,Right,Correct,0.0,0.0,-45,45,2008,1188,-0.33
"{'cat': 'II', 'resp': 'reach'}",12,381,Left,33.749312995352405,49.58596197649485,1.6874656497676201,0.7788944693326952,Left,Correct,0.0,0.0,-45,45,2013,1816,-2.17
"{'cat': 'II', 'resp': 'reach'}",12,382,Right,85.28785482251035,64.09097084091601,4.264392741125517,1.006738615776297,Left,Incorrect,0.0,0.0,-45,45,2017,2162,-2.26
"{'cat': 'II', 'resp': 'reach'}",12,383,Right,85.29672439237542,58.990247167515065,4.264836219618771,0.9266166356745572,Right,Correct,0.0,0.0,-45,45,2008,1500,-0.06
"{'cat': 'II', 'resp': 'reach'}",12,384,Right,40.26654862623985,30.133324827516113,2.0133274313119927,0.4733331595317977,Left,Incorrect,0.0,0.0,-45,45,2005,3062,-2.03
"{'cat': 'II', 'resp': 'reach'}",12,385,Left,46.036114100479914,60.605801906766295,2.301805705023996,0.9519937101760764,Right,Incorrect,0.0,0.0,-45,45,2005,1579,-0.53
"{'cat': 'II', 'resp': 'reach'}",12,386,Left,50.355274688234914,66.26721284438659,2.5177637344117456,1.0409229452289803,Left,Correct,0.0,0.0,-45,45,2016,996,-1.69
"{'cat': 'II', 'resp': 'reach'}",12,387,Right,62.19433728920926,35.53381298985697,3.109716864460463,0.5581638292148411,Right,Correct,0.0,0.0,-45,45,2004,1029,-0.15
"{'cat': 'II', 'resp': 'reach'}",12,388,Right,79.72605318631526,55.03918642352001,3.9863026593157627,0.8645535186384476,Right,Correct,0.0,0.0,-45,45,2008,2004,-0.25
"{'cat': 'II', 'resp': 'reach'}",12,389,Right,37.320248371562016,21.936165309950358,1.8660124185781006,0.3445724789283566,Left,Incorrect,0.0,0.0,-45,45,2004,2146,-1.92
"{'cat': 'II', 'resp': 'reach'}",12,390,Right,62.815397457539646,41.438166714039525,3.140769872876982,0.6509092006352784,Right,Correct,0.0,0.0,-45,45,2004,1542,-0.27
"{'cat': 'II', 'resp': 'reach'}",12,391,Right,43.02417643515378,18.886147640040345,2.151208821757689,0.29666291340281487,Right,Correct,0.0,0.0,-45,45,2004,1683,-0.41
"{'cat': 'II', 'resp': 'reach'}",12,392,Left,52.69692181065142,61.64656507139598,2.634846090532571,0.9683419797367137,Right,Incorrect,0.0,0.0,-45,45,2004,2300,-0.14
"{'cat': 'II', 'resp': 'reach'}",12,393,Left,29.397865374841686,40.08297215493646,1.4698932687420843,0.6296218542799631,Left,Correct,0.0,0.0,-45,45,2017,1650,-1.91
"{'cat': 'II', 'resp': 'reach'}",12,394,Right,66.30249230580633,52.49392793436155,3.315124615290316,0.8245726917833115,Right,Correct,0.0,0.0,-45,45,2005,937,-0.11
"{'cat': 'II', 'resp': 'reach'}",12,395,Left,33.35503445133486,43.62418431252328,1.6677517225667429,0.6852470847753511,Left,Correct,0.0,0.0,-45,45,2008,2700,-1.84
"{'cat': 'II', 'resp': 'reach'}",12,396,Right,87.90714462337581,69.83343688019465,4.3953572311687905,1.0969410613887303,Right,Correct,0.0,0.0,-45,45,2004,824,-0.25
"{'cat': 'II', 'resp': 'reach'}",12,397,Right,70.39905778157748,54.626778629850264,3.519952889078874,0.8580754321640675,Right,Correct,0.0,0.0,-45,45,2013,846,-0.4
"{'cat': 'II', 'resp': 'reach'}",12,398,Right,45.82201744544974,34.69216758740485,2.291100872272487,0.5449432941484851,Right,Correct,0.0,0.0,-45,45,2004,2113,-0.91
"{'cat': 'II', 'resp': 'reach'}",12,399,Right,83.89959096071311,64.56782000926468,4.194979548035656,1.0142289449970698,Right,Correct,0.0,0.0,-45,45,2004,1096,-0.06
