condition,subject,trial,cat,x,y,xt,yt,resp,fb,rotation,su,target_angle_left,target_angle_right,rt,mt,ep
"{'cat': 'II', 'resp': 'reach'}",4,0,Right,47.42767965755044,19.902962075824416,2.3713839828775223,0.3126349972104312,Right,Correct,0.0,0.0,-45,45,2011,1922,-0.81
"{'cat': 'II', 'resp': 'reach'}",4,1,Left,53.80488952700134,77.80459399099185,2.6902444763500672,1.2221517044881827,Left,Correct,0.0,0.0,-45,45,2008,2827,-2.56
"{'cat': 'II', 'resp': 'reach'}",4,2,Left,60.17269552028313,72.09550794630566,3.0086347760141563,1.1324735906046919,Right,Incorrect,0.0,0.0,-45,45,2009,1476,-0.88
"{'cat': 'II', 'resp': 'reach'}",4,3,Right,58.274124398940884,26.613436933670798,2.9137062199470445,0.41804288978797716,Left,Incorrect,0.0,0.0,-45,45,2005,1298,-2.57
"{'cat': 'II', 'resp': 'reach'}",4,4,Right,43.470508659406846,21.41965996855821,2.1735254329703424,0.33645923199806926,Right,Correct,0.0,0.0,-45,45,2007,1476,-0.87
"{'cat': 'II', 'resp': 'reach'}",4,5,Right,64.08843697837911,54.57801038441225,3.204421848918955,0.8573093823560849,Right,Correct,0.0,0.0,-45,45,2001,1061,-0.89
"{'cat': 'II', 'resp': 'reach'}",4,6,Left,33.80834080726212,56.325878806527406,1.6904170403631058,0.8847648353278775,Right,Incorrect,0.0,0.0,-45,45,2005,1123,-0.87
"{'cat': 'II', 'resp': 'reach'}",4,7,Left,15.386434294031073,36.31847494672604,0.7693217147015536,0.5704892704110974,Left,Correct,0.0,0.0,-45,45,2005,1170,-2.62
"{'cat': 'II', 'resp': 'reach'}",4,8,Left,68.12406774581243,85.97960234197615,3.4062033872906214,1.35056443538062,Left,Correct,0.0,0.0,-45,45,2002,1400,-2.56
"{'cat': 'II', 'resp': 'reach'}",4,9,Left,64.81087466359537,84.38220082457251,3.2405437331797686,1.3254725110210779,Right,Incorrect,0.0,0.0,-45,45,2002,850,-0.79
"{'cat': 'II', 'resp': 'reach'}",4,10,Left,30.841377929913797,44.3566432223989,1.5420688964956897,0.6967525224269594,Left,Correct,0.0,0.0,-45,45,2006,827,-2.61
"{'cat': 'II', 'resp': 'reach'}",4,11,Right,46.173821303913776,38.17673538028851,2.308691065195689,0.5996787570437797,Right,Correct,0.0,0.0,-45,45,2009,533,-0.88
"{'cat': 'II', 'resp': 'reach'}",4,12,Left,25.436519687669247,45.325647392208246,1.2718259843834623,0.711973604332814,Left,Correct,0.0,0.0,-45,45,2010,634,-2.61
"{'cat': 'II', 'resp': 'reach'}",4,13,Right,36.44292427381658,13.453884227282416,1.8221462136908289,0.21133311925339016,Left,Incorrect,0.0,0.0,-45,45,2008,607,-2.61
"{'cat': 'II', 'resp': 'reach'}",4,14,Right,49.79390815887179,30.4168958829693,2.4896954079435893,0.4777874832547099,Right,Correct,0.0,0.0,-45,45,2006,720,-0.79
"{'cat': 'II', 'resp': 'reach'}",4,15,Left,28.364645193756235,60.533027403744576,1.4182322596878116,0.9508505709557679,Right,Incorrect,0.0,0.0,-45,45,2006,724,-0.84
"{'cat': 'II', 'resp': 'reach'}",4,16,Left,21.45432984301159,48.615344518102624,1.0727164921505794,0.76364804594904,Left,Correct,0.0,0.0,-45,45,2003,665,-2.6
"{'cat': 'II', 'resp': 'reach'}",4,17,Right,64.74909371946616,36.017194941611365,3.237454685973308,0.5657567751573886,Right,Correct,0.0,0.0,-45,45,2006,784,-0.93
"{'cat': 'II', 'resp': 'reach'}",4,18,Left,67.70210620511564,87.41277184930206,3.3851053102557818,1.3730766093584401,Right,Incorrect,0.0,0.0,-45,45,2005,806,-0.89
"{'cat': 'II', 'resp': 'reach'}",4,19,Right,59.423802003381596,45.200421977087764,2.9711901001690797,0.7100065681118878,Right,Correct,0.0,0.0,-45,45,2008,758,-0.9
"{'cat': 'II', 'resp': 'reach'}",4,20,Left,52.65768740997918,65.13096001365021,2.632884370498959,1.0230747275006704,Right,Incorrect,0.0,0.0,-45,45,2007,702,-0.82
"{'cat': 'II', 'resp': 'reach'}",4,21,Left,18.83665301348022,37.84956435763331,0.9418326506740109,0.5945395666375746,Left,Correct,0.0,0.0,-45,45,2005,664,-2.51
"{'cat': 'II', 'resp': 'reach'}",4,22,Right,35.874692549801125,10.518745171935503,1.7937346274900563,0.16522806278567842,Left,Incorrect,0.0,0.0,-45,45,2008,704,-2.65
"{'cat': 'II', 'resp': 'reach'}",4,23,Left,34.06677123212874,52.070124636868215,1.7033385616064367,0.8179156051534504,Right,Incorrect,0.0,0.0,-45,45,2004,685,-0.82
"{'cat': 'II', 'resp': 'reach'}",4,24,Right,49.487496123385434,37.00693028963697,2.4743748061692714,0.5813035016491654,Right,Correct,0.0,0.0,-45,45,2008,730,-0.85
"{'cat': 'II', 'resp': 'reach'}",4,25,Right,41.66595480687814,27.31388027775438,2.083297740343907,0.4290454281081215,Left,Incorrect,0.0,0.0,-45,45,2007,738,-2.63
"{'cat': 'II', 'resp': 'reach'}",4,26,Right,66.63745254598962,44.543281202245055,3.331872627299481,0.6996842249587869,Right,Correct,0.0,0.0,-45,45,2007,634,-0.97
"{'cat': 'II', 'resp': 'reach'}",4,27,Right,80.70318785780694,57.66956563385248,4.035159392890347,0.9058714186551269,Right,Correct,0.0,0.0,-45,45,2012,605,-0.92
"{'cat': 'II', 'resp': 'reach'}",4,28,Left,42.807007836524974,62.18715611037305,2.1403503918262485,0.9768335639199479,Right,Incorrect,0.0,0.0,-45,45,2008,639,-0.98
"{'cat': 'II', 'resp': 'reach'}",4,29,Right,76.3313995854984,48.343689034812996,3.81656997927492,0.7593808915959898,Right,Correct,0.0,0.0,-45,45,2009,1010,-0.89
"{'cat': 'II', 'resp': 'reach'}",4,30,Right,55.67348086816705,31.968068402635826,2.7836740434083524,0.5021532442158835,Right,Correct,0.0,0.0,-45,45,2009,701,-0.88
"{'cat': 'II', 'resp': 'reach'}",4,31,Right,61.45034010094648,36.56736862583587,3.0725170050473243,0.5743988831801793,Left,Incorrect,0.0,0.0,-45,45,2003,654,-2.65
"{'cat': 'II', 'resp': 'reach'}",4,32,Left,41.68738155198534,73.68656127163983,2.084369077599267,1.1574657977963891,Right,Incorrect,0.0,0.0,-45,45,2003,726,-0.94
"{'cat': 'II', 'resp': 'reach'}",4,33,Left,37.575264941475645,57.27502896134571,1.878763247073782,0.8996740510955317,Left,Correct,0.0,0.0,-45,45,2008,1078,-2.59
"{'cat': 'II', 'resp': 'reach'}",4,34,Left,36.15238032668905,54.21976230182186,1.8076190163344523,0.851682034633942,Left,Correct,0.0,0.0,-45,45,2006,666,-2.54
"{'cat': 'II', 'resp': 'reach'}",4,35,Right,67.99556905675706,38.47093349132132,3.399778452837853,0.6043000101653829,Left,Incorrect,0.0,0.0,-45,45,2013,658,-2.52
"{'cat': 'II', 'resp': 'reach'}",4,36,Right,62.83922960084189,42.402540645404976,3.1419614800420947,0.6660575509257344,Right,Correct,0.0,0.0,-45,45,2003,642,-0.88
"{'cat': 'II', 'resp': 'reach'}",4,37,Right,54.89821568512956,30.63914943512556,2.744910784256478,0.4812786338881517,Right,Correct,0.0,0.0,-45,45,2005,680,-0.86
"{'cat': 'II', 'resp': 'reach'}",4,38,Left,26.049415654545605,38.19860083301039,1.3024707827272803,0.600022218771972,Right,Incorrect,0.0,0.0,-45,45,2003,720,-0.9
"{'cat': 'II', 'resp': 'reach'}",4,39,Left,58.34290639201333,66.73679123152662,2.9171453196006665,1.0482990652855988,Right,Incorrect,0.0,0.0,-45,45,2003,726,-0.92
"{'cat': 'II', 'resp': 'reach'}",4,40,Left,38.81805965653848,50.42028001273064,1.940902982826924,0.7919999063996744,Left,Correct,0.0,0.0,-45,45,2008,763,-2.66
"{'cat': 'II', 'resp': 'reach'}",4,41,Left,49.770282124970564,62.34258404089664,2.488514106248528,0.9792750201434258,Left,Correct,0.0,0.0,-45,45,2001,577,-2.46
"{'cat': 'II', 'resp': 'reach'}",4,42,Right,35.45182509349786,19.40000543738625,1.772591254674893,0.3047345728084734,Left,Incorrect,0.0,0.0,-45,45,2003,637,-2.49
"{'cat': 'II', 'resp': 'reach'}",4,43,Right,44.296982016579264,20.54894273327811,2.214849100828963,0.3227820376495194,Right,Correct,0.0,0.0,-45,45,2008,622,-0.82
"{'cat': 'II', 'resp': 'reach'}",4,44,Right,51.384515656649,34.161256795337536,2.56922578283245,0.536603766928134,Right,Correct,0.0,0.0,-45,45,2004,741,-0.89
"{'cat': 'II', 'resp': 'reach'}",4,45,Right,44.98179029529797,16.879944951486337,2.2490895147648984,0.265149555262948,Right,Correct,0.0,0.0,-45,45,2009,674,-0.97
"{'cat': 'II', 'resp': 'reach'}",4,46,Left,44.346659187335995,72.68969427720934,2.2173329593667996,1.1418070476648445,Right,Incorrect,0.0,0.0,-45,45,2002,572,-0.92
"{'cat': 'II', 'resp': 'reach'}",4,47,Left,46.77664177374015,57.603847251101534,2.3388320886870075,0.9048391167128459,Left,Correct,0.0,0.0,-45,45,2006,700,-2.65
"{'cat': 'II', 'resp': 'reach'}",4,48,Left,40.5936007613323,70.90281616710512,2.029680038066615,1.1137388319470252,Left,Correct,0.0,0.0,-45,45,2007,666,-2.53
"{'cat': 'II', 'resp': 'reach'}",4,49,Left,31.341654717375892,52.737433435781085,1.5670827358687947,0.8283976672551531,Left,Correct,0.0,0.0,-45,45,2001,668,-2.47
"{'cat': 'II', 'resp': 'reach'}",4,50,Left,52.69221061615686,72.49954182749651,2.6346105308078434,1.1388201399694449,Left,Correct,0.0,0.0,-45,45,2001,630,-2.48
"{'cat': 'II', 'resp': 'reach'}",4,51,Right,40.17759786082402,19.237104280156405,2.0088798930412013,0.3021757274144006,Right,Correct,0.0,0.0,-45,45,2009,759,-0.86
"{'cat': 'II', 'resp': 'reach'}",4,52,Right,43.47195460725328,28.57325043719098,2.173597730362664,0.4488275683133026,Right,Correct,0.0,0.0,-45,45,2009,598,-0.79
"{'cat': 'II', 'resp': 'reach'}",4,53,Right,72.20410675796273,49.00378909682451,3.6102053378981367,0.7697497191232374,Right,Correct,0.0,0.0,-45,45,2006,587,-0.8
"{'cat': 'II', 'resp': 'reach'}",4,54,Left,31.87624013772116,56.380183477189505,1.5938120068860582,0.8856178510999159,Right,Incorrect,0.0,0.0,-45,45,2003,672,-0.86
"{'cat': 'II', 'resp': 'reach'}",4,55,Right,45.92145550581846,31.27596028396885,2.296072775290923,0.49128163531041336,Left,Incorrect,0.0,0.0,-45,45,2012,556,-2.45
"{'cat': 'II', 'resp': 'reach'}",4,56,Left,28.79746222558957,52.886070901479755,1.4398731112794787,0.8307324591065887,Right,Incorrect,0.0,0.0,-45,45,2009,546,-0.84
"{'cat': 'II', 'resp': 'reach'}",4,57,Right,74.47506781314202,53.20087108612361,3.7237533906571008,0.835677328843718,Left,Incorrect,0.0,0.0,-45,45,2012,657,-2.45
"{'cat': 'II', 'resp': 'reach'}",4,58,Left,51.43574652337129,79.10340875889956,2.5717873261685646,1.242553439154347,Right,Incorrect,0.0,0.0,-45,45,2013,607,-0.8
"{'cat': 'II', 'resp': 'reach'}",4,59,Left,51.46659477097457,67.26850589933227,2.573329738548728,1.0566512197565194,Right,Incorrect,0.0,0.0,-45,45,2009,637,-0.81
"{'cat': 'II', 'resp': 'reach'}",4,60,Right,58.41492183906935,36.03256140186401,2.9207460919534673,0.5659981509505957,Left,Incorrect,0.0,0.0,-45,45,2005,788,-2.55
"{'cat': 'II', 'resp': 'reach'}",4,61,Left,36.84931085872635,46.44494845844629,1.8424655429363173,0.7295555443670572,Right,Incorrect,0.0,0.0,-45,45,2001,619,-0.86
"{'cat': 'II', 'resp': 'reach'}",4,62,Left,49.647099890813436,70.4830318276818,2.4823549945406715,1.1071448749629036,Right,Incorrect,0.0,0.0,-45,45,2007,1196,-0.92
"{'cat': 'II', 'resp': 'reach'}",4,63,Left,64.15647887406666,75.66517214444389,3.2078239437033336,1.1885457447079597,Right,Incorrect,0.0,0.0,-45,45,2001,690,-0.84
"{'cat': 'II', 'resp': 'reach'}",4,64,Right,41.44782070104903,25.97187590614464,2.0723910350524517,0.40796527273344874,Right,Correct,0.0,0.0,-45,45,2010,685,-0.83
"{'cat': 'II', 'resp': 'reach'}",4,65,Right,63.797717359091955,38.30357404195615,3.1898858679545974,0.6016711340822107,Left,Incorrect,0.0,0.0,-45,45,2005,581,-2.45
"{'cat': 'II', 'resp': 'reach'}",4,66,Right,66.56387131795543,38.98969593908879,3.3281935658977715,0.6124487116397057,Right,Correct,0.0,0.0,-45,45,2003,652,-0.83
"{'cat': 'II', 'resp': 'reach'}",4,67,Left,55.83364871287945,75.12184428862436,2.7916824356439722,1.180011170706293,Right,Incorrect,0.0,0.0,-45,45,2003,556,-0.87
"{'cat': 'II', 'resp': 'reach'}",4,68,Right,55.211650191612826,40.378112582307104,2.7605825095806416,0.634257909271988,Right,Correct,0.0,0.0,-45,45,2001,568,-0.81
"{'cat': 'II', 'resp': 'reach'}",4,69,Left,27.118781579368935,53.791714346198816,1.355939078968447,0.8449582730700944,Right,Incorrect,0.0,0.0,-45,45,2008,576,-0.87
"{'cat': 'II', 'resp': 'reach'}",4,70,Left,26.705320687949225,38.96423755079332,1.3352660343974612,0.6120488122114993,Left,Correct,0.0,0.0,-45,45,2004,600,-2.44
"{'cat': 'II', 'resp': 'reach'}",4,71,Right,53.7825107215093,43.12649747753538,2.689125536075465,0.6774294382524194,Left,Incorrect,0.0,0.0,-45,45,2001,577,-2.41
"{'cat': 'II', 'resp': 'reach'}",4,72,Left,34.91301272365529,50.41997821526248,1.7456506361827646,0.7919951657761303,Right,Incorrect,0.0,0.0,-45,45,2008,545,-0.79
"{'cat': 'II', 'resp': 'reach'}",4,73,Right,46.7471745829494,18.918772641872046,2.33735872914747,0.2971753857332039,Right,Correct,0.0,0.0,-45,45,2001,537,-0.87
"{'cat': 'II', 'resp': 'reach'}",4,74,Left,27.625065826966278,40.18564238583753,1.381253291348314,0.631234594495669,Right,Incorrect,0.0,0.0,-45,45,2004,549,-0.86
"{'cat': 'II', 'resp': 'reach'}",4,75,Right,47.174978090766395,39.26860670422359,2.3587489045383196,0.6168298316934786,Left,Incorrect,0.0,0.0,-45,45,2006,583,-2.46
"{'cat': 'II', 'resp': 'reach'}",4,76,Left,62.089228283086115,88.44170624102155,3.104461414154306,1.3892390729886994,Right,Incorrect,0.0,0.0,-45,45,2001,749,-0.77
"{'cat': 'II', 'resp': 'reach'}",4,77,Right,49.156937130506066,38.5911679912796,2.457846856525303,0.6061886492742677,Right,Correct,0.0,0.0,-45,45,2008,430,-0.89
"{'cat': 'II', 'resp': 'reach'}",4,78,Left,25.477726946243415,38.249877620279996,1.2738863473121709,0.6008276726629014,Right,Incorrect,0.0,0.0,-45,45,2003,637,-0.81
"{'cat': 'II', 'resp': 'reach'}",4,79,Right,36.99839291616448,18.04748784571212,1.8499196458082239,0.2834892761592014,Left,Incorrect,0.0,0.0,-45,45,2008,585,-2.5
"{'cat': 'II', 'resp': 'reach'}",4,80,Right,55.456760382043434,42.47271916483402,2.7728380191021715,0.6671599125311247,Right,Correct,0.0,0.0,-45,45,2007,582,-0.92
"{'cat': 'II', 'resp': 'reach'}",4,81,Right,56.06538089176979,46.543019277050675,2.8032690445884896,0.7310960371833526,Right,Correct,0.0,0.0,-45,45,2012,683,-0.89
"{'cat': 'II', 'resp': 'reach'}",4,82,Left,26.08354090408818,50.378226344460614,1.304177045204409,0.7913393289232064,Right,Incorrect,0.0,0.0,-45,45,2012,701,-0.88
"{'cat': 'II', 'resp': 'reach'}",4,83,Left,24.783176327983377,51.49664211054825,1.2391588163991687,0.8089073626952057,Right,Incorrect,0.0,0.0,-45,45,2005,616,-0.83
"{'cat': 'II', 'resp': 'reach'}",4,84,Right,48.36812789481146,23.23923141525952,2.418406394740573,0.3650409934462622,Left,Incorrect,0.0,0.0,-45,45,2002,855,-2.56
"{'cat': 'II', 'resp': 'reach'}",4,85,Right,76.2933258575213,62.38186230671881,3.8146662928760646,0.9798920017001892,Left,Incorrect,0.0,0.0,-45,45,2004,533,-2.44
"{'cat': 'II', 'resp': 'reach'}",4,86,Left,20.638662168411255,36.063574094649894,1.0319331084205627,0.5664852971897164,Right,Incorrect,0.0,0.0,-45,45,2001,1349,-0.77
"{'cat': 'II', 'resp': 'reach'}",4,87,Right,45.26925649157417,33.55665879383817,2.2634628245787085,0.5271067637287066,Right,Correct,0.0,0.0,-45,45,2012,576,-0.8
"{'cat': 'II', 'resp': 'reach'}",4,88,Right,36.33760285281823,24.329966467725107,1.8168801426409116,0.382174219585456,Right,Correct,0.0,0.0,-45,45,2008,515,-0.87
"{'cat': 'II', 'resp': 'reach'}",4,89,Right,56.43620195491457,39.232125499893684,2.821810097745729,0.616256786275894,Right,Correct,0.0,0.0,-45,45,2012,578,-0.82
"{'cat': 'II', 'resp': 'reach'}",4,90,Right,51.33311661986411,37.97872486611637,2.5666558309932053,0.596568415160496,Right,Correct,0.0,0.0,-45,45,2001,597,-0.81
"{'cat': 'II', 'resp': 'reach'}",4,91,Left,65.44365742552512,77.52507704178748,3.2721828712762555,1.2177610625173116,Right,Incorrect,0.0,0.0,-45,45,2003,511,-0.8
"{'cat': 'II', 'resp': 'reach'}",4,92,Right,45.58466551926769,21.885551598698438,2.279233275963384,0.34377744061115684,Right,Correct,0.0,0.0,-45,45,2004,564,-0.83
"{'cat': 'II', 'resp': 'reach'}",4,93,Left,64.16218979476886,88.40815388725278,3.2081094897384435,1.3887120338481462,Right,Incorrect,0.0,0.0,-45,45,2013,575,-0.84
"{'cat': 'II', 'resp': 'reach'}",4,94,Right,44.8687128232617,31.73224197794662,2.243435641163085,0.49844889139925375,Left,Incorrect,0.0,0.0,-45,45,2006,802,-2.57
"{'cat': 'II', 'resp': 'reach'}",4,95,Left,37.82556880339099,57.71797420424378,1.8912784401695495,0.9066318187006873,Right,Incorrect,0.0,0.0,-45,45,2010,755,-0.76
"{'cat': 'II', 'resp': 'reach'}",4,96,Right,42.84136617844285,22.136380851423915,2.1420683089221426,0.3477174572994957,Right,Correct,0.0,0.0,-45,45,2012,586,-0.78
"{'cat': 'II', 'resp': 'reach'}",4,97,Right,75.44992278785725,62.510182756691506,3.7724961393928624,0.981907654614887,Right,Correct,0.0,0.0,-45,45,2009,642,-0.92
"{'cat': 'II', 'resp': 'reach'}",4,98,Left,26.93969393635885,40.70138880294694,1.3469846968179424,0.6393359202711999,Right,Incorrect,0.0,0.0,-45,45,2005,510,-0.88
"{'cat': 'II', 'resp': 'reach'}",4,99,Right,62.02676727550844,53.18159056353184,3.101338363775422,0.8353744711030596,Right,Correct,0.0,0.0,-45,45,2007,496,-0.92
"{'cat': 'II', 'resp': 'reach'}",4,100,Left,57.92847750359203,74.57716990534985,2.896423875179601,1.1714554455008246,Right,Incorrect,0.0,0.0,-45,45,2006,615,-0.89
"{'cat': 'II', 'resp': 'reach'}",4,101,Left,45.373028286820755,66.95002379154874,2.2686514143410377,1.051648514505957,Left,Correct,0.0,0.0,-45,45,2004,634,-2.58
"{'cat': 'II', 'resp': 'reach'}",4,102,Right,51.01834617275874,42.966320767044216,2.550917308637937,0.6749133883676434,Left,Incorrect,0.0,0.0,-45,45,2005,710,-2.41
"{'cat': 'II', 'resp': 'reach'}",4,103,Right,46.83142714603453,31.275013412873893,2.341571357301726,0.4912667618940343,Right,Correct,0.0,0.0,-45,45,2008,625,-0.87
"{'cat': 'II', 'resp': 'reach'}",4,104,Left,38.08942031838408,55.1205467648362,1.9044710159192038,0.8658315238913101,Right,Incorrect,0.0,0.0,-45,45,2008,704,-0.95
"{'cat': 'II', 'resp': 'reach'}",4,105,Right,86.4236113227065,59.42269466721193,4.321180566135325,0.9334095051151119,Right,Correct,0.0,0.0,-45,45,2008,518,-0.77
"{'cat': 'II', 'resp': 'reach'}",4,106,Left,38.318303206890164,54.26216798950463,1.9159151603445082,0.852348141618415,Right,Incorrect,0.0,0.0,-45,45,2001,611,-0.87
"{'cat': 'II', 'resp': 'reach'}",4,107,Left,21.007583159998706,46.530844247452094,1.0503791579999353,0.7309047922656319,Left,Correct,0.0,0.0,-45,45,2005,887,-2.55
"{'cat': 'II', 'resp': 'reach'}",4,108,Left,37.87356080262543,70.89609212892222,1.8936780401312714,1.113633211002236,Right,Incorrect,0.0,0.0,-45,45,2012,658,-0.8
"{'cat': 'II', 'resp': 'reach'}",4,109,Left,20.9065987352465,36.05391618955696,1.045329936762325,0.5663335911712712,Left,Correct,0.0,0.0,-45,45,2005,566,-2.49
"{'cat': 'II', 'resp': 'reach'}",4,110,Left,44.09982237135632,65.55872069846463,2.2049911185678157,1.029793976625208,Right,Incorrect,0.0,0.0,-45,45,2005,597,-0.79
"{'cat': 'II', 'resp': 'reach'}",4,111,Left,24.244768039284647,38.54314424196711,1.2122384019642325,0.6054342939840781,Right,Incorrect,0.0,0.0,-45,45,2010,557,-0.87
"{'cat': 'II', 'resp': 'reach'}",4,112,Left,24.120812144345905,49.95489228739316,1.2060406072172953,0.7846896131047189,Left,Correct,0.0,0.0,-45,45,2009,716,-2.47
"{'cat': 'II', 'resp': 'reach'}",4,113,Right,87.21141525307581,69.31068225944284,4.360570762653791,1.0887296510078102,Right,Correct,0.0,0.0,-45,45,2003,699,-0.81
"{'cat': 'II', 'resp': 'reach'}",4,114,Left,38.28766140390633,46.007450284930655,1.9143830701953164,0.7226833391276789,Left,Correct,0.0,0.0,-45,45,2009,587,-2.67
"{'cat': 'II', 'resp': 'reach'}",4,115,Left,39.80852708905695,67.99589977505764,1.9904263544528475,1.0680770960377448,Right,Incorrect,0.0,0.0,-45,45,2007,511,-0.74
"{'cat': 'II', 'resp': 'reach'}",4,116,Right,57.97748950845211,44.5170566656442,2.8988744754226055,0.6992722909011416,Right,Correct,0.0,0.0,-45,45,2007,531,-0.78
"{'cat': 'II', 'resp': 'reach'}",4,117,Left,38.18537997223182,55.24177257672521,1.9092689986115912,0.8677357344915901,Left,Correct,0.0,0.0,-45,45,2003,612,-2.62
"{'cat': 'II', 'resp': 'reach'}",4,118,Right,70.32498327763115,59.082785430218664,3.5162491638815574,0.928070223305985,Left,Incorrect,0.0,0.0,-45,45,2009,576,-2.56
"{'cat': 'II', 'resp': 'reach'}",4,119,Right,70.54257167677243,45.3880061478958,3.5271285838386213,0.712953133376589,Right,Correct,0.0,0.0,-45,45,2008,570,-0.83
"{'cat': 'II', 'resp': 'reach'}",4,120,Right,63.40586201668211,51.67865117443432,3.1702931008341055,0.8117663543851622,Left,Incorrect,0.0,0.0,-45,45,2002,535,-2.51
"{'cat': 'II', 'resp': 'reach'}",4,121,Right,30.712306855027837,14.051105214404,1.5356153427513919,0.22071424458194422,Right,Correct,0.0,0.0,-45,45,2008,558,-0.77
"{'cat': 'II', 'resp': 'reach'}",4,122,Right,67.98357478452769,51.97339036072154,3.3991787392263846,0.8163961066969867,Right,Correct,0.0,0.0,-45,45,2001,500,-0.79
"{'cat': 'II', 'resp': 'reach'}",4,123,Right,82.99405142081257,57.07783227487881,4.149702571040629,0.8965764927879483,Right,Correct,0.0,0.0,-45,45,2001,600,-0.74
"{'cat': 'II', 'resp': 'reach'}",4,124,Right,37.82837336212937,15.926774748650164,1.8914186681064684,0.25017719272869393,Left,Incorrect,0.0,0.0,-45,45,2005,639,-2.51
"{'cat': 'II', 'resp': 'reach'}",4,125,Right,47.47727288107414,23.251641466686802,2.3738636440537073,0.3652359300782353,Right,Correct,0.0,0.0,-45,45,2009,502,-0.73
"{'cat': 'II', 'resp': 'reach'}",4,126,Right,76.91964548975099,53.51272996602871,3.84598227448755,0.8405759966740507,Right,Correct,0.0,0.0,-45,45,2005,649,-0.81
"{'cat': 'II', 'resp': 'reach'}",4,127,Left,52.07128753404613,64.38142974559491,2.6035643767023067,1.0113011335818418,Right,Incorrect,0.0,0.0,-45,45,2008,589,-0.8
"{'cat': 'II', 'resp': 'reach'}",4,128,Left,31.24022271644283,40.88806965155097,1.5620111358221414,0.6422682961839015,Left,Correct,0.0,0.0,-45,45,2001,704,-2.45
"{'cat': 'II', 'resp': 'reach'}",4,129,Left,37.75824337806411,55.75681398863403,1.8879121689032052,0.8758259860713262,Right,Incorrect,0.0,0.0,-45,45,2001,591,-0.88
"{'cat': 'II', 'resp': 'reach'}",4,130,Left,42.81714723475995,52.74813104364576,2.1408573617379973,0.8285657048865461,Left,Correct,0.0,0.0,-45,45,2003,776,-2.53
"{'cat': 'II', 'resp': 'reach'}",4,131,Left,25.502118188513887,52.478131553001056,1.2751059094256945,0.8243245628051342,Left,Correct,0.0,0.0,-45,45,2006,1055,-2.78
"{'cat': 'II', 'resp': 'reach'}",4,132,Left,31.50792753326754,57.225529350506555,1.5753963766633772,0.8988965130266924,Right,Incorrect,0.0,0.0,-45,45,2012,525,-0.82
"{'cat': 'II', 'resp': 'reach'}",4,133,Left,29.5167909758123,38.70415864663772,1.4758395487906149,0.6079635023382548,Right,Incorrect,0.0,0.0,-45,45,2011,488,-0.87
"{'cat': 'II', 'resp': 'reach'}",4,134,Left,28.148016947759384,49.0328496707337,1.4074008473879693,0.7702062015507484,Right,Incorrect,0.0,0.0,-45,45,2013,476,-0.83
"{'cat': 'II', 'resp': 'reach'}",4,135,Left,48.01031116132902,78.94745603187593,2.400515558066451,1.240103739446723,Right,Incorrect,0.0,0.0,-45,45,2007,517,-0.87
"{'cat': 'II', 'resp': 'reach'}",4,136,Left,32.87766229603202,58.91281677258696,1.6438831148016009,0.9254003618752037,Right,Incorrect,0.0,0.0,-45,45,2003,523,-0.88
"{'cat': 'II', 'resp': 'reach'}",4,137,Right,85.49999242751059,60.056922472244466,4.27499962137553,0.9433719321800749,Left,Incorrect,0.0,0.0,-45,45,2002,528,-2.58
"{'cat': 'II', 'resp': 'reach'}",4,138,Right,50.28160950785647,31.02855553816677,2.5140804753928236,0.4873954106510381,Right,Correct,0.0,0.0,-45,45,2003,520,-0.81
"{'cat': 'II', 'resp': 'reach'}",4,139,Left,39.548438366234265,49.414622396442695,1.9774219183117134,0.7762030735028901,Right,Incorrect,0.0,0.0,-45,45,2005,567,-0.87
"{'cat': 'II', 'resp': 'reach'}",4,140,Right,41.91200905726039,16.05529523360944,2.095600452863019,0.25219598778561314,Left,Incorrect,0.0,0.0,-45,45,2012,505,-2.52
"{'cat': 'II', 'resp': 'reach'}",4,141,Right,49.168178839252256,32.553445043946255,2.4584089419626127,0.5113483189955031,Right,Correct,0.0,0.0,-45,45,2008,574,-0.8
"{'cat': 'II', 'resp': 'reach'}",4,142,Left,36.08296227504745,68.14026379436518,1.8041481137523727,1.070344760750241,Right,Incorrect,0.0,0.0,-45,45,2005,525,-0.78
"{'cat': 'II', 'resp': 'reach'}",4,143,Right,45.019983266994956,20.2430565146361,2.2509991633497477,0.3179771881629188,Left,Incorrect,0.0,0.0,-45,45,2002,1232,-2.6
"{'cat': 'II', 'resp': 'reach'}",4,144,Left,45.081666667745864,65.47492311446155,2.2540833333872934,1.0284776872537447,Right,Incorrect,0.0,0.0,-45,45,2011,547,-0.75
"{'cat': 'II', 'resp': 'reach'}",4,145,Right,60.185312399354856,45.956340442856984,3.009265619967743,0.721880507605755,Left,Incorrect,0.0,0.0,-45,45,2013,550,-2.56
"{'cat': 'II', 'resp': 'reach'}",4,146,Left,42.31962909643713,66.09707868588511,2.1159814548218567,1.0382504841166158,Right,Incorrect,0.0,0.0,-45,45,2006,483,-0.77
"{'cat': 'II', 'resp': 'reach'}",4,147,Right,67.24094869867807,55.01687553904699,3.362047434933903,0.86420306008467,Left,Incorrect,0.0,0.0,-45,45,2006,599,-2.59
"{'cat': 'II', 'resp': 'reach'}",4,148,Left,53.66930575718633,61.53747339048274,2.6834652878593164,0.9666283716200895,Right,Incorrect,0.0,0.0,-45,45,2009,485,-0.81
"{'cat': 'II', 'resp': 'reach'}",4,149,Left,61.76088528069664,81.22352445838374,3.0880442640348322,1.2758561386856462,Right,Incorrect,0.0,0.0,-45,45,2002,599,-0.86
"{'cat': 'II', 'resp': 'reach'}",4,150,Right,56.40196759821802,49.49491390271662,2.8200983799109007,0.7774642895341694,Left,Incorrect,0.0,0.0,-45,45,2012,637,-2.65
"{'cat': 'II', 'resp': 'reach'}",4,151,Right,43.04332504083033,32.235019333874405,2.1521662520415163,0.506346499638124,Right,Correct,0.0,0.0,-45,45,2003,433,-0.78
"{'cat': 'II', 'resp': 'reach'}",4,152,Left,14.508382131339182,33.442564268217126,0.7254191065669591,0.5253145711111772,Right,Incorrect,0.0,0.0,-45,45,2001,456,-0.81
"{'cat': 'II', 'resp': 'reach'}",4,153,Right,45.881401899737305,32.730876341656824,2.2940700949868655,0.5141354033025252,Right,Correct,0.0,0.0,-45,45,2008,678,-0.88
"{'cat': 'II', 'resp': 'reach'}",4,154,Right,66.42156198704828,44.05576590769062,3.321078099352414,0.6920263526193626,Right,Correct,0.0,0.0,-45,45,2009,661,-0.82
"{'cat': 'II', 'resp': 'reach'}",4,155,Right,81.88538439207929,60.654330199299125,4.094269219603964,0.9527559908126383,Right,Correct,0.0,0.0,-45,45,2002,666,-0.86
"{'cat': 'II', 'resp': 'reach'}",4,156,Left,15.880955195638261,34.75394531739967,0.7940477597819131,0.545913696462021,Right,Incorrect,0.0,0.0,-45,45,2008,573,-0.86
"{'cat': 'II', 'resp': 'reach'}",4,157,Right,62.11167496804382,40.95054098310697,3.105583748402191,0.643249593565283,Left,Incorrect,0.0,0.0,-45,45,2007,567,-2.49
"{'cat': 'II', 'resp': 'reach'}",4,158,Right,62.746485023340526,53.05928316946004,3.1373242511670263,0.8334532710495809,Right,Correct,0.0,0.0,-45,45,2006,1615,-0.9
"{'cat': 'II', 'resp': 'reach'}",4,159,Right,58.954485080682566,40.19601119010807,2.9477242540341284,0.6313974672922831,Right,Correct,0.0,0.0,-45,45,2002,1836,-0.85
"{'cat': 'II', 'resp': 'reach'}",4,160,Right,76.55523325213663,54.01178097535308,3.827761662606832,0.848415071597351,Right,Correct,0.0,0.0,-45,45,2006,1177,-0.85
"{'cat': 'II', 'resp': 'reach'}",4,161,Right,55.97234463810801,48.5761845334601,2.7986172319054003,0.7630329223487018,Right,Correct,0.0,0.0,-45,45,2001,1743,-0.82
"{'cat': 'II', 'resp': 'reach'}",4,162,Right,69.99279644524876,57.154877488794355,3.499639822262438,0.897786716178105,Right,Correct,0.0,0.0,-45,45,2006,1801,-0.79
"{'cat': 'II', 'resp': 'reach'}",4,163,Right,32.15157421476677,12.358935101489589,1.6075787107383384,0.19413369860516358,Right,Correct,0.0,0.0,-45,45,2009,2724,-0.82
"{'cat': 'II', 'resp': 'reach'}",4,164,Left,12.301126709928628,37.939952883157275,0.6150563354964314,0.5959593862763489,Right,Incorrect,0.0,0.0,-45,45,2008,2692,-0.82
"{'cat': 'II', 'resp': 'reach'}",4,165,Right,81.7540334088171,65.36758694405509,4.087701670440855,1.0267916546316778,Right,Correct,0.0,0.0,-45,45,2009,1485,-0.82
"{'cat': 'II', 'resp': 'reach'}",4,166,Left,18.067985488334624,33.73776159412064,0.9033992744167313,0.5299515198632664,Right,Incorrect,0.0,0.0,-45,45,2011,2112,-0.84
"{'cat': 'II', 'resp': 'reach'}",4,167,Right,78.14334551905779,48.93538901697564,3.9071672759528893,0.7686752931814466,Right,Correct,0.0,0.0,-45,45,2009,1419,-0.81
"{'cat': 'II', 'resp': 'reach'}",4,168,Right,55.40313753724298,30.370137036486497,2.770156876862149,0.47705299701170645,Right,Correct,0.0,0.0,-45,45,2003,1250,-0.84
"{'cat': 'II', 'resp': 'reach'}",4,169,Right,73.95475661824676,46.02868370072569,3.6977378309123377,0.7230168728430404,Right,Correct,0.0,0.0,-45,45,2005,1313,-0.83
"{'cat': 'II', 'resp': 'reach'}",4,170,Right,78.8189621773898,58.49504269505124,3.9409481088694904,0.9188379820109714,Right,Correct,0.0,0.0,-45,45,2013,1190,-0.82
"{'cat': 'II', 'resp': 'reach'}",4,171,Left,20.74606019188122,43.36415218731715,1.037303009594061,0.6811625097041266,Left,Correct,0.0,0.0,-45,45,2003,1373,-2.82
"{'cat': 'II', 'resp': 'reach'}",4,172,Left,59.82652339319645,83.96818935004578,2.9913261696598226,1.3189692339867025,Right,Incorrect,0.0,0.0,-45,45,2004,1216,-0.72
"{'cat': 'II', 'resp': 'reach'}",4,173,Right,57.96209231371563,25.90982710210061,2.8981046156857815,0.40699061239870493,Right,Correct,0.0,0.0,-45,45,2004,1367,-0.8
"{'cat': 'II', 'resp': 'reach'}",4,174,Right,49.51878415330849,42.32176495929035,2.4759392076654247,0.6647887294153025,Right,Correct,0.0,0.0,-45,45,2001,1346,-0.78
"{'cat': 'II', 'resp': 'reach'}",4,175,Left,56.293921635767106,84.61951372606963,2.8146960817883553,1.3292002133608052,Right,Incorrect,0.0,0.0,-45,45,2002,1558,-0.78
"{'cat': 'II', 'resp': 'reach'}",4,176,Left,48.183458975200416,58.79215189360657,2.4091729487600206,0.9235049623884483,Right,Incorrect,0.0,0.0,-45,45,2006,1359,-0.81
"{'cat': 'II', 'resp': 'reach'}",4,177,Left,59.31329640598659,77.41574136240051,2.9656648202993297,1.2160436216816246,Right,Incorrect,0.0,0.0,-45,45,2008,1411,-0.79
"{'cat': 'II', 'resp': 'reach'}",4,178,Left,49.839060409105436,60.15695444295394,2.491953020455272,0.9449432307015998,Right,Incorrect,0.0,0.0,-45,45,2007,1485,-0.84
"{'cat': 'II', 'resp': 'reach'}",4,179,Right,60.363080063729186,30.270617908512527,3.018154003186459,0.47548975420503287,Right,Correct,0.0,0.0,-45,45,2009,1517,-0.85
"{'cat': 'II', 'resp': 'reach'}",4,180,Left,15.44383140297544,42.63251933784474,0.7721915701487719,0.6696700477789892,Right,Incorrect,0.0,0.0,-45,45,2004,2224,-0.84
"{'cat': 'II', 'resp': 'reach'}",4,181,Left,17.724259652131565,43.3793705541544,0.8862129826065782,0.6814015592514041,Right,Incorrect,0.0,0.0,-45,45,2001,1098,-0.84
"{'cat': 'II', 'resp': 'reach'}",4,182,Right,55.41502167960704,39.19539195762378,2.7707510839803517,0.6156797771432164,Left,Incorrect,0.0,0.0,-45,45,2001,1579,-2.63
"{'cat': 'II', 'resp': 'reach'}",4,183,Left,45.4348221237576,75.5800821445241,2.2717411061878803,1.1872091541147503,Right,Incorrect,0.0,0.0,-45,45,2010,545,-0.79
"{'cat': 'II', 'resp': 'reach'}",4,184,Right,74.0773192283289,58.76753511451716,3.7038659614164455,0.9231182829267365,Left,Incorrect,0.0,0.0,-45,45,2008,689,-2.45
"{'cat': 'II', 'resp': 'reach'}",4,185,Right,40.45811441456306,27.898149952108234,2.022905720728153,0.43822311469144837,Right,Correct,0.0,0.0,-45,45,2009,641,-0.82
"{'cat': 'II', 'resp': 'reach'}",4,186,Left,21.00985785981076,35.374471852755335,1.0504928929905382,0.5556609044861753,Right,Incorrect,0.0,0.0,-45,45,2014,997,-0.88
"{'cat': 'II', 'resp': 'reach'}",4,187,Left,51.62187765309065,59.91878418018136,2.5810938826545327,0.9412020609624504,Left,Correct,0.0,0.0,-45,45,2007,680,-2.62
"{'cat': 'II', 'resp': 'reach'}",4,188,Right,60.03816727149912,52.63629322041993,3.0019083635749557,0.8268089604673475,Right,Correct,0.0,0.0,-45,45,2005,565,-0.76
"{'cat': 'II', 'resp': 'reach'}",4,189,Left,57.64327970347523,80.45222552455584,2.8821639851737615,1.2637406033644694,Right,Incorrect,0.0,0.0,-45,45,2009,423,-0.74
"{'cat': 'II', 'resp': 'reach'}",4,190,Left,59.74749829920498,84.10770921400794,2.9873749149602484,1.3211608068849694,Left,Correct,0.0,0.0,-45,45,2004,1077,-2.56
"{'cat': 'II', 'resp': 'reach'}",4,191,Right,76.38495157914186,61.844382419013144,3.8192475789570928,0.9714492873668473,Right,Correct,0.0,0.0,-45,45,2013,1119,-0.85
"{'cat': 'II', 'resp': 'reach'}",4,192,Right,70.76968138764823,45.8896238699433,3.538484069382412,0.7208325261290635,Right,Correct,0.0,0.0,-45,45,2006,1381,-0.89
"{'cat': 'II', 'resp': 'reach'}",4,193,Left,23.5500611058106,38.60138555671279,1.17750305529053,0.6063491464167802,Right,Incorrect,0.0,0.0,-45,45,2008,469,-0.76
"{'cat': 'II', 'resp': 'reach'}",4,194,Left,32.6510310095689,64.88115208131232,1.632551550478445,1.0191507536754645,Left,Correct,0.0,0.0,-45,45,2009,2443,-2.57
"{'cat': 'II', 'resp': 'reach'}",4,195,Right,47.58373941929287,22.722300984122484,2.3791869709646436,0.3569210692218766,Right,Correct,0.0,0.0,-45,45,2006,1048,-0.76
"{'cat': 'II', 'resp': 'reach'}",4,196,Right,72.85369020173431,56.79320926830681,3.6426845100867156,0.8921056450555022,Right,Correct,0.0,0.0,-45,45,2006,473,-0.86
"{'cat': 'II', 'resp': 'reach'}",4,197,Left,44.38598958804463,75.72952121126878,2.2192994794022316,1.1895565374859718,Right,Incorrect,0.0,0.0,-45,45,2008,539,-0.87
"{'cat': 'II', 'resp': 'reach'}",4,198,Left,64.55787297813166,80.13106981665352,3.2278936489065826,1.2586959013014474,Left,Correct,0.0,0.0,-45,45,2004,561,-2.5
"{'cat': 'II', 'resp': 'reach'}",4,199,Left,58.222232874429366,67.34108087585773,2.9111116437214686,1.0577912248219536,Left,Correct,0.0,0.0,-45,45,2003,700,-2.44
"{'cat': 'II', 'resp': 'reach'}",4,200,Left,29.721028043482654,43.005547773998344,1.4860514021741327,0.6755295647519904,Left,Correct,0.0,0.0,-45,45,2005,600,-2.42
"{'cat': 'II', 'resp': 'reach'}",4,201,Left,32.67993669032977,58.35389654006031,1.6339968345164886,0.9166208633929617,Left,Correct,0.0,0.0,-45,45,2006,569,-2.46
"{'cat': 'II', 'resp': 'reach'}",4,202,Right,37.4244030624285,16.32938217748707,1.871220153121425,0.2565013354322674,Right,Correct,0.0,0.0,-45,45,2009,503,-0.76
"{'cat': 'II', 'resp': 'reach'}",4,203,Left,29.731263488853187,48.39965007466816,1.4865631744426593,0.7602599255544708,Right,Incorrect,0.0,0.0,-45,45,2006,575,-0.77
"{'cat': 'II', 'resp': 'reach'}",4,204,Left,35.95492235864865,59.21178344392757,1.7977461179324326,0.930096519366963,Left,Correct,0.0,0.0,-45,45,2008,879,-2.62
"{'cat': 'II', 'resp': 'reach'}",4,205,Left,27.26309620511698,44.58467118401568,1.363154810255849,0.7003343772721011,Right,Incorrect,0.0,0.0,-45,45,2002,722,-0.73
"{'cat': 'II', 'resp': 'reach'}",4,206,Left,49.268885138824146,60.43837799941584,2.4634442569412074,0.9493638215892389,Left,Correct,0.0,0.0,-45,45,2005,639,-2.57
"{'cat': 'II', 'resp': 'reach'}",4,207,Right,50.68907628341743,24.410530544733152,2.5344538141708712,0.3834397171478146,Right,Correct,0.0,0.0,-45,45,2002,530,-0.77
"{'cat': 'II', 'resp': 'reach'}",4,208,Left,54.509770679222655,78.17252002601079,2.7254885339611326,1.2279310731315825,Right,Incorrect,0.0,0.0,-45,45,2006,465,-0.68
"{'cat': 'II', 'resp': 'reach'}",4,209,Right,36.806091612690125,17.079427212413858,1.8403045806345062,0.2682830152902049,Left,Incorrect,0.0,0.0,-45,45,2011,564,-2.53
"{'cat': 'II', 'resp': 'reach'}",4,210,Left,26.509679709421476,45.59817003247894,1.3254839854710738,0.7162543799558705,Right,Incorrect,0.0,0.0,-45,45,2002,537,-0.69
"{'cat': 'II', 'resp': 'reach'}",4,211,Left,38.63599644213783,49.99018776819128,1.9317998221068917,0.7852440332206203,Left,Correct,0.0,0.0,-45,45,2009,805,-2.46
"{'cat': 'II', 'resp': 'reach'}",4,212,Right,55.442386368097516,29.17698069367622,2.772119318404876,0.4583109410059222,Right,Correct,0.0,0.0,-45,45,2005,533,-0.72
"{'cat': 'II', 'resp': 'reach'}",4,213,Right,71.47765679222928,38.70255192313641,3.5738828396114637,0.6079382639845144,Right,Correct,0.0,0.0,-45,45,2004,658,-0.81
"{'cat': 'II', 'resp': 'reach'}",4,214,Left,59.196031198923386,83.54289618545121,2.9598015599461696,1.3122887445791414,Right,Incorrect,0.0,0.0,-45,45,2002,523,-0.69
"{'cat': 'II', 'resp': 'reach'}",4,215,Right,50.19404295157718,32.37332574668621,2.5097021475788592,0.5085190116902936,Left,Incorrect,0.0,0.0,-45,45,2001,833,-2.5
"{'cat': 'II', 'resp': 'reach'}",4,216,Right,77.00357029347427,54.56138840077441,3.850178514673713,0.8570482848476614,Right,Correct,0.0,0.0,-45,45,2004,605,-0.71
"{'cat': 'II', 'resp': 'reach'}",4,217,Right,36.53208733849553,16.654713840513725,1.8266043669247765,0.26161163324499087,Right,Correct,0.0,0.0,-45,45,2009,502,-0.76
"{'cat': 'II', 'resp': 'reach'}",4,218,Left,34.60511288875594,53.800047503728436,1.730255644437797,0.8450891700024759,Right,Incorrect,0.0,0.0,-45,45,2001,616,-0.75
"{'cat': 'II', 'resp': 'reach'}",4,219,Left,38.39209519173997,58.648148900810476,1.9196047595869985,0.9212429686671325,Left,Correct,0.0,0.0,-45,45,2008,592,-2.44
"{'cat': 'II', 'resp': 'reach'}",4,220,Left,21.711234315367822,42.16856055472262,1.085561715768391,0.6623822002558645,Left,Correct,0.0,0.0,-45,45,2007,624,-2.46
"{'cat': 'II', 'resp': 'reach'}",4,221,Left,25.980124745458024,43.293043271092294,1.2990062372729012,0.6800455334600429,Right,Incorrect,0.0,0.0,-45,45,2002,1024,-0.75
"{'cat': 'II', 'resp': 'reach'}",4,222,Left,24.056052702677007,51.2017500498497,1.2028026351338503,0.8042752090377432,Left,Correct,0.0,0.0,-45,45,2007,597,-2.51
"{'cat': 'II', 'resp': 'reach'}",4,223,Right,69.0457175857823,50.457789174934305,3.452285879289115,0.7925890989417809,Right,Correct,0.0,0.0,-45,45,2002,669,-0.75
"{'cat': 'II', 'resp': 'reach'}",4,224,Right,60.13950614926981,40.42938197310672,3.0069753074634904,0.6350632469794385,Right,Correct,0.0,0.0,-45,45,2006,533,-0.83
"{'cat': 'II', 'resp': 'reach'}",4,225,Left,32.953521927642086,63.95949925733886,1.6476760963821044,1.0046734649706879,Right,Incorrect,0.0,0.0,-45,45,2005,497,-0.85
"{'cat': 'II', 'resp': 'reach'}",4,226,Left,46.329863186402704,56.66381711227762,2.316493159320135,0.8900731578214349,Left,Correct,0.0,0.0,-45,45,2009,696,-2.56
"{'cat': 'II', 'resp': 'reach'}",4,227,Right,53.81548992709567,33.32493423447698,2.6907744963547833,0.5234668428619794,Right,Correct,0.0,0.0,-45,45,2007,534,-0.9
"{'cat': 'II', 'resp': 'reach'}",4,228,Left,14.589320162056673,43.09579272301262,0.7294660081028337,0.6769471290962246,Right,Incorrect,0.0,0.0,-45,45,2006,465,-0.75
"{'cat': 'II', 'resp': 'reach'}",4,229,Left,28.410408268355297,57.500545210522105,1.420520413417765,0.9032164520539201,Left,Correct,0.0,0.0,-45,45,2001,567,-2.48
"{'cat': 'II', 'resp': 'reach'}",4,230,Right,73.63501266199499,59.22621715751828,3.6817506330997496,0.9303232436098658,Left,Incorrect,0.0,0.0,-45,45,2002,518,-2.46
"{'cat': 'II', 'resp': 'reach'}",4,231,Right,67.68708297088415,37.04124472321217,3.3843541485442072,0.5818425115113253,Right,Correct,0.0,0.0,-45,45,2012,534,-0.72
"{'cat': 'II', 'resp': 'reach'}",4,232,Left,24.616552846295356,42.29179034409598,1.2308276423147677,0.6643178892608584,Right,Incorrect,0.0,0.0,-45,45,2010,598,-0.76
"{'cat': 'II', 'resp': 'reach'}",4,233,Right,62.087949335368165,34.08740198217681,3.1043974667684084,0.535443658235844,Left,Incorrect,0.0,0.0,-45,45,2009,582,-2.45
"{'cat': 'II', 'resp': 'reach'}",4,234,Right,49.039680403309276,24.899746521086968,2.4519840201654635,0.3911243037344741,Right,Correct,0.0,0.0,-45,45,2001,385,-0.78
"{'cat': 'II', 'resp': 'reach'}",4,235,Left,59.745055926663284,73.00826011248631,2.987252796333164,1.1468110681037986,Left,Correct,0.0,0.0,-45,45,2009,507,-2.42
"{'cat': 'II', 'resp': 'reach'}",4,236,Right,36.987019977836,22.236145663980942,1.8493509988917998,0.3492845593105753,Left,Incorrect,0.0,0.0,-45,45,2002,725,-2.4
"{'cat': 'II', 'resp': 'reach'}",4,237,Left,45.21836912127549,75.25087105064192,2.2609184560637745,1.1820379183446474,Right,Incorrect,0.0,0.0,-45,45,2001,596,-0.8
"{'cat': 'II', 'resp': 'reach'}",4,238,Right,41.40287640324459,15.22427583732554,2.0701438201622295,0.23914236563383257,Left,Incorrect,0.0,0.0,-45,45,2002,588,-2.51
"{'cat': 'II', 'resp': 'reach'}",4,239,Left,32.21317282222317,43.308578911715244,1.6106586411111585,0.6802895667322924,Right,Incorrect,0.0,0.0,-45,45,2005,507,-0.74
"{'cat': 'II', 'resp': 'reach'}",4,240,Right,70.54391409805486,39.49613814259472,3.527195704902743,0.620403887169716,Right,Correct,0.0,0.0,-45,45,2008,700,-0.78
"{'cat': 'II', 'resp': 'reach'}",4,241,Right,42.80905278338599,25.79174355836941,2.1404526391692995,0.40513576043122607,Right,Correct,0.0,0.0,-45,45,2007,550,-0.8
"{'cat': 'II', 'resp': 'reach'}",4,242,Left,45.343329621953224,54.74556861452353,2.2671664810976613,0.8599413808799152,Right,Incorrect,0.0,0.0,-45,45,2001,407,-0.75
"{'cat': 'II', 'resp': 'reach'}",4,243,Left,23.6948505729519,47.66837058613753,1.184742528647595,0.7487730142100271,Right,Incorrect,0.0,0.0,-45,45,2014,580,-0.87
"{'cat': 'II', 'resp': 'reach'}",4,244,Right,39.69196775266434,22.084518537407618,1.984598387633217,0.34690280597593687,Left,Incorrect,0.0,0.0,-45,45,2008,639,-2.58
"{'cat': 'II', 'resp': 'reach'}",4,245,Right,53.37445041439101,40.32663329085104,2.668722520719551,0.633449274452736,Right,Correct,0.0,0.0,-45,45,2008,712,-0.77
"{'cat': 'II', 'resp': 'reach'}",4,246,Right,75.46796777665602,57.60488865557171,3.773398388832801,0.9048554750560105,Right,Correct,0.0,0.0,-45,45,2005,756,-0.75
"{'cat': 'II', 'resp': 'reach'}",4,247,Right,77.06249735554847,63.84057306560412,3.853124867777424,1.0028053767193215,Right,Correct,0.0,0.0,-45,45,2008,755,-0.77
"{'cat': 'II', 'resp': 'reach'}",4,248,Left,35.61591687082183,67.98487026877704,1.7807958435410913,1.0679038449582254,Right,Incorrect,0.0,0.0,-45,45,2001,588,-0.81
"{'cat': 'II', 'resp': 'reach'}",4,249,Left,22.73863948679285,54.36427813535445,1.1369319743396424,0.8539520840387088,Right,Incorrect,0.0,0.0,-45,45,2008,608,-0.72
"{'cat': 'II', 'resp': 'reach'}",4,250,Left,51.37163221747652,74.51667983426775,2.568581610873826,1.1705052696861913,Left,Correct,0.0,0.0,-45,45,2002,620,-2.52
"{'cat': 'II', 'resp': 'reach'}",4,251,Left,15.938420642982429,33.305429534243736,0.7969210321491215,0.5231604637471632,Left,Correct,0.0,0.0,-45,45,2008,570,-2.46
"{'cat': 'II', 'resp': 'reach'}",4,252,Left,20.032283370374824,47.870951658677555,1.0016141685187412,0.7519551502562676,Right,Incorrect,0.0,0.0,-45,45,2012,937,-0.76
"{'cat': 'II', 'resp': 'reach'}",4,253,Right,81.41726329521687,53.85180405965334,4.070863164760843,0.8459021600818196,Right,Correct,0.0,0.0,-45,45,2003,642,-0.76
"{'cat': 'II', 'resp': 'reach'}",4,254,Left,32.39652351261647,44.833805057712915,1.6198261756308232,0.704247763008939,Right,Incorrect,0.0,0.0,-45,45,2011,491,-0.75
"{'cat': 'II', 'resp': 'reach'}",4,255,Left,49.86822475088081,70.24196191622741,2.4934112375440405,1.1033581576487703,Left,Correct,0.0,0.0,-45,45,2001,678,-2.5
"{'cat': 'II', 'resp': 'reach'}",4,256,Right,88.64761593581741,62.66092477335148,4.43238079679087,0.9842755046755184,Left,Incorrect,0.0,0.0,-45,45,2002,626,-2.46
"{'cat': 'II', 'resp': 'reach'}",4,257,Right,31.91453235208115,10.185328865298157,1.5957266176040574,0.15999077168808376,Right,Correct,0.0,0.0,-45,45,2006,438,-0.83
"{'cat': 'II', 'resp': 'reach'}",4,258,Left,62.03400016093576,75.3429501853424,3.1017000080467882,1.1834842940102672,Right,Incorrect,0.0,0.0,-45,45,2005,436,-0.81
"{'cat': 'II', 'resp': 'reach'}",4,259,Right,85.03036675257204,55.682078450307756,4.251518337628601,0.8746520429804868,Left,Incorrect,0.0,0.0,-45,45,2003,814,-2.57
"{'cat': 'II', 'resp': 'reach'}",4,260,Left,33.381251749700986,65.19356023647758,1.6690625874850493,1.0240580495014082,Right,Incorrect,0.0,0.0,-45,45,2002,519,-0.8
"{'cat': 'II', 'resp': 'reach'}",4,261,Right,58.60520351279881,30.81270733256637,2.9302601756399405,0.48400487496601424,Left,Incorrect,0.0,0.0,-45,45,2004,633,-2.4
"{'cat': 'II', 'resp': 'reach'}",4,262,Left,35.10529206488378,49.49859120659362,1.7552646032441888,0.7775220524883942,Right,Incorrect,0.0,0.0,-45,45,2004,581,-0.8
"{'cat': 'II', 'resp': 'reach'}",4,263,Left,54.23530682446116,70.21519573504412,2.7117653412230585,1.1029377154579199,Right,Incorrect,0.0,0.0,-45,45,2003,628,-0.8
"{'cat': 'II', 'resp': 'reach'}",4,264,Left,40.76332268667194,52.325700689083625,2.038166134333597,0.8219301843938174,Right,Incorrect,0.0,0.0,-45,45,2006,587,-0.8
"{'cat': 'II', 'resp': 'reach'}",4,265,Right,82.5465856986024,68.52134075641631,4.12732928493012,1.076330703672402,Left,Incorrect,0.0,0.0,-45,45,2002,573,-2.41
"{'cat': 'II', 'resp': 'reach'}",4,266,Left,32.03354590105425,58.99550368139934,1.6016772950527125,0.9266992048015689,Right,Incorrect,0.0,0.0,-45,45,2008,561,-0.8
"{'cat': 'II', 'resp': 'reach'}",4,267,Left,25.459464372277147,51.975683881926294,1.2729732186138574,0.8164321332438254,Right,Incorrect,0.0,0.0,-45,45,2006,565,-0.75
"{'cat': 'II', 'resp': 'reach'}",4,268,Right,65.73147583131183,52.223433300652886,3.2865737915655915,0.8203237720128383,Left,Incorrect,0.0,0.0,-45,45,2009,553,-2.37
"{'cat': 'II', 'resp': 'reach'}",4,269,Right,48.316376185894015,40.94346068837965,2.4158188092947004,0.64313837655578,Right,Correct,0.0,0.0,-45,45,2008,541,-0.84
"{'cat': 'II', 'resp': 'reach'}",4,270,Right,33.351916222031306,16.892823754216963,1.6675958111015654,0.2653518550231758,Right,Correct,0.0,0.0,-45,45,2008,652,-0.79
"{'cat': 'II', 'resp': 'reach'}",4,271,Right,49.225409697814364,23.585324176413835,2.461270484890718,0.3704774058257772,Right,Correct,0.0,0.0,-45,45,2012,676,-0.85
"{'cat': 'II', 'resp': 'reach'}",4,272,Left,18.8075760641386,47.80935920231261,0.94037880320693,0.7509876582141044,Right,Incorrect,0.0,0.0,-45,45,2006,531,-0.83
"{'cat': 'II', 'resp': 'reach'}",4,273,Left,47.20118910210333,61.05233384338587,2.3600594551051666,0.9590078174344626,Left,Correct,0.0,0.0,-45,45,2007,582,-2.43
"{'cat': 'II', 'resp': 'reach'}",4,274,Right,80.4055236584046,65.36482774080665,4.02027618292023,1.0267483131684023,Right,Correct,0.0,0.0,-45,45,2002,606,-0.85
"{'cat': 'II', 'resp': 'reach'}",4,275,Right,83.61466623161601,60.85394612096367,4.1807333115808,0.9558915503778429,Right,Correct,0.0,0.0,-45,45,2009,417,-0.81
"{'cat': 'II', 'resp': 'reach'}",4,276,Left,47.94080618672079,67.95561412857262,2.39704030933604,1.0674442905825323,Right,Incorrect,0.0,0.0,-45,45,2003,457,-0.8
"{'cat': 'II', 'resp': 'reach'}",4,277,Right,48.583473516436904,23.78248125591848,2.429173675821845,0.37357434198865236,Right,Correct,0.0,0.0,-45,45,2005,431,-0.84
"{'cat': 'II', 'resp': 'reach'}",4,278,Right,42.302016297290365,22.538258509832456,2.1151008148645185,0.3540301367959864,Right,Correct,0.0,0.0,-45,45,2011,529,-0.87
"{'cat': 'II', 'resp': 'reach'}",4,279,Right,51.703305220578045,23.85073029219552,2.5851652610289024,0.374646395343565,Right,Correct,0.0,0.0,-45,45,2005,582,-0.85
"{'cat': 'II', 'resp': 'reach'}",4,280,Left,29.664619737586275,42.64612449549915,1.4832309868793139,0.6698837570956793,Right,Incorrect,0.0,0.0,-45,45,2003,463,-0.81
"{'cat': 'II', 'resp': 'reach'}",4,281,Right,61.797454302428626,54.37917587147517,3.0898727151214316,0.8541860971304687,Right,Correct,0.0,0.0,-45,45,2003,731,-0.85
"{'cat': 'II', 'resp': 'reach'}",4,282,Right,49.76877793369597,37.721926026269706,2.4884388966847983,0.5925346284169327,Right,Correct,0.0,0.0,-45,45,2002,598,-0.85
"{'cat': 'II', 'resp': 'reach'}",4,283,Right,79.51007257088094,64.14810627340837,3.975503628544047,1.0076360970511853,Right,Correct,0.0,0.0,-45,45,2006,624,-0.91
"{'cat': 'II', 'resp': 'reach'}",4,284,Right,84.64623831808353,61.88280327546425,4.232311915904177,0.9720528007687043,Right,Correct,0.0,0.0,-45,45,2003,579,-0.89
"{'cat': 'II', 'resp': 'reach'}",4,285,Left,27.889259044844373,46.09659144924166,1.3944629522422187,0.7240835652623383,Right,Incorrect,0.0,0.0,-45,45,2008,591,-0.95
"{'cat': 'II', 'resp': 'reach'}",4,286,Right,69.3714477019406,58.06767200347675,3.46857238509703,0.9121248588859214,Right,Correct,0.0,0.0,-45,45,2007,594,-0.81
"{'cat': 'II', 'resp': 'reach'}",4,287,Right,73.449979610658,59.70255192532511,3.6724989805329007,0.9378054926458227,Right,Correct,0.0,0.0,-45,45,2006,524,-0.86
"{'cat': 'II', 'resp': 'reach'}",4,288,Left,56.09713111416102,82.26312062827213,2.804856555708051,1.2921860771357534,Right,Incorrect,0.0,0.0,-45,45,2004,472,-0.87
"{'cat': 'II', 'resp': 'reach'}",4,289,Left,63.30892999084435,82.21634152548849,3.1654464995422176,1.2914512727075205,Right,Incorrect,0.0,0.0,-45,45,2009,356,-0.87
"{'cat': 'II', 'resp': 'reach'}",4,290,Right,52.99574199446386,22.088336246520775,2.649787099723193,0.3469627744104541,Right,Correct,0.0,0.0,-45,45,2011,604,-0.85
"{'cat': 'II', 'resp': 'reach'}",4,291,Right,78.56682996080298,53.651414417133026,3.9283414980401488,0.8427544469378333,Right,Correct,0.0,0.0,-45,45,2002,418,-0.85
"{'cat': 'II', 'resp': 'reach'}",4,292,Right,79.908755551831,50.03324394829376,3.99543777759155,0.7859203581161281,Right,Correct,0.0,0.0,-45,45,2011,566,-0.95
"{'cat': 'II', 'resp': 'reach'}",4,293,Left,54.0150520731586,77.97413287910068,2.70075260365793,1.2248148151150853,Right,Incorrect,0.0,0.0,-45,45,2008,596,-0.91
"{'cat': 'II', 'resp': 'reach'}",4,294,Right,56.08084901402432,47.265456713842056,2.804042450701216,0.7424440579038628,Right,Correct,0.0,0.0,-45,45,2007,398,-0.86
"{'cat': 'II', 'resp': 'reach'}",4,295,Right,85.14667727233953,62.27232181812038,4.257333863616976,0.9781713437289319,Right,Correct,0.0,0.0,-45,45,2006,482,-0.76
"{'cat': 'II', 'resp': 'reach'}",4,296,Left,65.92578178794089,78.64912003132324,3.2962890893970442,1.2354174885085347,Right,Incorrect,0.0,0.0,-45,45,2003,354,-0.82
"{'cat': 'II', 'resp': 'reach'}",4,297,Right,71.79524915647322,46.73378384470503,3.589762457823661,0.7340925600048933,Left,Incorrect,0.0,0.0,-45,45,2008,554,-2.46
"{'cat': 'II', 'resp': 'reach'}",4,298,Right,69.70101058820785,39.17592267749177,3.4850505294103926,0.6153739544060496,Right,Correct,0.0,0.0,-45,45,2011,495,-0.74
"{'cat': 'II', 'resp': 'reach'}",4,299,Left,19.131429593559943,41.96515575113213,0.9565714796779972,0.6591871250725408,Right,Incorrect,0.0,0.0,-45,45,2008,452,-0.81
"{'cat': 'II', 'resp': 'reach'}",4,300,Left,53.229711144669864,64.83230521643095,2.661485557233493,1.0183834689161535,Left,Correct,0.0,0.0,-45,45,2001,605,-2.57
"{'cat': 'II', 'resp': 'reach'}",4,301,Left,35.220181587541475,57.46822372148626,1.7610090793770738,0.9027087472913796,Left,Correct,0.0,0.0,-45,45,2007,561,-2.43
"{'cat': 'II', 'resp': 'reach'}",4,302,Left,48.37657249005737,56.59019769789305,2.4188286245028685,0.8889167467644743,Right,Incorrect,0.0,0.0,-45,45,2003,490,-0.82
"{'cat': 'II', 'resp': 'reach'}",4,303,Left,36.285620994312474,55.269123264428416,1.8142810497156237,0.8681653580893852,Left,Correct,0.0,0.0,-45,45,2007,504,-2.38
"{'cat': 'II', 'resp': 'reach'}",4,304,Right,68.8645804349617,49.17001055022827,3.4432290217480848,0.7723607196076487,Right,Correct,0.0,0.0,-45,45,2002,399,-0.77
"{'cat': 'II', 'resp': 'reach'}",4,305,Right,63.312882159924996,30.9219580120539,3.1656441079962496,0.48572098062640284,Right,Correct,0.0,0.0,-45,45,2006,509,-0.83
"{'cat': 'II', 'resp': 'reach'}",4,306,Left,38.72810758566853,52.69142022338121,1.9364053792834266,0.8276748934049354,Right,Incorrect,0.0,0.0,-45,45,2011,546,-0.81
"{'cat': 'II', 'resp': 'reach'}",4,307,Right,47.7992632133505,35.06927983235734,2.3899631606675253,0.5508669594400926,Left,Incorrect,0.0,0.0,-45,45,2002,608,-2.51
"{'cat': 'II', 'resp': 'reach'}",4,308,Left,45.814258126739354,67.80489096288456,2.290712906336968,1.0650767366322753,Right,Incorrect,0.0,0.0,-45,45,2004,481,-0.73
"{'cat': 'II', 'resp': 'reach'}",4,309,Left,34.17745194710575,66.23825429921979,1.7088725973552874,1.0404680654652072,Right,Incorrect,0.0,0.0,-45,45,2007,465,-0.85
"{'cat': 'II', 'resp': 'reach'}",4,310,Right,61.77676893877028,49.71168581985209,3.088838446938514,0.780869334846056,Right,Correct,0.0,0.0,-45,45,2001,392,-0.86
"{'cat': 'II', 'resp': 'reach'}",4,311,Left,49.79492672794528,58.870288454459114,2.489746336397264,0.9247323286162038,Right,Incorrect,0.0,0.0,-45,45,2011,570,-0.9
"{'cat': 'II', 'resp': 'reach'}",4,312,Left,50.60029884251411,68.82223712604645,2.5300149421257054,1.0810571727940113,Left,Correct,0.0,0.0,-45,45,2007,849,-2.6
"{'cat': 'II', 'resp': 'reach'}",4,313,Left,41.77560585370557,69.41632950400796,2.0887802926852785,1.0903891540447992,Right,Incorrect,0.0,0.0,-45,45,2005,420,-0.87
"{'cat': 'II', 'resp': 'reach'}",4,314,Right,56.572550983736264,45.443570228562315,2.8286275491868134,0.7138259319147161,Right,Correct,0.0,0.0,-45,45,2004,549,-0.82
"{'cat': 'II', 'resp': 'reach'}",4,315,Right,57.02521096229632,44.06562965399728,2.851260548114816,0.6921812919840319,Right,Correct,0.0,0.0,-45,45,2008,441,-0.91
"{'cat': 'II', 'resp': 'reach'}",4,316,Left,35.91000232034932,58.54284393367836,1.795500116017466,0.9195888421114887,Right,Incorrect,0.0,0.0,-45,45,2006,627,-0.95
"{'cat': 'II', 'resp': 'reach'}",4,317,Right,75.42033756369645,54.357787148207564,3.771016878184822,0.8538501238510328,Right,Correct,0.0,0.0,-45,45,2008,498,-0.85
"{'cat': 'II', 'resp': 'reach'}",4,318,Right,49.22152737052076,30.457980826079947,2.461076368526038,0.4784328440319577,Right,Correct,0.0,0.0,-45,45,2007,480,-0.91
"{'cat': 'II', 'resp': 'reach'}",4,319,Right,69.17135627744199,38.55636910807313,3.4585678138720994,0.605642029695095,Right,Correct,0.0,0.0,-45,45,2001,469,-0.92
"{'cat': 'II', 'resp': 'reach'}",4,320,Left,14.069941439250254,40.12989783622103,0.7034970719625128,0.6303589611579047,Right,Incorrect,0.0,0.0,-45,45,2001,809,-0.91
"{'cat': 'II', 'resp': 'reach'}",4,321,Left,54.29788847274463,79.88426351985717,2.714894423637231,1.254819077057072,Right,Incorrect,0.0,0.0,-45,45,2011,692,-0.99
"{'cat': 'II', 'resp': 'reach'}",4,322,Left,29.273359796376944,61.168188107115085,1.4636679898188474,0.9608276519535565,Right,Incorrect,0.0,0.0,-45,45,2003,633,-0.89
"{'cat': 'II', 'resp': 'reach'}",4,323,Right,60.26662468589796,27.72422872052156,3.0133312342948977,0.4354911663741684,Right,Correct,0.0,0.0,-45,45,2001,387,-1.01
"{'cat': 'II', 'resp': 'reach'}",4,324,Right,59.86117041959823,43.6119370829182,2.993058520979911,0.6850547057425804,Right,Correct,0.0,0.0,-45,45,2009,513,-0.86
"{'cat': 'II', 'resp': 'reach'}",4,325,Left,46.84570932040162,60.72764882444546,2.342285466020081,0.9539076770832935,Left,Correct,0.0,0.0,-45,45,2009,589,-2.54
"{'cat': 'II', 'resp': 'reach'}",4,326,Right,49.996954964954305,28.885545466036504,2.4998477482477153,0.4537330871551712,Right,Correct,0.0,0.0,-45,45,2002,515,-0.98
"{'cat': 'II', 'resp': 'reach'}",4,327,Right,79.28650051251597,67.16196368398765,3.964325025625799,1.0549776585514004,Right,Correct,0.0,0.0,-45,45,2008,599,-0.89
"{'cat': 'II', 'resp': 'reach'}",4,328,Right,57.849884344623405,44.02225165154393,2.8924942172311705,0.6914999119148578,Right,Correct,0.0,0.0,-45,45,2008,399,-0.84
"{'cat': 'II', 'resp': 'reach'}",4,329,Left,28.408551740167837,58.898430192385675,1.4204275870083918,0.9251743780018505,Right,Incorrect,0.0,0.0,-45,45,2002,454,-0.79
"{'cat': 'II', 'resp': 'reach'}",4,330,Right,55.7397432171599,44.687731102578525,2.7869871608579952,0.701953238687284,Left,Incorrect,0.0,0.0,-45,45,2005,595,-2.4
"{'cat': 'II', 'resp': 'reach'}",4,331,Right,64.694958920095,51.99110906411799,3.2347479460047506,0.8166744314390939,Right,Correct,0.0,0.0,-45,45,2013,411,-0.88
"{'cat': 'II', 'resp': 'reach'}",4,332,Right,76.15446748890054,51.078852390519906,3.8077233744450267,0.8023447371192739,Right,Correct,0.0,0.0,-45,45,2010,406,-0.83
"{'cat': 'II', 'resp': 'reach'}",4,333,Left,15.859919204492908,31.563779001165724,0.7929959602246455,0.49580268114797005,Right,Incorrect,0.0,0.0,-45,45,2009,630,-0.78
"{'cat': 'II', 'resp': 'reach'}",4,334,Right,55.668476777153664,35.81818434471121,2.783423838857683,0.5626307240113485,Right,Correct,0.0,0.0,-45,45,2002,594,-0.89
"{'cat': 'II', 'resp': 'reach'}",4,335,Right,55.859585584549485,24.725462887486426,2.7929792792274744,0.38838666281967216,Right,Correct,0.0,0.0,-45,45,2008,465,-0.85
"{'cat': 'II', 'resp': 'reach'}",4,336,Left,57.99437914510261,81.94316741924143,2.8997189572551303,1.2871602638808368,Right,Incorrect,0.0,0.0,-45,45,2009,598,-0.84
"{'cat': 'II', 'resp': 'reach'}",4,337,Right,68.57940951419701,40.70801519773013,3.4289704757098503,0.6394400074370531,Right,Correct,0.0,0.0,-45,45,2007,567,-0.89
"{'cat': 'II', 'resp': 'reach'}",4,338,Left,46.74955711701321,60.05137190127037,2.3374778558506604,0.9432847440150977,Right,Incorrect,0.0,0.0,-45,45,2004,422,-0.92
"{'cat': 'II', 'resp': 'reach'}",4,339,Right,48.977341571415636,40.3446232913205,2.448867078570782,0.6337318607193008,Left,Incorrect,0.0,0.0,-45,45,2010,480,-2.59
"{'cat': 'II', 'resp': 'reach'}",4,340,Right,34.73165207010459,18.259220335404006,1.7365826035052294,0.2868151623299129,Right,Correct,0.0,0.0,-45,45,2009,502,-0.86
"{'cat': 'II', 'resp': 'reach'}",4,341,Left,46.19469831585025,63.586005952546884,2.3097349157925127,0.9988066458581907,Right,Incorrect,0.0,0.0,-45,45,2002,422,-0.89
"{'cat': 'II', 'resp': 'reach'}",4,342,Left,60.29369039473325,72.62424022047718,3.014684519736662,1.1407788977459574,Left,Correct,0.0,0.0,-45,45,2005,521,-2.39
"{'cat': 'II', 'resp': 'reach'}",4,343,Left,38.401192563558475,68.77121591491678,1.9200596281779239,1.0802557334837002,Right,Incorrect,0.0,0.0,-45,45,2003,501,-0.85
"{'cat': 'II', 'resp': 'reach'}",4,344,Right,64.33300550184995,33.336845468851664,3.2166502750924972,0.5236539440940129,Left,Incorrect,0.0,0.0,-45,45,2001,623,-2.63
"{'cat': 'II', 'resp': 'reach'}",4,345,Left,20.99355515720269,37.01701567508677,1.0496777578601344,0.5814619225133539,Right,Incorrect,0.0,0.0,-45,45,2011,551,-0.91
"{'cat': 'II', 'resp': 'reach'}",4,346,Right,63.9655171086211,42.92259121744954,3.198275855431055,0.6742264862088863,Right,Correct,0.0,0.0,-45,45,2009,413,-0.87
"{'cat': 'II', 'resp': 'reach'}",4,347,Right,74.3483977963206,55.85439066283959,3.7174198898160298,0.8773587168855561,Right,Correct,0.0,0.0,-45,45,2003,701,-0.83
"{'cat': 'II', 'resp': 'reach'}",4,348,Left,43.57439976525345,68.45491014051632,2.1787199882626727,1.0752872139979777,Right,Incorrect,0.0,0.0,-45,45,2004,398,-0.82
"{'cat': 'II', 'resp': 'reach'}",4,349,Left,41.84355305383936,66.51292957874927,2.0921776526919675,1.0447826546666699,Left,Correct,0.0,0.0,-45,45,2001,755,-2.46
"{'cat': 'II', 'resp': 'reach'}",4,350,Right,52.74279566304757,42.71399954716889,2.6371397831523784,0.6709499359141178,Right,Correct,0.0,0.0,-45,45,2005,472,-0.89
"{'cat': 'II', 'resp': 'reach'}",4,351,Left,35.303798920007054,48.72121883020497,1.7651899460003528,0.7653111157545631,Right,Incorrect,0.0,0.0,-45,45,2009,427,-0.84
"{'cat': 'II', 'resp': 'reach'}",4,352,Left,59.671908304911604,80.23441096879415,2.9835954152455804,1.2603191803233402,Left,Correct,0.0,0.0,-45,45,2009,651,-2.51
"{'cat': 'II', 'resp': 'reach'}",4,353,Left,10.14255205086242,33.01829753557336,0.5071276025431211,0.5186502048589962,Right,Incorrect,0.0,0.0,-45,45,2005,465,-0.9
"{'cat': 'II', 'resp': 'reach'}",4,354,Right,55.38750606268826,23.185118845509272,2.769375303134413,0.364190995188291,Right,Correct,0.0,0.0,-45,45,2012,378,-0.85
"{'cat': 'II', 'resp': 'reach'}",4,355,Left,63.60814241790622,76.39707352193442,3.180407120895311,1.2000424246613424,Right,Incorrect,0.0,0.0,-45,45,2008,368,-0.89
"{'cat': 'II', 'resp': 'reach'}",4,356,Right,47.50515097706879,38.599071845148906,2.375257548853439,0.6063128027205221,Left,Incorrect,0.0,0.0,-45,45,2007,517,-2.53
"{'cat': 'II', 'resp': 'reach'}",4,357,Left,35.67935135286054,51.394836477144146,1.7839675676430273,0.8073082035452239,Right,Incorrect,0.0,0.0,-45,45,2009,517,-0.83
"{'cat': 'II', 'resp': 'reach'}",4,358,Left,25.05345629978241,35.49692464502603,1.2526728149891206,0.5575843884492212,Right,Incorrect,0.0,0.0,-45,45,2002,432,-0.88
"{'cat': 'II', 'resp': 'reach'}",4,359,Right,70.68731273931074,54.170487107029075,3.5343656369655374,0.8509080216841157,Left,Incorrect,0.0,0.0,-45,45,2006,866,-2.47
"{'cat': 'II', 'resp': 'reach'}",4,360,Right,57.20903289794013,28.124362926558746,2.8604516448970063,0.4417764597848505,Right,Correct,0.0,0.0,-45,45,2009,482,-0.9
"{'cat': 'II', 'resp': 'reach'}",4,361,Right,72.02999924266014,53.7561620721053,3.601499962133007,0.8443998192545412,Right,Correct,0.0,0.0,-45,45,2012,610,-0.92
"{'cat': 'II', 'resp': 'reach'}",4,362,Right,40.54123138757805,30.515529187537645,2.0270615693789025,0.47933681157986585,Right,Correct,0.0,0.0,-45,45,2007,409,-0.88
"{'cat': 'II', 'resp': 'reach'}",4,363,Left,55.088777153050295,77.77296475322858,2.7544388576525147,1.221654873583204,Right,Incorrect,0.0,0.0,-45,45,2002,454,-0.88
"{'cat': 'II', 'resp': 'reach'}",4,364,Right,71.07369228974254,44.657382607207765,3.553684614487127,0.7014765256367627,Left,Incorrect,0.0,0.0,-45,45,2013,568,-2.49
"{'cat': 'II', 'resp': 'reach'}",4,365,Left,18.45062961153937,32.58475001353609,0.9225314805769684,0.5118400563079244,Right,Incorrect,0.0,0.0,-45,45,2006,494,-0.93
"{'cat': 'II', 'resp': 'reach'}",4,366,Left,61.52039961636942,74.73083426890693,3.076019980818471,1.173869199679172,Right,Incorrect,0.0,0.0,-45,45,2008,396,-0.9
"{'cat': 'II', 'resp': 'reach'}",4,367,Left,17.927406364152752,43.17879720521601,0.8963703182076376,0.6782509604537504,Left,Correct,0.0,0.0,-45,45,2006,499,-2.63
"{'cat': 'II', 'resp': 'reach'}",4,368,Left,59.93097630827134,82.41827454372898,2.996548815413567,1.294623229140628,Right,Incorrect,0.0,0.0,-45,45,2004,514,-0.89
"{'cat': 'II', 'resp': 'reach'}",4,369,Left,28.16628658520314,51.339414598488915,1.4083143292601568,0.8064376387110669,Left,Correct,0.0,0.0,-45,45,2010,504,-2.4
"{'cat': 'II', 'resp': 'reach'}",4,370,Right,41.69798363448271,28.496883249922497,2.0848991817241354,0.44762799534081277,Right,Correct,0.0,0.0,-45,45,2003,420,-1.03
"{'cat': 'II', 'resp': 'reach'}",4,371,Right,58.88358670645364,51.998593572374524,2.9441793353226817,0.8167919978198662,Right,Correct,0.0,0.0,-45,45,2004,510,-0.78
"{'cat': 'II', 'resp': 'reach'}",4,372,Left,53.645778005079706,62.03628070440525,2.6822889002539854,0.9744636185849689,Right,Incorrect,0.0,0.0,-45,45,2011,445,-0.93
"{'cat': 'II', 'resp': 'reach'}",4,373,Left,54.34985143888561,63.37894953544186,2.7174925719442804,0.995554211263912,Left,Correct,0.0,0.0,-45,45,2011,538,-2.44
"{'cat': 'II', 'resp': 'reach'}",4,374,Left,34.9011380786244,49.81782892171323,1.74505690393122,0.782536626791237,Left,Correct,0.0,0.0,-45,45,2005,684,-2.45
"{'cat': 'II', 'resp': 'reach'}",4,375,Left,30.943987870471986,40.984527518420535,1.5471993935235993,0.6437834528135933,Right,Incorrect,0.0,0.0,-45,45,2004,571,-0.79
"{'cat': 'II', 'resp': 'reach'}",4,376,Right,46.780311960790996,16.89594645534481,2.3390155980395497,0.2654009062977888,Left,Incorrect,0.0,0.0,-45,45,2008,594,-2.42
"{'cat': 'II', 'resp': 'reach'}",4,377,Left,29.773688132833048,59.31093198647191,1.4886844066416522,0.93165394103132,Right,Incorrect,0.0,0.0,-45,45,2008,653,-0.73
"{'cat': 'II', 'resp': 'reach'}",4,378,Left,38.7133504037336,68.31371515685684,1.9356675201866802,1.0730693283810357,Left,Correct,0.0,0.0,-45,45,2006,559,-2.44
"{'cat': 'II', 'resp': 'reach'}",4,379,Left,39.866964651890584,49.42526619274279,1.993348232594529,0.7763702658642035,Right,Incorrect,0.0,0.0,-45,45,2002,421,-0.86
"{'cat': 'II', 'resp': 'reach'}",4,380,Right,75.07651113697685,44.81767645543449,3.753825556848842,0.7039944155167861,Left,Incorrect,0.0,0.0,-45,45,2003,541,-2.34
"{'cat': 'II', 'resp': 'reach'}",4,381,Right,63.28698798609549,39.350858354546645,3.1643493993047747,0.6181218375954813,Right,Correct,0.0,0.0,-45,45,2001,524,-0.82
"{'cat': 'II', 'resp': 'reach'}",4,382,Right,52.05524388397021,37.65442264313922,2.602762194198511,0.5914742877542568,Right,Correct,0.0,0.0,-45,45,2005,454,-0.85
"{'cat': 'II', 'resp': 'reach'}",4,383,Right,58.283615947885906,35.624204831297746,2.914180797394295,0.559583700939915,Right,Correct,0.0,0.0,-45,45,2003,566,-0.85
"{'cat': 'II', 'resp': 'reach'}",4,384,Right,63.39104983390578,46.440861731338565,3.169552491695289,0.7294913502077629,Right,Correct,0.0,0.0,-45,45,2007,439,-0.86
"{'cat': 'II', 'resp': 'reach'}",4,385,Right,81.14378384664201,61.9009544577699,4.057189192332101,0.9723379188736314,Right,Correct,0.0,0.0,-45,45,2002,518,-0.77
"{'cat': 'II', 'resp': 'reach'}",4,386,Right,65.2378409351042,54.6641974290646,3.26189204675521,0.858663205287657,Right,Correct,0.0,0.0,-45,45,2009,548,-0.77
"{'cat': 'II', 'resp': 'reach'}",4,387,Left,28.510945097455735,42.44343010484004,1.4255472548727868,0.6666998410525866,Right,Incorrect,0.0,0.0,-45,45,2012,581,-0.88
"{'cat': 'II', 'resp': 'reach'}",4,388,Left,27.703849188457284,47.287362303075426,1.3851924594228644,0.7427881500949034,Left,Correct,0.0,0.0,-45,45,2005,498,-2.46
"{'cat': 'II', 'resp': 'reach'}",4,389,Left,24.671921705998656,35.35411008725842,1.2335960852999328,0.5553410626216793,Right,Incorrect,0.0,0.0,-45,45,2007,450,-0.79
"{'cat': 'II', 'resp': 'reach'}",4,390,Left,47.13669747236263,55.7709741810788,2.3568348736181317,0.876048413854116,Left,Correct,0.0,0.0,-45,45,2003,525,-2.39
"{'cat': 'II', 'resp': 'reach'}",4,391,Left,17.322433468690384,40.48527290047022,0.8661216734345192,0.635941179613476,Right,Incorrect,0.0,0.0,-45,45,2009,476,-0.86
"{'cat': 'II', 'resp': 'reach'}",4,392,Right,62.28666835917348,41.5526997314683,3.114333417958674,0.652708281066017,Left,Incorrect,0.0,0.0,-45,45,2012,525,-2.52
"{'cat': 'II', 'resp': 'reach'}",4,393,Left,25.11581787183291,51.034677635144206,1.2557908935916455,0.8016508416844619,Right,Incorrect,0.0,0.0,-45,45,2012,549,-0.85
"{'cat': 'II', 'resp': 'reach'}",4,394,Left,28.54273707892495,49.85770983651335,1.4271368539462475,0.7831630747360095,Left,Correct,0.0,0.0,-45,45,2007,593,-2.46
"{'cat': 'II', 'resp': 'reach'}",4,395,Right,34.38377661908142,20.536842569573057,1.7191888309540706,0.3225919687225042,Right,Correct,0.0,0.0,-45,45,2007,523,-0.85
"{'cat': 'II', 'resp': 'reach'}",4,396,Right,40.054315991685314,17.615697877682344,2.0027157995842657,0.2767067352019208,Right,Correct,0.0,0.0,-45,45,2002,461,-0.82
"{'cat': 'II', 'resp': 'reach'}",4,397,Right,59.813873925490086,52.15351743160526,2.9906936962745045,0.8192255361099915,Right,Correct,0.0,0.0,-45,45,2001,532,-0.85
"{'cat': 'II', 'resp': 'reach'}",4,398,Right,50.22649358176552,26.16213467493717,2.511324679088276,0.410953850485047,Right,Correct,0.0,0.0,-45,45,2006,377,-0.81
"{'cat': 'II', 'resp': 'reach'}",4,399,Left,50.345498112276765,68.06249599183828,2.517274905613838,1.0691231869647193,Right,Incorrect,0.0,0.0,-45,45,2001,397,-0.8
