experiment,condition,subject,trial,cat,x,y,xt,yt,resp,rt,fb
1,new_learn,40,0,B,45.476583048830555,37.208880602341,2.2738291524415275,0.5844757297430713,B,1942,Correct
1,new_learn,40,1,A,40.36170249020774,55.96601271262433,2.018085124510387,0.8791120719434677,B,940,Incorrect
1,new_learn,40,2,A,30.62490508949901,43.724486561847684,1.5312452544749504,0.6868226288234315,B,1615,Incorrect
1,new_learn,40,3,A,17.91167926472228,46.4796843825639,0.895583963236114,0.7301011749871751,A,842,Correct
1,new_learn,40,4,B,43.19465943803826,28.150177605287134,2.1597329719019127,0.44218195581008984,B,623,Correct
1,new_learn,40,5,B,48.833213513058496,34.21153605260641,2.441660675652925,0.5373935516544532,A,703,Incorrect
1,new_learn,40,6,B,52.58495448573938,38.13848889688725,2.629247724286969,0.5990779826873843,B,771,Correct
1,new_learn,40,7,A,43.33182003740878,74.31899440985649,2.1665910018704393,1.1674000343009303,B,937,Incorrect
1,new_learn,40,8,B,36.033940806850154,11.684334052513147,1.8016970403425077,0.1835370901073218,B,891,Correct
1,new_learn,40,9,A,52.11798797897782,60.707452354819466,2.6058993989488908,0.953590431680266,A,891,Correct
1,new_learn,40,10,B,72.54727869840971,47.51839606541432,3.627363934920486,0.7464172199473789,A,1434,Incorrect
1,new_learn,40,11,B,82.70956959040399,58.69556149596157,4.1354784795201995,0.9219877239702039,B,1106,Correct
1,new_learn,40,12,A,33.979284658809846,57.999828605639344,1.6989642329404921,0.9110591772847185,A,815,Correct
1,new_learn,40,13,A,65.44200286617004,83.65196863520549,3.272100143308502,1.314002050613427,B,1961,Incorrect
1,new_learn,40,14,B,57.82000129195162,37.31320057444967,2.891000064597581,0.5861143840330676,A,763,Incorrect
1,new_learn,40,15,A,15.658799923444349,45.23745074892814,0.7829399961722174,0.7105882146998136,B,3296,Incorrect
1,new_learn,40,16,B,53.506221870268405,38.74464197343644,2.6753110935134203,0.6085994129485732,A,2192,Incorrect
1,new_learn,40,17,B,71.19575849932336,58.945789633160885,3.5597879249661677,0.925918298357938,B,1239,Correct
1,new_learn,40,18,B,34.397377171618615,23.537629411953343,1.7198688585809307,0.36972821821755836,B,1862,Correct
1,new_learn,40,19,A,44.64610929560002,77.09626302365358,2.232305464780001,1.2110252676716826,B,2871,Incorrect
1,new_learn,40,20,B,46.80871028987981,26.03877398133914,2.3404355144939903,0.40901610524130044,A,1487,Incorrect
1,new_learn,40,21,A,43.146555138513165,56.543775390600985,2.1573277569256586,0.8881875468667171,A,610,Correct
1,new_learn,40,22,B,56.02257357247409,42.40392075738881,2.801128678623704,0.6660792296740822,A,1099,Incorrect
1,new_learn,40,23,A,40.70919050922678,54.66409126328772,2.035459525461339,0.8586615376395333,B,1738,Incorrect
1,new_learn,40,24,B,69.63028264739886,38.3953970007497,3.4815141323699432,0.6031134857460942,B,502,Correct
1,new_learn,40,25,B,67.07524269818127,54.86684085848662,3.3537621349090636,0.8618463208335092,B,2413,Correct
1,new_learn,40,26,B,78.956293166103,61.73284855969922,3.94781465830515,0.9696973176016117,A,2657,Incorrect
1,new_learn,40,27,B,58.864370471451664,36.33428024713556,2.943218523572583,0.5707375394893691,B,422,Correct
1,new_learn,40,28,B,74.44101455994084,50.16752556817217,3.722050727997042,0.7880296488687389,B,565,Correct
1,new_learn,40,29,B,45.42095168748039,21.981871964093692,2.2710475843740197,0.34529043737274084,A,1320,Incorrect
1,new_learn,40,30,B,64.0266871178086,38.79469657027728,3.20133435589043,0.6093856687171413,B,399,Correct
1,new_learn,40,31,A,28.932689823901224,43.54720562606198,1.446634491195061,0.6840379063960021,A,1067,Correct
1,new_learn,40,32,A,41.135277946987316,51.40334526673716,2.0567638973493656,0.8074418592996057,A,824,Correct
1,new_learn,40,33,A,50.44154637295324,75.27942656435357,2.522077318647662,1.1824864673051276,A,565,Correct
1,new_learn,40,34,A,67.97782124673293,83.87693371862733,3.3988910623366464,1.317535793880388,A,671,Correct
1,new_learn,40,35,A,60.183704099069686,83.95470105833772,3.0091852049534844,1.3187573603960052,A,692,Correct
1,new_learn,40,36,B,75.1864923732864,57.59406718055842,3.75932461866432,0.9046854917239967,A,398,Incorrect
1,new_learn,40,37,B,40.206499059238446,19.22489931178618,2.010324952961922,0.3019840122195547,A,461,Incorrect
1,new_learn,40,38,B,71.49790723087894,60.3411553760929,3.5748953615439465,0.9478366521932685,B,324,Correct
1,new_learn,40,39,B,83.64542920891765,55.442570256689734,4.182271460445882,0.8708898570727622,B,378,Correct
1,new_learn,40,40,A,28.589729585111304,58.02865144294164,1.429486479255565,0.9115119253543409,B,728,Incorrect
1,new_learn,40,41,B,74.9267393702977,46.09770278780347,3.7463369685148846,0.7241010221276456,A,342,Incorrect
1,new_learn,40,42,B,70.79782715499161,57.120489011877666,3.5398913577495805,0.8972465432458567,B,628,Correct
1,new_learn,40,43,B,84.93762265926003,56.81383475832259,4.246881132963001,0.8924296294950533,B,344,Correct
1,new_learn,40,44,A,57.01644888328963,71.66868373913998,2.850822444164481,1.125769051636662,B,689,Incorrect
1,new_learn,40,45,A,43.08559940482979,52.85564461645806,2.1542799702414897,0.8302545241390875,A,320,Correct
1,new_learn,40,46,A,49.72384045587866,63.8213661106739,2.486192022793933,1.0025036745767886,A,354,Correct
1,new_learn,40,47,A,38.9200976603812,61.71347258159032,1.9460048830190602,0.9693929604491964,A,403,Correct
1,new_learn,40,48,A,14.22959370164795,37.948243024434085,0.7114796850823976,0.5960896075110111,A,944,Correct
1,new_learn,40,49,A,34.144749910558936,45.74110580170253,1.7072374955279468,0.7184996097685107,A,804,Correct
1,new_learn,40,50,A,43.61379517312902,54.57166973105721,2.1806897586564506,0.8572097836060892,A,429,Correct
1,new_learn,40,51,A,19.828803620769403,35.430640814405834,0.9914401810384702,0.5565432044725803,A,338,Correct
1,new_learn,40,52,A,60.40295000057762,69.59362048319792,3.020147500028881,1.0931740342336536,A,711,Correct
1,new_learn,40,53,A,18.337972080554568,37.856688802872185,0.9168986040277284,0.5946514771616912,A,666,Correct
1,new_learn,40,54,A,69.49440812061837,88.70947955314264,3.4747204060309183,1.3934452463396345,A,375,Correct
1,new_learn,40,55,B,78.2213526478254,56.852163200642586,3.9110676323912696,0.8930316912591335,A,811,Incorrect
1,new_learn,40,56,B,48.3261902084659,39.993254776714636,2.4163095104232952,0.6282125769983581,B,291,Correct
1,new_learn,40,57,B,56.1109834576997,23.983220534521006,2.8055491728849855,0.3767275472033753,B,1398,Correct
1,new_learn,40,58,B,53.25870540350844,46.14501437549028,2.662935270175422,0.7248441908091782,B,592,Correct
1,new_learn,40,59,B,74.65737612081577,62.62333020197109,3.7328688060407886,0.9836849705292009,B,484,Correct
1,new_learn,40,60,B,70.76923087835982,47.691002597690726,3.5384615439179914,0.7491285170161847,B,552,Correct
1,new_learn,40,61,A,53.537804893218336,71.48435695735907,2.6768902446609166,1.1228736533191483,B,615,Incorrect
1,new_learn,40,62,B,80.26641857813381,50.51898974732423,4.0133209289066905,0.7935504352848594,A,184,Incorrect
1,new_learn,40,63,A,60.975048829837085,73.02872217409336,3.0487524414918545,1.1471324854159086,B,236,Incorrect
1,new_learn,40,64,A,52.759158659419846,81.04225941391135,2.6379579329709926,1.2730088340253107,B,245,Incorrect
1,new_learn,40,65,B,48.64909616707229,30.5359944602764,2.432454808353614,0.47965827933231475,A,481,Incorrect
1,new_learn,40,66,A,44.52041616456408,55.02520492291836,2.2260208082282045,0.8643338977405662,B,2562,Incorrect
1,new_learn,40,67,A,30.081221691710553,50.718882514782194,1.5040610845855276,0.7966903435336178,B,3291,Incorrect
1,new_learn,40,68,A,62.57243318771509,71.71692406132605,3.1286216593857548,1.1265268088455949,A,787,Correct
1,new_learn,40,69,B,70.20848804455667,42.05793763747229,3.510424402227834,0.660644539535103,A,2034,Incorrect
1,new_learn,40,70,A,57.05645335250118,81.31564212663477,2.852822667625059,1.2773031196348623,B,344,Incorrect
1,new_learn,40,71,B,77.80631139099094,48.703728105805695,3.890315569549547,0.7650363720981695,A,1148,Incorrect
1,new_learn,40,72,B,80.4083325416584,58.748865333495075,4.02041662708292,0.922825018692221,A,2698,Incorrect
1,new_learn,40,73,B,75.39804134495074,62.40479340791276,3.769902067247537,0.9802522025954374,B,2164,Correct
1,new_learn,40,74,B,68.05264199645185,39.65693522360554,3.4026320998225925,0.6229296818118273,B,4077,Correct
1,new_learn,40,75,B,57.90905341209858,49.46688043374318,2.895452670604929,0.7770239408332611,A,1123,Incorrect
1,new_learn,40,76,A,31.93782179081515,53.886811615496455,1.5968910895407575,0.8464520574831038,B,589,Incorrect
1,new_learn,40,77,A,30.99228429580259,56.16353078996102,1.5496142147901295,0.8822146786470286,A,451,Correct
1,new_learn,40,78,A,30.18926231311594,56.306133240795454,1.509463115655797,0.8844546727066552,A,1281,Correct
1,new_learn,40,79,A,36.444532044774874,55.89972720864098,1.8222266022387437,0.8780708616816998,A,1209,Correct
1,new_learn,40,80,B,50.74476325579511,29.146078307133433,2.5372381627897553,0.4578255274532161,A,541,Incorrect
1,new_learn,40,81,A,20.042841989801758,33.273535466527015,1.0021420994900878,0.5226594729030035,B,746,Incorrect
1,new_learn,40,82,B,38.47001940610997,18.861407669269365,1.9235009703054984,0.29627429885069406,A,1311,Incorrect
1,new_learn,40,83,B,39.741260991555805,29.55914089008437,1.9870630495777903,0.46431389933357364,A,1062,Incorrect
1,new_learn,40,84,A,40.97188130753251,68.26599596641977,2.0485940653766255,1.072319757090474,B,439,Incorrect
1,new_learn,40,85,B,60.09163308298481,40.09169429488417,3.0045816541492405,0.6297588613338797,B,500,Correct
1,new_learn,40,86,A,53.02123484005689,75.09163587093974,2.6510617420028444,1.1795366579909203,B,1249,Incorrect
1,new_learn,40,87,B,53.13551567087615,21.70330796865769,2.6567757835438077,0.34091476436465906,B,451,Correct
1,new_learn,40,88,B,50.15271209706352,39.37651777537189,2.507635604853176,0.6185248948352812,A,1715,Incorrect
1,new_learn,40,89,A,44.048934944981916,69.9836973616024,2.2024467472490956,1.0993013475113074,B,2676,Incorrect
1,new_learn,40,90,B,79.44936247405093,50.7707016355651,3.9724681237025465,0.7975043163794531,A,634,Incorrect
1,new_learn,40,91,A,41.81845147897536,58.142184474465964,2.090922573948768,0.913295298043224,B,262,Incorrect
1,new_learn,40,92,B,80.34928245203469,52.465159898277236,4.0174641226017345,0.824120804529208,B,234,Correct
1,new_learn,40,93,B,77.09053236083375,48.41729809770323,3.8545266180416875,0.7605371400520577,B,88,Correct
1,new_learn,40,94,A,19.521641784548187,50.03253739599573,0.9760820892274095,0.7859092596185838,B,359,Incorrect
1,new_learn,40,95,A,38.3416967491099,69.55032194924424,1.917084837455495,1.0924939024527531,B,342,Incorrect
1,new_learn,40,96,A,53.2859818677354,63.93121354052663,2.66429909338677,1.0042291539699937,B,473,Incorrect
1,new_learn,40,97,A,65.9510478655145,85.32873258498826,3.297552393275725,1.3403405971456357,B,535,Incorrect
1,new_learn,40,98,B,62.762697272141935,47.709646036661724,3.138134863607097,0.7494213674707293,A,909,Incorrect
1,new_learn,40,99,B,78.69977626105283,54.37112602853785,3.9349888130526414,0.8540596504932966,A,359,Incorrect
1,new_learn,40,100,B,82.54363668908448,52.061048170284295,4.127181834454223,0.8177730323497474,B,1006,Correct
1,new_learn,40,101,A,33.990819997426826,56.960444223721154,1.6995409998713413,0.8947325655922677,A,2754,Correct
1,new_learn,40,102,A,12.705063245344178,37.36602308927869,0.6352531622672088,0.5869441181557227,A,1080,Correct
1,new_learn,40,103,B,71.40475841933174,41.30156120608852,3.570237920966587,0.6487634063341845,B,2907,Correct
1,new_learn,40,104,A,58.51738270777319,70.92492890286246,2.9258691353886594,1.1140861779880555,A,1355,Correct
1,new_learn,40,105,A,40.74089586826515,73.50119793324666,2.037044793413257,1.154554117285685,A,758,Correct
1,new_learn,40,106,B,48.06751104913327,39.55298554152487,2.4033755524566636,0.6212968440239892,B,2482,Correct
1,new_learn,40,107,B,75.64359132646359,57.38621593497041,3.7821795663231796,0.9014205719931028,B,756,Correct
1,new_learn,40,108,B,64.42514944615864,47.59269552205312,3.221257472307932,0.7475843130830896,B,806,Correct
1,new_learn,40,109,A,28.651768327513096,42.269162578916664,1.4325884163756546,0.6639624531565859,A,606,Correct
1,new_learn,40,110,B,54.452316607713975,32.92694820919073,2.7226158303856987,0.5172152929956261,B,1345,Correct
1,new_learn,40,111,B,61.55425230627445,52.45800365265813,3.0777126153137226,0.8240083944858866,B,1272,Correct
1,new_learn,40,112,A,50.85231785510554,79.47659913306305,2.542615892755277,1.2484154998436587,A,1784,Correct
1,new_learn,40,113,A,48.00296765342658,64.38736760685782,2.400148382671329,1.0113944052884498,A,839,Correct
1,new_learn,40,114,A,16.62149811334009,43.842224301694046,0.8310749056670045,0.6886720489161895,A,689,Correct
1,new_learn,40,115,B,60.93598955258444,40.87375757578174,3.046799477629222,0.6420434826234303,B,1623,Correct
1,new_learn,40,116,A,29.780414565206762,56.96843373459915,1.4890207282603383,0.8948580645356681,A,711,Correct
1,new_learn,40,117,A,34.55165198947999,62.33850999068589,1.7275825994739995,0.9792110251123636,A,1534,Correct
1,new_learn,40,118,A,28.635892011900996,49.81771899676689,1.4317946005950497,0.7825349000942178,A,1024,Correct
1,new_learn,40,119,B,82.1463524716745,60.92512930619604,4.107317623583725,0.9570096932367684,B,665,Correct
1,new_learn,40,120,A,13.305684814316358,39.40951803405961,0.6652842407158178,0.6190432616865806,A,636,Correct
1,new_learn,40,121,A,48.0572130164785,74.88972511720462,2.402860650823925,1.1763650512878452,A,1089,Correct
1,new_learn,40,122,A,24.199437500680013,56.383047637721646,1.2099718750340005,0.8856628412283483,A,1047,Correct
1,new_learn,40,123,B,58.96190469039746,47.52945598889511,2.9480952345198728,0.7465909488191613,B,822,Correct
1,new_learn,40,124,A,38.88479092993518,67.73408743359647,1.944239546496759,1.063964557394977,A,1815,Correct
1,new_learn,40,125,B,58.629442174165824,26.30726612788851,2.931472108708291,0.4132335700170307,B,774,Correct
1,new_learn,40,126,B,59.38412033528965,41.726264616740956,2.9692060167644825,0.6554346319084856,B,830,Correct
1,new_learn,40,127,B,82.6860799009423,56.33854122383738,4.134303995047116,0.8849637361138661,B,658,Correct
1,new_learn,40,128,B,47.156470475380594,16.753078779968792,2.3578235237690297,0.26315674610080503,A,1293,Incorrect
1,new_learn,40,129,A,50.69846660306789,81.15955747359283,2.5349233301533944,1.274851347638189,A,893,Correct
1,new_learn,40,130,A,18.056732268186288,38.66819198570996,0.9028366134093144,0.6073985393495305,A,594,Correct
1,new_learn,40,131,A,60.20838817397982,74.21661755317912,3.0104194086989913,1.165791902396754,B,2258,Incorrect
1,new_learn,40,132,B,54.72753511517755,44.373175458457546,2.7363767557588776,0.6970122101837057,A,741,Incorrect
1,new_learn,40,133,B,73.5644011984041,41.539882527816,3.678220059920205,0.6525069489018487,B,552,Correct
1,new_learn,40,134,B,55.02148787426451,36.3008951624724,2.751074393713225,0.5702131278057828,B,1049,Correct
1,new_learn,40,135,B,31.517507585464728,13.164106897319286,1.5758753792732363,0.20678130759844499,A,560,Incorrect
1,new_learn,40,136,B,73.02472385563571,61.547681690334834,3.651236192781786,0.9667887232191947,B,1926,Correct
1,new_learn,40,137,B,87.07070585197084,62.20017471479245,4.353535292598542,0.9770380596799678,B,670,Correct
1,new_learn,40,138,A,53.302148665719564,71.50916428968682,2.665107433285978,1.1232633259841285,A,1161,Correct
1,new_learn,40,139,B,49.50585431236165,24.05036718309887,2.475292715618082,0.3777822842928023,A,1700,Incorrect
1,new_learn,40,140,B,85.92032281137973,60.05090315976402,4.2960161405689865,0.9432773810407338,B,562,Correct
1,new_learn,40,141,A,41.17781484528554,73.6775956571254,2.0588907422642766,1.157324966252922,A,1713,Correct
1,new_learn,40,142,A,39.84753797852048,47.26405737619963,1.992376898926024,0.7424220771595761,B,1233,Incorrect
1,new_learn,40,143,B,50.58497629238057,36.254774845785285,2.529248814619028,0.5694886715653553,A,2032,Incorrect
1,new_learn,40,144,B,67.47156780474998,46.30497616340087,3.373578390237499,0.7273568646979534,B,969,Correct
1,new_learn,40,145,A,21.98761543087718,34.828692833016376,1.099380771543859,0.5470878276916986,A,678,Correct
1,new_learn,40,146,B,88.65784577822869,64.90278621095383,4.432892288911435,1.0194905817892075,B,793,Correct
1,new_learn,40,147,B,84.1199855019123,64.11140226543276,4.205999275095615,1.007059551842118,B,831,Correct
1,new_learn,40,148,A,22.29875741206266,53.637545482744216,1.114937870603133,0.8425365942258883,A,691,Correct
1,new_learn,40,149,B,71.07528954665361,46.364751283827594,3.55376447733268,0.7282958100939535,B,689,Correct
1,new_learn,40,150,B,63.31235154535771,49.54980730189666,3.165617577267885,0.778326553032142,B,639,Correct
1,new_learn,40,151,A,34.562943050633386,52.792484471155994,1.7281471525316692,0.8292624068966845,A,892,Correct
1,new_learn,40,152,A,18.662740788135782,41.45282136613818,0.933137039406789,0.6511393953721487,A,717,Correct
1,new_learn,40,153,B,46.018123927622185,32.908752489603344,2.300906196381109,0.5169294753007134,A,1159,Incorrect
1,new_learn,40,154,A,46.83075255773702,60.64715845882808,2.341537627886851,0.9526433373767519,B,710,Incorrect
1,new_learn,40,155,A,36.1896761401918,48.776762414902045,1.80948380700959,0.766183592342755,A,3335,Correct
1,new_learn,40,156,B,75.89416370584793,63.34536543252965,3.7947081852923965,0.9950266734089798,B,495,Correct
1,new_learn,40,157,A,21.733357996824182,42.49819371778421,1.0866678998412092,0.6675600658731339,A,687,Correct
1,new_learn,40,158,B,52.10575834626157,42.13553501445765,2.605287917313078,0.6618634362824783,B,1503,Correct
1,new_learn,40,159,A,55.42220781455924,82.26465510837517,2.7711103907279617,1.2922101806928474,A,3505,Correct
1,new_learn,40,160,B,85.48381610954253,64.17348764221799,4.274190805477127,1.008034786660137,B,533,Correct
1,new_learn,40,161,A,21.25192116062203,35.8552391454249,1.0625960580311016,0.5632127794598601,A,595,Correct
1,new_learn,40,162,A,38.662628483538484,69.33715378202145,1.933131424176924,1.0891454647121215,B,911,Incorrect
1,new_learn,40,163,A,28.01925641312022,58.271977251044305,1.4009628206560112,0.9153340782101618,A,1539,Correct
1,new_learn,40,164,A,57.64053808665868,72.78137936480873,2.882026904332934,1.1432472336530743,B,1856,Incorrect
1,new_learn,40,165,A,47.916215130614475,66.27530469847191,2.395810756530724,1.0410500517757224,A,6347,Correct
1,new_learn,40,166,A,50.687141972420356,57.846925368011846,2.534357098621018,0.9086573788445153,B,1503,Incorrect
1,new_learn,40,167,B,33.899072838495115,16.934287526657144,1.6949536419247557,0.26600316643761673,A,643,Incorrect
1,new_learn,40,168,A,48.53371858118534,56.50750161903063,2.426685929059267,0.8876177597952998,B,549,Incorrect
1,new_learn,40,169,B,43.51228407761158,20.405602404214125,2.175614203880579,0.3205304530257666,A,2100,Incorrect
1,new_learn,40,170,B,86.17584761105655,66.58208992324941,4.308792380552828,1.0458690228176766,B,733,Correct
1,new_learn,40,171,B,63.21289265231235,33.249947596173115,3.1606446326156172,0.5222889555019153,B,2312,Correct
1,new_learn,40,172,B,58.98029688813533,45.9685011561308,2.9490148444067668,0.7220715276431722,B,632,Correct
1,new_learn,40,173,B,83.56481619616243,56.459807448091645,4.178240809808122,0.8868685815100951,B,544,Correct
1,new_learn,40,174,A,48.839809766647875,74.27654947613077,2.4419904883323937,1.166733310841056,B,697,Incorrect
1,new_learn,40,175,A,27.534701387664363,40.583698206643454,1.3767350693832183,0.6374872407074816,A,673,Correct
1,new_learn,40,176,A,44.5245417170388,73.99894788348499,2.22622708585194,1.162372755220652,A,740,Correct
1,new_learn,40,177,B,49.296910141215996,30.298473315119196,2.4648455070607995,0.47592730590882426,A,942,Incorrect
1,new_learn,40,178,A,55.06794020411482,81.18623086875782,2.7533970102057412,1.2752703323496721,B,559,Incorrect
1,new_learn,40,179,A,64.99301662380816,84.4403734717159,3.249650831190408,1.3263862848256056,B,730,Incorrect
1,new_learn,40,180,B,57.934189351004136,38.51069263240112,2.896709467550207,0.6049245452930295,B,744,Correct
1,new_learn,40,181,B,45.79534089216574,30.402566621024604,2.289767044608287,0.47756239973442577,A,545,Incorrect
1,new_learn,40,182,A,30.546454295803784,47.841558768379535,1.527322714790189,0.7514934478151274,B,408,Incorrect
1,new_learn,40,183,A,47.903067866141974,77.28412922765209,2.395153393307099,1.2139762631033801,B,916,Incorrect
1,new_learn,40,184,B,32.11599398101181,15.424842379292063,1.6057996990505905,0.24229285750782223,A,528,Incorrect
1,new_learn,40,185,A,20.68851873199786,40.87595446648244,1.034425936599893,0.6420779913018606,A,661,Correct
1,new_learn,40,186,A,34.15987125356575,56.20925111544371,1.7079935626782872,0.8829328518403092,A,581,Correct
1,new_learn,40,187,A,63.70504551922096,85.61232121423929,3.185252275961048,1.3447951969171188,A,1054,Correct
1,new_learn,40,188,B,66.37246483582751,38.0462846187015,3.3186232417913755,0.5976296412724948,B,1177,Correct
1,new_learn,40,189,B,49.62741099053926,21.008583199283745,2.481370549526963,0.33000205320599885,B,656,Correct
1,new_learn,40,190,A,18.332201239106624,38.153091283843416,0.9166100619553312,0.5993073564453162,A,591,Correct
1,new_learn,40,191,B,65.77947949913737,38.81901944768428,3.2889739749568685,0.6097677315820212,B,1601,Correct
1,new_learn,40,192,B,64.72114510345698,55.1310946515987,3.236057255172849,0.86599720970913,B,1315,Correct
1,new_learn,40,193,A,34.30628519559133,44.27225796554429,1.7153142597795665,0.6954270019119307,A,614,Correct
1,new_learn,40,194,A,38.677259858175454,64.1032178608288,1.9338629929087727,1.006930991515229,A,847,Correct
1,new_learn,40,195,A,29.235738742953536,55.32302062051723,1.4617869371476768,0.8690119757790679,A,773,Correct
1,new_learn,40,196,A,49.43292604432264,74.20005907703879,2.471646302216132,1.1655318024617685,A,770,Correct
1,new_learn,40,197,A,32.51652342042477,61.451923374939824,1.6258261710212383,0.9652845551183691,A,742,Correct
1,new_learn,40,198,A,47.35486944234983,67.51310022710594,2.3677434721174917,1.060493298472737,A,608,Correct
1,new_learn,40,199,A,46.56115928550995,61.93140146510051,2.3280579642754975,0.9728161793463995,A,771,Correct
1,new_learn,40,200,B,88.23824001238481,66.72712311548419,4.411912000619241,1.0481471988739341,B,629,Correct
1,new_learn,40,201,A,40.98769109862659,59.79076410542771,2.0493845549313296,0.9391911263306599,A,952,Correct
1,new_learn,40,202,A,33.79788841831625,42.377154420140876,1.6898944209158122,0.6656587850317739,A,807,Correct
1,new_learn,40,203,A,21.11523973749954,36.5933894472974,1.055761986874977,0.5748076172878988,A,1948,Correct
1,new_learn,40,204,B,57.08957600153219,46.462274650857154,2.8544788000766097,0.7298277035610206,B,1258,Correct
1,new_learn,40,205,A,37.64357202407837,61.37318268391367,1.8821786012039183,0.9640476992360374,A,799,Correct
1,new_learn,40,206,A,46.290607803404114,55.68388436265465,2.3145303901702055,0.874680410185297,A,784,Correct
1,new_learn,40,207,A,14.260005431125403,33.906353865348336,0.7130002715562702,0.532599761066971,A,538,Correct
1,new_learn,40,208,B,82.5641130780832,58.716961347949606,4.12820565390416,0.9223238720591715,B,1167,Correct
1,new_learn,40,209,B,43.80958791547508,21.223844361611373,2.190479395773754,0.3333833676368572,A,1056,Incorrect
1,new_learn,40,210,B,54.30002668234039,35.310654813304666,2.7150013341170194,0.554658468774615,A,695,Incorrect
1,new_learn,40,211,B,71.5546206026957,54.899371588440275,3.5777310301347853,0.8623573123447008,B,628,Correct
1,new_learn,40,212,A,37.106923614586734,59.16776558587676,1.8553461807293365,0.9294050884695669,A,820,Correct
1,new_learn,40,213,A,33.20604629075817,54.87925074782181,1.6603023145379083,0.8620412549193459,A,676,Correct
1,new_learn,40,214,A,19.850459774478114,47.602649081926856,0.9925229887239057,0.7477406632359717,A,561,Correct
1,new_learn,40,215,B,40.385715302712015,21.226744788342824,2.0192857651356007,0.3334289274334162,A,505,Incorrect
1,new_learn,40,216,A,53.9811887738923,68.98589934700018,2.699059438694615,1.0836279729491034,B,1737,Incorrect
1,new_learn,40,217,B,44.67205764097598,33.14013357202073,2.233602882048799,0.520564000844224,B,899,Correct
1,new_learn,40,218,B,76.61172405418878,49.020312027235946,3.8305862027094393,0.770009260707219,B,536,Correct
1,new_learn,40,219,B,76.3428976994907,51.39533117251794,3.8171448849745353,0.8073159742019843,B,533,Correct
1,new_learn,40,220,B,62.571878490101476,40.10519146946046,3.128593924505074,0.6299708744563451,B,527,Correct
1,new_learn,40,221,A,48.08057581702865,72.91238776027845,2.4040287908514326,1.1453051087169057,B,401,Incorrect
1,new_learn,40,222,B,49.651462575418535,25.147956517740955,2.4825731287709267,0.3950231772446527,B,368,Correct
1,new_learn,40,223,B,69.0203240335916,39.81290325478879,3.4510162016795802,0.6253796219166281,B,883,Correct
1,new_learn,40,224,A,34.65264588421593,53.37209680092304,1.7326322942107963,0.8383669360823156,A,606,Correct
1,new_learn,40,225,A,38.49756374637185,70.83597412416943,1.9248781873185925,1.1126888795918368,B,997,Incorrect
1,new_learn,40,226,B,33.75526273685702,20.351631292589044,1.687763136842851,0.31968267678682943,A,605,Incorrect
1,new_learn,40,227,B,53.04656137123549,24.90952152349753,2.6523280685617743,0.3912778491132834,B,1146,Correct
1,new_learn,40,228,B,77.8588779443605,47.96114804984378,3.8929438972180255,0.7533719518556081,B,583,Correct
1,new_learn,40,229,A,34.45342802993564,61.893008622478604,1.7226714014967819,0.9722131059847424,A,2311,Correct
1,new_learn,40,230,A,30.221877317282363,47.05589940482848,1.511093865864118,0.7391523393913472,A,688,Correct
1,new_learn,40,231,B,58.31250126305979,32.62190941043162,2.9156250631529894,0.5124237547494186,B,553,Correct
1,new_learn,40,232,B,77.7216787712713,60.46668020521394,3.886083938563565,0.9498083915983174,B,474,Correct
1,new_learn,40,233,B,40.09239996012107,14.862528450553771,2.0046199980060537,0.2334600509701451,A,810,Incorrect
1,new_learn,40,234,B,48.29596584237381,33.46120233975827,2.414798292118691,0.525607337254331,B,247,Correct
1,new_learn,40,235,A,26.463983899446877,48.20105826981128,1.3231991949723438,0.7571404527784632,B,478,Incorrect
1,new_learn,40,236,A,52.852122168764986,79.10258412475524,2.6426061084382493,1.2425404858314981,B,713,Incorrect
1,new_learn,40,237,B,68.71606761953275,39.3433617597464,3.4358033809766373,0.6180040813597244,B,672,Correct
1,new_learn,40,238,B,60.274470669348844,46.824938837988185,3.013723533467442,0.7355244192910754,B,596,Correct
1,new_learn,40,239,A,13.760082677253557,34.87484426739573,0.6880041338626779,0.5478127727276927,A,571,Correct
1,new_learn,40,240,A,31.266090197142336,42.118387510727665,1.5633045098571168,0.6615940839237506,A,620,Correct
1,new_learn,40,241,A,17.145380635089285,31.061767337205406,0.8572690317544642,0.4879171003703995,A,515,Correct
1,new_learn,40,242,B,50.93821631806882,40.97010434315627,2.546910815903441,0.6435568941063351,A,1815,Incorrect
1,new_learn,40,243,A,40.705865730778186,64.59817358903949,2.0352932865389093,1.0147057379132234,A,1707,Correct
1,new_learn,40,244,B,39.79309407906508,24.347205914687862,1.9896547039532537,0.38244501618510673,A,2312,Incorrect
1,new_learn,40,245,B,71.80052068789425,47.22340133974578,3.590026034394713,0.7417834536323387,B,544,Correct
1,new_learn,40,246,A,48.87747994720488,63.06925682860961,2.443873997360244,0.9906895696006391,B,1745,Incorrect
1,new_learn,40,247,A,69.23205771911498,87.00087664836654,3.4616028859557493,1.3666065746719007,B,638,Incorrect
1,new_learn,40,248,A,51.515428201086394,79.47159723548839,2.5757714100543194,1.2483369302202862,B,487,Incorrect
1,new_learn,40,249,A,26.36064542170023,53.64904065626864,1.3180322710850114,0.8427171599893685,A,642,Correct
1,new_learn,40,250,A,54.54139663515977,63.110705027751635,2.727069831757989,0.9913406363902848,A,2315,Correct
1,new_learn,40,251,A,30.61844304745037,60.76728446939932,1.5309221523725185,0.9545302723383301,A,570,Correct
1,new_learn,40,252,A,47.74886444562298,66.43475344065162,2.387443222281149,1.0435546667610018,A,701,Correct
1,new_learn,40,253,A,28.676870130673944,44.68415765140253,1.4338435065336972,0.7018971070474717,A,483,Correct
1,new_learn,40,254,B,38.35907457982094,21.245567693022597,1.917953728991047,0.3337245969287222,A,666,Incorrect
1,new_learn,40,255,A,53.347756663289694,82.33078464174635,2.6673878331644847,1.2932489409739687,A,951,Correct
1,new_learn,40,256,A,39.397498877608584,66.91133907634195,1.9698749438804293,1.0510408564204576,A,477,Correct
1,new_learn,40,257,A,41.108428075083886,61.83459042763055,2.055421403754194,0.9712954751258894,A,1443,Correct
1,new_learn,40,258,A,20.982072394158514,35.576051247902114,1.0491036197079255,0.5588273062207163,A,657,Correct
1,new_learn,40,259,A,18.675923598511993,39.6591206368552,0.9337961799255996,0.6229640102028783,A,425,Correct
1,new_learn,40,260,B,65.23058405448906,50.379700672612834,3.2615292027244527,0.7913624876156662,B,673,Correct
1,new_learn,40,261,A,61.247840986473065,80.18081099605169,3.0623920493236536,1.2594772339203384,B,494,Incorrect
1,new_learn,40,262,B,82.42840239819003,53.30767489822345,4.1214201199095015,0.8373549992010592,B,624,Correct
1,new_learn,40,263,B,64.26798602731319,44.13967087201582,3.2133993013656594,0.6933443287169813,B,469,Correct
1,new_learn,40,264,A,45.13345674121604,54.07897857413439,2.256672837060802,0.849470609010702,A,659,Correct
1,new_learn,40,265,A,62.122111167165706,83.60851756326227,3.1061055583582853,1.3133195227713896,B,786,Incorrect
1,new_learn,40,266,B,85.15225855089032,57.8255911987264,4.257612927544517,0.9083222624970273,B,621,Correct
1,new_learn,40,267,B,32.92620378408331,16.41949610053621,1.6463101892041658,0.2579168416254541,A,844,Incorrect
1,new_learn,40,268,A,23.13313586114589,40.95631524420884,1.1566567930572946,0.6433402954465707,A,583,Correct
1,new_learn,40,269,A,62.82465346014014,88.0592438309149,3.141232673007007,1.3832313674993726,B,1138,Incorrect
1,new_learn,40,270,A,18.34823322831331,31.676112112915906,0.9174116614156653,0.49756720554111633,A,731,Correct
1,new_learn,40,271,B,52.34531161816737,35.78777853657083,2.6172655809083687,0.562153110693947,B,573,Correct
1,new_learn,40,272,B,62.661063934025044,47.54568806735201,3.1330531967012525,0.7468459217113248,B,6015,Correct
1,new_learn,40,273,A,52.692759780401374,60.19151434210302,2.634637989020069,0.9454860963279775,B,1546,Incorrect
1,new_learn,40,274,B,63.925195836494915,38.35189257543947,3.1962597918247457,0.6024301198313279,B,713,Correct
1,new_learn,40,275,B,59.776414022742884,32.85312448553844,2.988820701137144,0.5160556726561925,A,597,Incorrect
1,new_learn,40,276,A,27.677626411331318,53.34494688724264,1.3838813205665659,0.8379404662354959,A,557,Correct
1,new_learn,40,277,B,39.59164957676779,15.977150964480526,1.9795824788383896,0.2509685004765355,B,1062,Correct
1,new_learn,40,278,B,54.61440589175244,37.733209523681516,2.7307202945876217,0.5927118691798113,A,1853,Incorrect
1,new_learn,40,279,B,42.01974062816707,21.415621087876435,2.1009870314083536,0.3363957894086763,B,367,Correct
1,new_learn,40,280,A,15.004756085230696,41.49468745859675,0.7502378042615347,0.6517970264146603,A,712,Correct
1,new_learn,40,281,A,48.69637302102018,76.8233509974685,2.434818651051009,1.2067383755889856,B,607,Incorrect
1,new_learn,40,282,A,22.38960993089786,44.1961035512939,1.119480496544893,0.6942307711701934,A,411,Correct
1,new_learn,40,283,B,55.870517650644246,36.85520356605513,2.7935258825322125,0.5789201838483757,A,1325,Incorrect
1,new_learn,40,284,A,33.51471216210761,61.183735218691865,1.6757356081053802,0.9610718654111273,A,450,Correct
1,new_learn,40,285,B,66.61477516796131,36.297541698699206,3.3307387583980654,0.5701604517200131,B,672,Correct
1,new_learn,40,286,A,37.829233139996546,59.817993986251295,1.8914616569998273,0.9396188522984275,A,703,Correct
1,new_learn,40,287,B,67.94107650948885,47.61135704903769,3.3970538254744427,0.7478774476634873,B,1652,Correct
1,new_learn,40,288,A,53.31683114501831,72.56355697245235,2.665841557250916,1.1398256875150035,A,1315,Correct
1,new_learn,40,289,B,68.25538912187018,39.0292115554708,3.4127694560935087,0.6130694214903447,B,1770,Correct
1,new_learn,40,290,B,82.10764669737422,67.63064072160583,4.105382334868711,1.062339620242838,B,1300,Correct
1,new_learn,40,291,A,13.902031562331707,42.37885455462256,0.6951015781165854,0.665685490681763,A,1041,Correct
1,new_learn,40,292,A,12.427415231167352,38.32427460900048,0.6213707615583676,0.6019962978289688,A,449,Correct
1,new_learn,40,293,B,72.5429752430018,58.33485862326691,3.6271487621500906,0.9163218164952726,B,799,Correct
1,new_learn,40,294,B,36.02552857394514,12.296873536028198,1.801276428697257,0.19315883781454465,A,965,Incorrect
1,new_learn,40,295,A,58.12270006288976,71.29340511293644,2.906135003144488,1.1198741887610106,B,857,Incorrect
1,new_learn,40,296,B,61.77167944113928,47.6323237481984,3.088583972056964,0.7482067918037537,A,1578,Incorrect
1,new_learn,40,297,A,50.122791594197125,66.64447808958258,2.5061395797098562,1.0468490138427928,A,1449,Correct
1,new_learn,40,298,A,38.894598129946196,50.69450475519742,1.9447299064973098,0.7963074185815052,A,6807,Correct
1,new_learn,40,299,B,39.91687248646583,12.7699882954145,1.9958436243232913,0.2005905070765092,B,3715,Correct
1,new_learn,40,300,B,67.7112155260257,54.36281205539575,3.3855607763012845,0.8539290549085695,A,3878,Correct
1,new_learn,40,301,B,69.19746527083969,58.546175787193064,3.4598732635419847,0.9196411787441119,B,3817,Incorrect
1,new_learn,40,302,B,48.180003066667595,28.149636239637548,2.40900015333338,0.4421734520583517,B,1036,Correct
1,new_learn,40,303,A,28.845996498369573,49.18670712491363,1.4422998249184786,0.772622988789507,A,869,Incorrect
1,new_learn,40,304,B,82.51055141411354,62.74449043051159,4.125527570705676,0.9855881509486515,A,2771,Incorrect
1,new_learn,40,305,B,62.95973983114523,48.312713915537536,3.147986991557261,0.7588943355601905,A,1788,Incorrect
1,new_learn,40,306,B,75.47660536462571,57.65597834540405,3.7738302682312854,0.9056579900272678,B,940,Incorrect
1,new_learn,40,307,A,59.554878069209465,76.7346246665635,2.977743903460473,1.2053446656422304,A,514,Correct
1,new_learn,40,308,A,31.844365156665255,47.40467772555328,1.5922182578332627,0.7446309364419494,B,2941,Correct
1,new_learn,40,309,A,21.572824256824436,45.082476323732394,1.0786412128412217,0.7081538821213673,B,1583,Correct
1,new_learn,40,310,B,61.5472722834948,48.891499562832436,3.0773636141747396,0.7679858792479148,B,1409,Correct
1,new_learn,40,311,B,58.27084946872736,37.378473710852624,2.913542473436368,0.5871396920620692,A,1559,Correct
1,new_learn,40,312,B,63.764079412457036,51.97400226060219,3.1882039706228515,0.8164057183978357,B,1306,Incorrect
1,new_learn,40,313,B,64.53268875893387,40.90268531155595,3.226634437946694,0.6424978784343965,A,1013,Correct
1,new_learn,40,314,A,32.08188023681291,44.673652272520215,1.6040940118406453,0.7017320889418724,B,1417,Incorrect
1,new_learn,40,315,A,60.40984326665279,75.73044220618942,3.02049216333264,1.1895710044403556,B,1428,Incorrect
1,new_learn,40,316,A,21.23341214452154,51.79971697958406,1.061670607226077,0.8136680516054587,B,703,Incorrect
1,new_learn,40,317,B,46.86248017097191,21.87194496852005,2.343124008548595,0.34356370816411413,A,1158,Incorrect
1,new_learn,40,318,B,61.95144486992117,43.43196589537047,3.0975722434960584,0.6822277249392915,B,679,Correct
1,new_learn,40,319,B,62.949747939353685,46.10993418082399,3.1474873969676844,0.7242931523999278,B,721,Correct
1,new_learn,40,320,A,21.478869323435937,43.921900680464624,1.0739434661717968,0.689923602547241,B,954,Correct
1,new_learn,40,321,A,29.792398062559126,47.10360470119286,1.4896199031279562,0.7399016924343256,B,506,Correct
1,new_learn,40,322,B,68.08183257861137,39.69575209008221,3.4040916289305687,0.6235394157246198,A,1823,Incorrect
1,new_learn,40,323,B,61.47347414665819,46.38741505310749,3.0736737073329095,0.7286518117493155,B,328,Incorrect
1,new_learn,40,324,A,36.39863686525244,68.27482929674498,1.8199318432626221,1.072458510718756,B,248,Incorrect
1,new_learn,40,325,A,35.34277128225944,56.81378081505881,1.767138564112972,0.8924287821562475,A,298,Correct
1,new_learn,40,326,B,51.7141547080382,39.08898519541052,2.58570773540191,0.6140083436309094,A,287,Correct
1,new_learn,40,327,A,65.86199678185793,77.88947418322775,3.293099839092896,1.2234849994300006,A,489,Correct
1,new_learn,40,328,B,71.51242794348794,39.233234785649486,3.5756213971743964,0.6162742108957998,A,326,Correct
1,new_learn,40,329,B,69.48413285703181,41.0682052215383,3.4742066428515903,0.6450978591005135,A,835,Correct
1,new_learn,40,330,B,53.29035602973526,44.32225096512432,2.6645178014867628,0.6962122901129884,A,357,Correct
1,new_learn,40,331,A,34.71702514958432,65.800989990809,1.735851257479216,1.0335995337703054,A,234,Incorrect
1,new_learn,40,332,A,31.242299669412418,51.273004320622256,1.562114983470621,0.805394468505723,B,312,Correct
1,new_learn,40,333,B,42.79834538060828,31.02027984181877,2.139917269030414,0.487265416316787,B,590,Incorrect
1,new_learn,40,334,B,73.45054863963543,55.791993685458536,3.6725274319817713,0.8763785874568234,A,585,Incorrect
1,new_learn,40,335,A,34.149030529515045,51.9183018432146,1.7074515264757522,0.815530778287502,B,251,Correct
1,new_learn,40,336,B,80.31168549985242,66.91634415268005,4.01558427499262,1.0511194759757299,B,292,Incorrect
1,new_learn,40,337,A,35.548883880814046,45.0829474486962,1.7774441940407024,0.7081612825349934,A,464,Correct
1,new_learn,40,338,A,57.75919347995526,71.06046193877646,2.8879596739977624,1.116215125937786,B,329,Incorrect
1,new_learn,40,339,A,37.191215566180986,53.2986372668194,1.859560778309049,0.8372130364189349,A,315,Correct
1,new_learn,40,340,A,53.376333463479746,72.1623499617223,2.6688166731739873,1.1335235425276122,B,258,Incorrect
1,new_learn,40,341,A,43.85892745576454,53.20685093803914,2.1929463727882266,0.8357712601379548,A,317,Incorrect
1,new_learn,40,342,B,62.15523393280826,47.25848846950538,3.107761696640413,0.7423346009777804,B,1917,Correct
1,new_learn,40,343,B,61.50280358431184,42.26733738501231,3.0751401792155924,0.6639337830777795,B,722,Correct
1,new_learn,40,344,A,24.87364027117439,39.65721452657846,1.2436820135587197,0.6229340690926666,B,1087,Correct
1,new_learn,40,345,A,48.23570568417053,57.79903240310618,2.4117852842085266,0.907905077910984,B,969,Correct
1,new_learn,40,346,B,38.04156466206747,21.948479744078437,1.9020782331033734,0.344765913607306,B,365,Incorrect
1,new_learn,40,347,B,35.72997071895402,15.960236898321373,1.786498535947701,0.25070281494659585,A,810,Correct
1,new_learn,40,348,B,51.44938624074389,42.032749079626804,2.572469312037194,0.6602488785936935,B,3543,Correct
1,new_learn,40,349,B,31.96388199411538,13.82253454512885,1.5981940997057689,0.21712386490483965,B,685,Correct
1,new_learn,40,350,A,22.672026165929147,43.27163708504797,1.1336013082964573,0.6797092858759517,B,1097,Incorrect
1,new_learn,40,351,A,49.75603046502904,56.79463674867353,2.487801523251452,0.8921280678646685,A,1131,Correct
1,new_learn,40,352,A,50.3773002516338,77.42545871121666,2.5188650125816903,1.2161962614398907,A,425,Incorrect
1,new_learn,40,353,B,50.97167699479106,22.347696130926042,2.548583849739553,0.3510367899478715,B,540,Incorrect
1,new_learn,40,354,A,43.82344517653915,74.04012265835784,2.191172258826958,1.1630195270719208,A,661,Correct
1,new_learn,40,355,B,57.45200319774297,46.445957740273855,2.8726001598871482,0.7295713981289317,A,445,Correct
1,new_learn,40,356,B,79.818488557102,66.93409974782855,3.9909244278551,1.051398380212123,A,665,Incorrect
1,new_learn,40,357,B,63.875745265150606,39.915396436152555,3.19378726325753,0.6269895810447055,A,652,Correct
1,new_learn,40,358,B,65.69168908305952,43.740842781434964,3.2845844541529754,0.687079551719911,A,386,Incorrect
1,new_learn,40,359,B,46.84800549890896,33.99425968441945,2.342400274945448,0.5339805824439791,B,862,Correct
1,new_learn,40,360,B,57.33634536101644,47.533807540713326,2.866817268050822,0.7466593028352804,B,337,Incorrect
1,new_learn,40,361,B,48.70491158156821,35.44511202378216,2.4352455790784107,0.5567705176979063,A,915,Incorrect
1,new_learn,40,362,B,74.83814240031288,59.92692813747315,3.741907120015644,0.9413299859444456,B,995,Correct
1,new_learn,40,363,A,45.461683801167766,63.60685401065007,2.2730841900583885,0.9991341263890834,B,1108,Correct
1,new_learn,40,364,A,47.02607572215188,58.499388144192835,2.3513037861075943,0.9189062401664703,B,400,Incorrect
1,new_learn,40,365,B,48.49212171926378,30.676900149761426,2.424606085963189,0.48187162072699063,A,657,Incorrect
1,new_learn,40,366,B,41.262099609900915,20.58570742876886,2.063104980495046,0.3233595361358454,B,385,Incorrect
1,new_learn,40,367,B,45.8423056297537,34.34082182092115,2.292115281487685,0.5394243677542097,B,715,Correct
1,new_learn,40,368,A,40.282641314827444,58.855666881224444,2.0141320657413724,0.9245026534809141,B,340,Incorrect
1,new_learn,40,369,B,45.11517125215882,22.57234914783632,2.255758562607941,0.3545656312855321,B,491,Incorrect
1,new_learn,40,370,A,38.250778868912434,70.90424928201604,1.912538943445622,1.1137613432634046,A,513,Incorrect
1,new_learn,40,371,B,57.32157912598546,27.856285509208917,2.8660789562992726,0.4375655095601526,B,347,Correct
1,new_learn,40,372,A,40.73622208288341,67.22732571006458,2.0368111041441703,1.0560043628561355,B,381,Incorrect
1,new_learn,40,373,A,59.72925963033592,76.52048943975534,2.9864629815167962,1.2019810373651536,B,413,Correct
1,new_learn,40,374,B,58.726716723535155,46.065658612454214,2.9363358361767578,0.7235976733983076,B,493,Incorrect
1,new_learn,40,375,A,47.61306920966463,65.36145024011874,2.3806534604832312,1.0266952595116594,B,301,Incorrect
1,new_learn,40,376,A,27.48859506991827,54.81714574612179,1.3744297534959133,0.8610657118338859,A,255,Correct
1,new_learn,40,377,B,39.97071062540182,17.275351440917664,1.998535531270091,0.27136058587484385,A,299,Incorrect
1,new_learn,40,378,A,26.212012800671324,52.468887393009105,1.3106006400335661,0.8241793558795376,B,531,Incorrect
1,new_learn,40,379,A,38.00100018244808,48.14605458199732,1.900050009122404,0.7562764568706798,B,393,Incorrect
1,new_learn,40,380,A,56.526720699472605,85.15302783226163,2.82633603497363,1.3375806333438016,B,519,Correct
1,new_learn,40,381,A,21.860998368987776,54.086613540728806,1.093049918449389,0.8495905387855192,B,381,Correct
1,new_learn,40,382,A,65.14074840842164,80.02270387767297,3.2570374204210824,1.2569936931124441,B,317,Incorrect
1,new_learn,40,383,A,52.99153496405832,77.70025004013195,2.6495767482029158,1.220512673540843,B,369,Incorrect
1,new_learn,40,384,B,54.621093188534346,44.85260161797813,2.7310546594267175,0.7045430186871487,B,957,Correct
1,new_learn,40,385,B,52.85384680585857,28.399915034474454,2.6426923402929288,0.4461048221743963,B,808,Correct
1,new_learn,40,386,A,59.91672414956716,72.04458106738876,2.9958362074783578,1.1316736330613142,A,683,Correct
1,new_learn,40,387,A,45.45475049177606,59.65511275603096,2.272737524588803,0.937060319917088,A,528,Incorrect
1,new_learn,40,388,A,54.999034868832425,74.95213573958533,2.7499517434416214,1.1773453950517312,B,1111,Correct
1,new_learn,40,389,B,56.64933538711763,36.804445715643446,2.8324667693558814,0.578122881398549,B,397,Correct
1,new_learn,40,390,A,65.94874493227425,81.85615619629712,3.297437246613713,1.2857934947869283,B,474,Correct
1,new_learn,40,391,B,55.19146581134197,29.072737256640014,2.7595732905670984,0.45667348892603277,B,453,Incorrect
1,new_learn,40,392,B,76.18543018308614,56.47289482675414,3.8092715091543075,0.8870741575733992,B,26,Incorrect
1,new_learn,40,393,A,21.828803257629325,40.59571460169537,1.091440162881466,0.6376759937995704,A,548,Incorrect
1,new_learn,40,394,B,72.79262949910009,41.94177049191795,3.6396314749550043,0.658819790279793,B,489,Incorrect
1,new_learn,40,395,B,57.90791023243404,37.54860790924811,2.895395511621702,0.5898121538010872,B,771,Incorrect
1,new_learn,40,396,B,45.226385901805656,19.978502193954267,2.2613192950902827,0.3138215786112714,A,900,Correct
1,new_learn,40,397,A,21.334042029813187,51.04792288436847,1.0667021014906595,0.8018588975727514,A,350,Incorrect
1,new_learn,40,398,A,24.323026305686266,50.45497588289955,1.2161513152843133,0.792544907853837,B,287,Incorrect
1,new_learn,40,399,B,76.4070824189422,64.272711794479,3.8203541209471097,1.009593395999146,B,416,Incorrect
1,new_learn,40,400,A,21.919489191386802,41.11732278599149,1.0959744595693401,0.6458693959987554,A,158,Correct
1,new_learn,40,401,A,41.36423985711785,48.711537998268795,2.068211992855893,0.7651590496021066,B,850,Incorrect
1,new_learn,40,402,A,39.39114373148254,65.14939128997673,1.9695571865741273,1.023364245312189,A,325,Correct
1,new_learn,40,403,A,47.58158910832925,75.64744724407663,2.3790794554164623,1.188267322624063,A,360,Correct
1,new_learn,40,404,B,82.0768850014282,55.14410624194204,4.103844250071409,0.8662015952923009,A,324,Correct
1,new_learn,40,405,A,50.381938171984594,63.40981197141965,2.5190969085992294,0.9960389972746104,A,322,Correct
1,new_learn,40,406,B,61.226713032106176,39.80670179091314,3.061335651605309,0.6252822095498619,A,224,Incorrect
1,new_learn,40,407,B,45.363435059206864,32.721424609436234,2.268171752960343,0.5139869358399857,B,270,Correct
1,new_learn,40,408,B,48.82816595860871,41.913898335021415,2.4414082979304355,0.6583819754630637,B,240,Incorrect
1,new_learn,40,409,A,43.78227415612696,53.107732346076915,2.189113707806348,0.8342143089362413,B,399,Incorrect
1,new_learn,40,410,A,66.5695147889428,80.24049328102531,3.32847573944714,1.2604147210604515,B,343,Incorrect
1,new_learn,40,411,B,69.58472782545878,52.93331105423346,3.4792363912729396,0.831474505690816,A,624,Correct
1,new_learn,40,412,B,70.24014161050145,47.723673611787945,3.5120070805250725,0.7496417121055504,A,507,Incorrect
1,new_learn,40,413,A,24.389937600130864,49.449040812379934,1.219496880006543,0.7767437167161733,B,641,Incorrect
1,new_learn,40,414,B,55.197732558559615,44.78206892946869,2.759886627927981,0.7034350938068529,A,364,Correct
1,new_learn,40,415,B,71.70057743283917,41.87567737686514,3.5850288716419585,0.6577816020562791,A,371,Incorrect
1,new_learn,40,416,B,56.160344277211145,40.60789860073181,2.8080172138605572,0.6378673796088914,B,357,Incorrect
1,new_learn,40,417,A,39.696659992616844,53.49522922720635,1.9848329996308423,0.8403010957114674,A,287,Incorrect
1,new_learn,40,418,B,75.9124818940124,45.5953518641821,3.79562409470062,0.7162101122717808,B,408,Correct
1,new_learn,40,419,B,85.3842000666837,68.35755323940063,4.2692100033341855,1.0737579353713709,B,322,Correct
1,new_learn,40,420,A,30.589234410707014,51.064578521363586,1.5294617205353507,0.8021205237068749,B,337,Incorrect
1,new_learn,40,421,A,46.050701428389395,69.8183903524242,2.3025350714194697,1.096704711083202,B,433,Correct
1,new_learn,40,422,B,72.98578190479236,52.7549003763647,3.649289095239618,0.8286720373162437,B,544,Correct
1,new_learn,40,423,B,70.6201388827557,54.69642616427823,3.5310069441377845,0.8591694530765652,B,578,Correct
1,new_learn,40,424,B,85.6706298973263,65.06944363357881,4.283531494866315,1.0221084304621317,B,284,Incorrect
1,new_learn,40,425,B,66.11884381687894,43.78993917060039,3.305942190843947,0.6878507559975107,A,589,Correct
1,new_learn,40,426,B,37.27320405218563,11.719287329739728,1.8636602026092817,0.18408613490209136,A,380,Incorrect
1,new_learn,40,427,A,14.560261008702032,37.758706953834206,0.7280130504351016,0.5931123818760768,B,349,Correct
1,new_learn,40,428,B,78.02619855736167,62.770101999732205,3.9013099278680836,0.9859904565372034,B,359,Correct
1,new_learn,40,429,B,65.98283489689592,51.29750967329578,3.2991417448447966,0.8057793976853868,B,319,Correct
1,new_learn,40,430,A,25.546101436677517,52.60941040170612,1.2773050718338759,0.8263866861384519,B,323,Incorrect
1,new_learn,40,431,A,55.195555912790105,62.79526934524696,2.7597777956395055,0.9863857842761009,A,404,Correct
1,new_learn,40,432,B,69.59293620321841,56.84614032794916,3.479646810160921,0.8929370841960977,A,401,Correct
1,new_learn,40,433,A,24.748795972603872,47.67131619262983,1.2374397986301937,0.7488192836886102,A,670,Correct
1,new_learn,40,434,A,67.90255924738119,81.04306379625396,3.3951279623690596,1.2730214692336017,A,795,Correct
1,new_learn,40,435,A,66.52868602357407,85.42408454771584,3.3264343011787036,1.341838382273687,A,573,Correct
1,new_learn,40,436,B,74.80173247768869,43.66106761983623,3.7400866238844346,0.6858264464118234,B,313,Incorrect
1,new_learn,40,437,B,72.18275723610674,39.30834040767006,3.609137861805337,0.6174539672477154,A,415,Correct
1,new_learn,40,438,B,87.00885432086149,60.96952972426425,4.350442716043074,0.9577071333728655,A,334,Incorrect
1,new_learn,40,439,B,39.440234911400935,13.001572859421533,1.9720117455700465,0.20422822890135564,B,416,Correct
1,new_learn,40,440,A,57.74367146969631,73.55772966847039,2.8871835734848155,1.1554421157060526,B,403,Correct
1,new_learn,40,441,B,51.35963472366144,42.215851828189,2.567981736183072,0.6631250498423691,B,357,Correct
1,new_learn,40,442,A,54.12828595830724,81.32701637133067,2.7064142979153623,1.2774817858527463,B,370,Incorrect
1,new_learn,40,443,B,58.68028659866648,29.5799844855118,2.9340143299333237,0.4646413097649197,A,531,Incorrect
1,new_learn,40,444,A,55.22039832353853,83.2881456112447,2.7610199161769264,1.3082871319170164,B,305,Correct
1,new_learn,40,445,A,36.92108377290174,46.709257544802576,1.846054188645087,0.7337073017869269,B,260,Correct
1,new_learn,40,446,B,68.94129125156537,44.35200282548339,3.4470645625782685,0.6966796312426619,B,486,Correct
1,new_learn,40,447,B,83.46446047792439,61.1745485262002,4.173223023896219,0.9609275611829143,B,783,Correct
1,new_learn,40,448,A,28.310309183023005,57.38659194883048,1.41551545915115,0.9014264784050051,B,798,Correct
1,new_learn,40,449,A,63.433723441364855,79.53589534256639,3.1716861720682425,1.2493469225244662,B,350,Incorrect
1,new_learn,40,450,B,71.78654249435037,50.26740481137584,3.589327124717519,0.7895985483522128,A,273,Incorrect
1,new_learn,40,451,A,11.826599561188615,32.78840410905604,0.5913299780594308,0.5150390473597193,B,272,Correct
1,new_learn,40,452,B,57.5352430028133,25.184045485312556,2.8767621501406655,0.39559006142164566,B,587,Incorrect
1,new_learn,40,453,B,39.99859261719655,28.68158177721117,1.9999296308598276,0.45052923302310754,A,421,Correct
1,new_learn,40,454,A,33.85062548851,44.4940508104351,1.6925312744254999,0.6989109157725695,A,496,Incorrect
1,new_learn,40,455,A,15.05493847204027,43.10526067617598,0.7527469236020136,0.6770958513567373,B,369,Incorrect
1,new_learn,40,456,A,46.61923943010219,77.0925328192827,2.3309619715051095,1.2109666737584428,B,472,Incorrect
1,new_learn,40,457,A,47.43943028488012,61.04489644369633,2.371971514244006,0.9588909910333304,A,417,Incorrect
1,new_learn,40,458,A,55.010117508273666,78.94263015642282,2.7505058754136833,1.24002793477237,B,351,Correct
1,new_learn,40,459,B,62.121042005441765,29.200431831268304,3.1060521002720884,0.4586793106138103,B,373,Correct
1,new_learn,40,460,B,80.54000542174762,49.719787998225506,4.027000271087381,0.780996603566336,B,343,Incorrect
1,new_learn,40,461,B,77.40291661703296,52.23296110554325,3.8701458308516474,0.8204734344220804,A,4483,Correct
1,new_learn,40,462,A,59.293336851972335,68.5050321380002,2.9646668425986165,1.0760745284933706,A,472,Correct
1,new_learn,40,463,B,58.15159425709959,31.16469228207957,2.9075797128549796,0.4895338416238386,A,588,Incorrect
1,new_learn,40,464,B,66.03211035401378,34.19727405995293,3.301605517700689,0.5371695247977246,B,293,Correct
1,new_learn,40,465,A,36.00483650345199,64.38668590511448,1.8002418251725996,1.0113836971425056,B,795,Incorrect
1,new_learn,40,466,A,44.02333848994133,65.45066738024056,2.2011669244970666,1.0280966790715642,B,625,Incorrect
1,new_learn,40,467,B,79.59200862316641,58.22921353500043,3.97960043115832,0.9146623473293436,B,442,Correct
1,new_learn,40,468,B,67.4721611337329,37.58667353495806,3.373608056686645,0.5904100872515107,B,162,Correct
1,new_learn,40,469,B,79.45014930528346,60.015794820662265,3.9725074652641728,0.9427259005397246,B,545,Correct
1,new_learn,40,470,A,46.84458479473228,67.35297350903355,2.342229239736614,1.0579780338670386,B,386,Incorrect
1,new_learn,40,471,B,79.45278672532804,66.9060734335498,3.9726393362664023,1.0509581438968965,B,503,Correct
1,new_learn,40,472,B,60.93407130624002,33.92402865572724,3.046703565312001,0.5328773960250116,B,349,Incorrect
1,new_learn,40,473,A,44.43871924561633,63.776631502582326,2.2219359622808166,1.00180098499608,A,117,Incorrect
1,new_learn,40,474,A,58.92554126030998,85.10156346164185,2.946277063015499,1.336772232900498,B,431,Correct
1,new_learn,40,475,A,16.64339537983875,46.598826402027775,0.8321697689919375,0.7319726534525828,B,1284,Correct
1,new_learn,40,476,A,36.92366391175902,66.06124559799937,1.8461831955879513,1.0376876192883295,B,738,Incorrect
1,new_learn,40,477,A,54.125085881731316,72.79284055301686,2.706254294086566,1.1434272655764546,B,1068,Incorrect
1,new_learn,40,478,A,23.31553484726444,55.369739608004444,1.1657767423632222,0.8697458359184327,B,738,Correct
1,new_learn,40,479,A,67.51079507864078,88.42391853022659,3.3755397539320393,1.388959664280911,B,231,Incorrect
1,new_learn,40,480,A,36.61596502048189,46.66320728334445,1.8307982510240945,0.7329839459714632,B,285,Correct
1,new_learn,40,481,B,85.38988578723068,60.9876604961119,4.269494289361535,0.9579919308710678,B,374,Correct
1,new_learn,40,482,B,46.5836958742952,19.844704876440662,2.32918479371476,0.3117198952624176,B,1114,Incorrect
1,new_learn,40,483,A,48.113778590796386,58.42344025811741,2.4056889295398194,0.9177132535617192,A,787,Incorrect
1,new_learn,40,484,B,72.86040173891871,46.69191979632587,3.6430200869459357,0.7334349610707058,B,241,Incorrect
1,new_learn,40,485,B,56.3712879169837,24.96783489746342,2.818564395849185,0.3921938334495697,B,763,Correct
1,new_learn,40,486,B,75.43574252878334,52.02131761659178,3.771787126439167,0.8171489462717302,B,666,Correct
1,new_learn,40,487,B,54.4992470319216,45.019038067493454,2.72496235159608,0.7071573963225833,B,408,Incorrect
1,new_learn,40,488,A,28.527369917776255,52.26342896783431,1.4263684958888125,0.8209520224838013,B,668,Correct
1,new_learn,40,489,B,56.873996040133285,49.05759258962875,2.843699802006664,0.7705948624118938,B,484,Correct
1,new_learn,40,490,B,45.5976238851862,27.097624888057062,2.27988119425931,0.4256484963902601,B,405,Correct
1,new_learn,40,491,A,39.58909592643114,61.15975468589564,1.979454796321557,0.9606951800828183,B,335,Correct
1,new_learn,40,492,A,56.759121212172445,71.52555726106971,2.8379560606086223,1.1235208261764633,B,398,Incorrect
1,new_learn,40,493,B,33.90213028609589,17.880984830667096,1.6951065143047943,0.2808738529148714,B,465,Correct
1,new_learn,40,494,B,50.04030829438126,30.818816166036676,2.5020154147190627,0.48410083229777584,B,568,Correct
1,new_learn,40,495,B,60.78930346254506,43.96245843719981,3.039465173127253,0.6905606823002677,B,960,Incorrect
1,new_learn,40,496,A,21.450607830750627,37.036927471271746,1.0725303915375313,0.5817746962764266,B,1417,Incorrect
1,new_learn,40,497,A,22.745339654305628,41.08002196330371,1.1372669827152813,0.6452834760461114,A,559,Incorrect
1,new_learn,40,498,B,49.28572838640896,23.633600478619734,2.464286419320448,0.3712357282075399,B,580,Correct
1,new_learn,40,499,A,49.99411467120949,75.83210028847104,2.4997057335604747,1.1911678458627253,B,738,Incorrect
1,new_learn,40,500,A,25.704666399444108,45.53554336407324,1.2852333199722055,0.7152706425489596,A,278,Correct
1,new_learn,40,501,B,55.0460544116298,43.96628221090009,2.7523027205814903,0.6906207459970967,B,273,Correct
1,new_learn,40,502,A,58.28484884808769,79.746431123082,2.9142424424043845,1.2526540108313944,B,384,Correct
1,new_learn,40,503,A,65.54605119454712,78.6935339943224,3.2773025597273557,1.2361151414079095,B,221,Correct
1,new_learn,40,504,B,76.96714831950729,64.72848607317749,3.848357415975364,1.0167526816274182,B,441,Incorrect
1,new_learn,40,505,B,40.20803873676243,16.195017387289614,2.0104019368381216,0.2543907382433401,A,308,Incorrect
1,new_learn,40,506,A,34.319293195974694,54.888714285178395,1.7159646597987348,0.8621899078165278,B,71,Incorrect
1,new_learn,40,507,B,51.6378074450986,27.819088478343062,2.58189037225493,0.43698121996563505,B,390,Incorrect
1,new_learn,40,508,A,44.434048472007234,57.52566972697831,2.221702423600362,0.903611107035539,A,316,Correct
1,new_learn,40,509,B,37.58380710174683,25.857068923444974,1.8791903550873414,0.40616188886629834,B,216,Correct
1,new_learn,40,510,A,47.18121815090449,62.62143484809094,2.3590609075452247,0.9836551983800719,A,197,Correct
1,new_learn,40,511,B,73.7878497267066,41.89241232532813,3.68939248633533,0.6580444740120268,B,112,Incorrect
1,new_learn,40,512,B,55.5874308990202,39.36451719283755,2.77937154495101,0.6183363901256379,A,25,Incorrect
1,new_learn,40,513,A,31.934592947937816,46.519082676536435,1.5967296473968906,0.7307200419417154,B,412,Incorrect
1,new_learn,40,514,B,64.03355134995363,56.48632057908934,3.2016775674976814,0.8872850487979251,B,865,Correct
1,new_learn,40,515,A,65.52988919485546,81.57001803651146,3.2764944597427728,1.2812988470834568,A,548,Correct
1,new_learn,40,516,B,73.50433246568909,48.363485189196815,3.6752166232844545,0.7596918488618972,B,493,Incorrect
1,new_learn,40,517,B,61.27234765632886,42.838441158157124,3.0636173828164432,0.6729046601685252,A,364,Incorrect
1,new_learn,40,518,A,51.37940524057033,60.75230378605315,2.5689702620285164,0.9542949563145997,B,1664,Correct
1,new_learn,40,519,A,42.339607200472365,63.618296743998954,2.1169803600236183,0.9993138684242128,B,659,Correct
1,new_learn,40,520,B,46.44450902577878,18.930466331401146,2.322225451288939,0.2973590697787938,A,1604,Incorrect
1,new_learn,40,521,B,83.9839275598787,69.23635462841122,4.1991963779939345,1.0875621153097716,B,639,Correct
1,new_learn,40,522,B,60.50152795460291,34.01906160113504,3.0250763977301456,0.5343701700407224,B,390,Correct
1,new_learn,40,523,B,73.74822171340055,54.57988123688369,3.6874110856700275,0.8573387696379859,B,382,Incorrect
1,new_learn,40,524,A,38.23031264254216,45.53861864272993,1.911515632127108,0.7153189489131379,A,276,Incorrect
1,new_learn,40,525,A,41.456772073003165,49.12102517865162,2.0728386036501583,0.771591259190256,B,317,Correct
1,new_learn,40,526,A,61.50178234701564,83.097477476234,3.0750891173507817,1.3052921238559003,B,619,Incorrect
1,new_learn,40,527,A,34.778315706653665,57.575468268083654,1.7389157853326833,0.9043933406900191,A,433,Correct
1,new_learn,40,528,B,45.242585684631344,24.856776654113006,2.262129284231567,0.39044933464241854,A,329,Correct
1,new_learn,40,529,A,34.48365563210733,50.55894847314757,1.7241827816053665,0.7941781054823264,A,1344,Incorrect
1,new_learn,40,530,A,54.536286143443306,67.27603826654203,2.726814307172165,1.0567695379039712,B,339,Correct
1,new_learn,40,531,B,57.66139662952083,39.64189709984538,2.8830698314760417,0.6226934635161838,B,384,Correct
1,new_learn,40,532,B,44.61785736032488,18.727412190508165,2.2308928680162436,0.29416950279224197,B,396,Correct
1,new_learn,40,533,A,38.56819920963458,71.33981080083107,1.9284099604817289,1.1206031276018835,B,316,Incorrect
1,new_learn,40,534,A,46.89580952387951,64.90892855402889,2.3447904761939755,1.0195870654886094,B,1134,Correct
1,new_learn,40,535,B,66.99601441343735,39.83108680225961,3.3498007206718676,0.6256652484123808,B,478,Incorrect
1,new_learn,40,536,B,78.0825535680022,47.562515926440625,3.9041276784001098,0.747110253103767,B,245,Incorrect
1,new_learn,40,537,A,59.54639374403605,75.56260206365097,2.9773196872018026,1.1869345776464741,B,223,Correct
1,new_learn,40,538,A,55.535739986661426,75.9802753711221,2.7767869993330714,1.1934953746182333,B,345,Correct
1,new_learn,40,539,A,19.988928204155005,48.653231166576056,0.9994464102077503,0.7642431680316065,B,303,Correct
1,new_learn,40,540,B,63.911819254515315,31.068063977378404,3.195590962725766,0.4880160077629484,B,400,Incorrect
1,new_learn,40,541,A,55.612908240194116,69.91276153417054,2.7806454120097057,1.0981870901396262,A,479,Correct
1,new_learn,40,542,A,62.459556990991814,72.73253874139552,3.122977849549591,1.1424800469345158,B,433,Correct
1,new_learn,40,543,B,64.89038508395653,31.85282463882374,3.2445192541978263,0.5003429994070632,B,489,Incorrect
1,new_learn,40,544,A,39.649329242044566,50.02949575871731,1.982466462102228,0.78586148169194,A,291,Correct
1,new_learn,40,545,A,20.950927005270056,47.16006866662114,1.047546350263503,0.7407886263292359,B,617,Correct
1,new_learn,40,546,A,34.61291449103175,50.1540992876279,1.7306457245515876,0.7878187493471245,B,451,Correct
1,new_learn,40,547,A,59.230315074042906,77.29438307864567,2.961515753702145,1.2141373302181422,B,449,Correct
1,new_learn,40,548,B,54.777888739324325,44.53315576545975,2.7388944369662163,0.6995251749696916,B,308,Incorrect
1,new_learn,40,549,B,72.04738428262446,38.946590083330534,3.6023692141312234,0.6117716064408215,B,441,Incorrect
1,new_learn,40,550,B,60.737528382080576,30.437904743691433,3.0368764191040287,0.4781174896672346,B,390,Incorrect
1,new_learn,40,551,A,51.34403315876812,71.22122672788984,2.567201657938406,1.1187404133399588,A,419,Correct
1,new_learn,40,552,B,36.14845375136677,19.70302562223857,1.8074226875683388,0.30949440274158074,B,696,Incorrect
1,new_learn,40,553,B,69.00426567501228,42.63698705630041,3.450213283750614,0.6697402265363824,B,567,Correct
1,new_learn,40,554,A,34.74441351123193,49.673854162097314,1.7372206755615967,0.7802750765556783,B,439,Incorrect
1,new_learn,40,555,A,10.596698602760192,34.177924987922,0.5298349301380096,0.5368655902849937,B,593,Incorrect
1,new_learn,40,556,B,44.980988010425584,21.073838467973147,2.249049400521279,0.3310270805696121,A,421,Correct
1,new_learn,40,557,A,67.60540186997086,81.45181139323904,3.3802700934985435,1.2794420614729058,A,350,Incorrect
1,new_learn,40,558,A,24.868982937349834,43.41303022373499,1.2434491468674918,0.6819302841047875,B,322,Correct
1,new_learn,40,559,A,20.743337614915735,41.587666692823845,1.0371668807457868,0.6532575408105816,B,420,Incorrect
1,new_learn,40,560,A,39.030922472053874,54.079560773630135,1.9515461236026936,0.8494797541789959,A,276,Incorrect
1,new_learn,40,561,B,60.872023861671856,30.60401825313075,3.043601193083593,0.4807267945718175,B,291,Correct
1,new_learn,40,562,A,60.02269733797803,69.47863830791836,3.001134866898901,1.0913678984478934,B,351,Incorrect
1,new_learn,40,563,A,29.325245477556077,41.38586114384073,1.4662622738778037,0.6500875866598865,B,244,Correct
1,new_learn,40,564,B,44.03377752677382,17.58849135845897,2.201688876338691,0.27627937619731135,B,104,Incorrect
1,new_learn,40,565,B,60.03934244497092,45.22124872505006,3.001967122248546,0.7103337139038703,B,285,Incorrect
1,new_learn,40,566,B,38.98841116350548,26.729898939169757,1.949420558175274,0.4198722706924666,B,281,Incorrect
1,new_learn,40,567,A,54.26786492435364,70.07252499341152,2.7133932462176817,1.100696648688944,B,934,Incorrect
1,new_learn,40,568,A,21.093726261177583,34.9970317505027,1.054686313058879,0.5497320892241401,A,446,Correct
1,new_learn,40,569,B,59.59097412719564,43.130972313194206,2.9795487063597825,0.6774997288065785,A,286,Incorrect
1,new_learn,40,570,B,77.45968079874375,65.27359087996838,3.8729840399371875,1.025315167909672,B,334,Correct
1,new_learn,40,571,A,40.89343953454997,64.70629891235758,2.0446719767274986,1.016404166520239,B,220,Incorrect
1,new_learn,40,572,A,31.115743211859687,58.23912317750574,1.5557871605929845,0.9148180076298155,A,263,Incorrect
1,new_learn,40,573,A,34.94415041008905,51.30222152234357,1.7472075205044524,0.8058534112371537,B,199,Incorrect
1,new_learn,40,574,A,30.691031836690925,41.780014618295965,1.534551591834546,0.6562789349585638,A,459,Correct
1,new_learn,40,575,B,73.83336003974782,50.043617718400846,3.691668001987391,0.7860833089159205,B,937,Incorrect
1,new_learn,40,576,B,57.086905702216576,48.30684758041328,2.8543452851108286,0.7588021873835413,A,462,Correct
1,new_learn,40,577,A,34.53131007995024,53.97355929709807,1.7265655039975119,0.8478146868792819,A,731,Correct
1,new_learn,40,578,B,76.50712002683734,63.41971472967242,3.8253560013418673,0.9961945494374963,B,643,Correct
1,new_learn,40,579,B,46.44417561170487,18.854372205812872,2.322208780585244,0.2961637860491465,B,317,Incorrect
1,new_learn,40,580,B,41.17776084108111,18.680205845858115,2.058888042054056,0.29342798726446484,A,355,Correct
1,new_learn,40,581,B,48.25289194461331,21.200621931197265,2.4126445972306656,0.33301859055291994,B,548,Correct
1,new_learn,40,582,A,50.40357414912139,77.49323191198775,2.5201787074560698,1.2172608403881544,A,935,Correct
1,new_learn,40,583,B,43.274593980940914,26.796024997202963,2.1637296990470456,0.4209109763831064,B,244,Incorrect
1,new_learn,40,584,A,64.81312218611069,79.28112236892778,3.240656109305535,1.2453449580128848,A,468,Incorrect
1,new_learn,40,585,A,63.08414086536145,75.43622126399575,3.1542070432680727,1.1849493926877157,B,330,Incorrect
1,new_learn,40,586,B,67.3943224872671,35.157427182002834,3.3697161243633555,0.5522515747704909,B,308,Correct
1,new_learn,40,587,B,66.2012188311198,56.244526929135816,3.3100609415559905,0.8834869630260319,B,493,Correct
1,new_learn,40,588,A,15.594540134047008,43.40946257148886,0.7797270067023504,0.6818742435543524,A,2213,Incorrect
1,new_learn,40,589,A,29.56902726291341,49.417435867577865,1.4784513631456704,0.7762472674041369,B,257,Correct
1,new_learn,40,590,A,25.51926416101059,35.820625048301004,1.2759632080505297,0.5626690624936848,B,267,Incorrect
1,new_learn,40,591,B,76.04811892065631,47.64170451343724,3.802405946032815,0.7483541445195507,B,238,Correct
1,new_learn,40,592,A,32.615257117786584,59.0942869622469,1.6307628558893292,0.9282508889486097,B,274,Correct
1,new_learn,40,593,B,42.68787299886715,21.175144103579566,2.134393649943357,0.332618385772554,B,322,Correct
1,new_learn,40,594,B,69.92925595543878,39.666772568824655,3.4964627977719385,0.6230842064691834,B,381,Correct
1,new_learn,40,595,B,83.99581229124817,54.31371544814404,4.199790614562408,0.8531578472052789,B,348,Correct
1,new_learn,40,596,B,80.68230712343708,64.43141675784008,4.034115356171855,1.0120863277340635,B,378,Correct
1,new_learn,40,597,B,62.96637078014742,34.653797269612426,3.148318539007371,0.5443405746060221,B,317,Correct
1,new_learn,40,598,B,58.86068903514748,28.039567180634066,2.943034451757374,0.4404444913225873,A,306,Incorrect
1,new_learn,40,599,B,73.17633433962402,48.31960077361521,3.658816716981201,0.759002514073906,B,344,Correct
1,new_learn,40,600,B,24.05036718309887,50.49414568763835,1.2025183591549435,0.7931601857078868,B,397,Correct
1,new_learn,40,601,B,20.351631292589044,66.24473726314298,1.0175815646294522,1.04056989962438,B,1109,Correct
1,new_learn,40,602,A,59.79076410542771,59.01230890137341,2.9895382052713853,0.9269631805796313,B,561,Incorrect
1,new_learn,40,603,B,23.633600478619734,50.71427161359104,1.1816800239309868,0.7966179156670747,B,328,Correct
1,new_learn,40,604,B,33.14013357202073,55.32794235902402,1.6570066786010365,0.8690892862667468,A,412,Incorrect
1,new_learn,40,605,A,69.91276153417054,44.387091759805884,3.495638076708527,0.697230806934111,B,672,Incorrect
1,new_learn,40,606,B,41.65926056467373,28.481435316161765,2.0829630282336864,0.4473853397647335,B,703,Correct
1,new_learn,40,607,B,47.241981124704914,39.79239351499007,2.362099056235246,0.6250574556772346,B,518,Correct
1,new_learn,40,608,B,22.57234914783632,54.88482874784118,1.128617457391816,0.8621288739387587,B,653,Correct
1,new_learn,40,609,B,42.05793763747229,29.791511955443326,2.1028968818736145,0.46796397549276625,B,196,Correct
1,new_learn,40,610,A,70.33481060094834,50.488564916512395,3.516740530047417,0.7930725231600334,B,203,Incorrect
1,new_learn,40,611,B,19.069013622117488,67.68496628365611,0.9534506811058745,1.0631929641760345,A,43,Incorrect
1,new_learn,40,612,B,53.178435180439024,38.893744462810226,2.658921759021951,0.6109415093748165,B,381,Correct
1,new_learn,40,613,B,21.200621931197265,51.74710805538669,1.0600310965598632,0.8128416725566001,A,674,Incorrect
1,new_learn,40,614,B,21.00362172710497,50.48151618998263,1.0501810863552485,0.7929618020226182,B,792,Correct
1,new_learn,40,615,A,72.78137936480873,42.35946191334132,3.6390689682404367,0.6653808717848486,A,311,Correct
1,new_learn,40,616,A,50.1540992876279,65.38708550896825,2.507704964381395,1.0270979373731115,B,293,Incorrect
1,new_learn,40,617,A,53.886811615496455,68.06217820918485,2.694340580774823,1.0691181952464721,A,226,Correct
1,new_learn,40,618,A,46.709257544802576,63.07891622709826,2.3354628772401287,0.9908412990772895,A,300,Correct
1,new_learn,40,619,A,71.48435695735907,46.462195106781664,3.5742178478679536,0.7298264540856045,A,362,Correct
1,new_learn,40,620,B,35.78777853657083,47.65468838183263,1.7893889268285417,0.7485580946473812,A,297,Incorrect
1,new_learn,40,621,B,40.29377033842377,43.60686799730409,2.0146885169211886,0.6849750807319519,B,248,Correct
1,new_learn,40,622,A,74.88972511720462,51.9427869835215,3.7444862558602314,0.8159153899720535,B,408,Incorrect
1,new_learn,40,623,A,40.59571460169537,78.17119674237068,2.0297857300847686,1.2279102870407703,B,701,Incorrect
1,new_learn,40,624,B,63.41971472967242,23.49287997316266,3.170985736483621,0.369025295676773,B,300,Correct
1,new_learn,40,625,A,64.90892855402889,53.10419047612049,3.2454464277014443,0.834158673373066,A,1505,Correct
1,new_learn,40,626,A,85.32873258498826,34.0489521344855,4.266436629249413,0.5348396894406507,B,394,Incorrect
1,new_learn,40,627,A,57.04077001050947,60.88006446610688,2.8520385005254734,0.9563018163839718,B,429,Incorrect
1,new_learn,40,628,A,41.82626808365833,68.3698619126634,2.0913134041829164,1.0739512795588597,A,750,Correct
1,new_learn,40,629,A,74.95213573958533,45.000965131167575,3.747606786979267,0.7068735073026324,A,150,Correct
1,new_learn,40,630,B,32.935373647949405,37.20811065783855,1.6467686823974703,0.5844636354831084,A,489,Incorrect
1,new_learn,40,631,B,12.934108942741275,69.22022948320966,0.6467054471370638,1.0873088221212552,B,253,Correct
1,new_learn,40,632,A,43.40946257148886,84.40545986595299,2.170473128574443,1.3258378631887302,B,363,Incorrect
1,new_learn,40,633,B,38.81901944768428,34.220520500862634,1.9409509723842142,0.5375346790376448,B,61,Correct
1,new_learn,40,634,A,71.71692406132605,37.42756681228491,3.5858462030663025,0.5879108446960772,B,281,Incorrect
1,new_learn,40,635,B,21.981871964093692,54.57904831251961,1.0990935982046848,0.85732568609267,A,459,Incorrect
1,new_learn,40,636,B,31.068063977378404,36.088180745484685,1.55340319886892,0.5668718175571765,B,81,Correct
1,new_learn,40,637,B,62.770101999732205,21.973801442638333,3.1385050999866104,0.34516366591816694,B,303,Correct
1,new_learn,40,638,B,60.05090315976402,14.079677188620266,3.0025451579882008,0.22116305210342607,B,401,Correct
1,new_learn,40,639,A,35.430640814405834,80.1711963792306,1.7715320407202915,1.2593262078724772,B,251,Incorrect
1,new_learn,40,640,B,65.06944363357881,14.329370102673707,3.2534721816789407,0.2250852192256447,B,334,Correct
1,new_learn,40,641,B,54.57988123688369,26.251778286599446,2.7289940618441846,0.4123619690442444,B,271,Correct
1,new_learn,40,642,A,64.38668590511448,63.99516349654801,3.219334295255724,1.0052336775301647,B,242,Incorrect
1,new_learn,40,643,B,43.22673222327385,28.1901480856302,2.1613366111636925,0.442809810647121,B,307,Correct
1,new_learn,40,644,B,58.92321657255193,26.654448268919523,2.946160828627596,0.4186870943356337,A,255,Incorrect
1,new_learn,40,645,A,81.31564212663477,42.94354664749882,4.0657821063317385,0.6745556533343644,A,331,Correct
1,new_learn,40,646,B,57.65597834540405,24.523394635374288,2.882798917270202,0.38521258213787607,B,567,Correct
1,new_learn,40,647,A,52.792484471155994,65.43705694936662,2.6396242235577994,1.0278828869233356,B,358,Incorrect
1,new_learn,40,648,A,54.87925074782181,66.79395370924183,2.7439625373910905,1.0491969713858542,B,270,Incorrect
1,new_learn,40,649,A,45.23745074892814,84.34120007655565,2.2618725374464073,1.3248284727772708,B,273,Incorrect
1,new_learn,40,650,A,58.42344025811741,51.886221409203614,2.9211720129058705,0.8150268600084377,B,417,Incorrect
1,new_learn,40,651,B,56.33854122383738,17.313920099057697,2.8169270611918695,0.2719664209402016,A,375,Incorrect
1,new_learn,40,652,A,71.29340511293644,41.87729993711024,3.5646702556468224,0.6578070891730091,A,486,Correct
1,new_learn,40,653,A,83.61806398112716,44.37480964324592,4.180903199056359,0.6970378798983344,A,185,Correct
1,new_learn,40,654,B,33.92402865572724,39.06592869375998,1.696201432786362,0.6136461729498953,A,199,Incorrect
1,new_learn,40,655,B,57.18252199802285,22.427841119170864,2.8591260999011423,0.3522957044793313,A,1036,Incorrect
1,new_learn,40,656,B,60.06525564762264,16.453768083539813,3.003262782381132,0.2584551846755944,B,289,Correct
1,new_learn,40,657,B,56.244526929135816,33.7987811688802,2.8122263464567907,0.5309100131022153,B,204,Correct
1,new_learn,40,658,A,48.14605458199732,61.99899981755192,2.407302729099866,0.9738780117836802,A,250,Correct
1,new_learn,40,659,A,81.7703644691393,33.042152236716305,4.088518223456965,0.5190249136283175,B,287,Incorrect
1,new_learn,40,660,B,56.93214542783521,19.86230798628189,2.8466072713917607,0.31199640426520536,B,268,Correct
1,new_learn,40,661,B,64.11140226543276,15.880014498087704,3.2055701132716377,0.24944268443045867,A,1095,Incorrect
1,new_learn,40,662,B,56.48632057908934,35.966448650046374,2.824316028954467,0.5649596542735011,A,382,Incorrect
1,new_learn,40,663,A,40.235623923091495,86.78064556946643,2.011781196154575,1.3631471929740768,A,302,Correct
1,new_learn,40,664,A,66.66430273983953,62.203237184124866,3.333215136991976,0.9770861648357507,B,400,Incorrect
1,new_learn,40,665,A,48.653231166576056,80.011071795845,2.4326615583288027,1.2568109767983606,B,229,Incorrect
1,new_learn,40,666,A,85.10156346164185,41.07445873969002,4.255078173082092,0.6451960891339362,B,388,Incorrect
1,new_learn,40,667,B,21.223844361611373,56.19041208452492,1.0611922180805686,0.8826369290346332,A,666,Incorrect
1,new_learn,40,668,A,45.865183509882364,65.15148880025669,2.2932591754941183,1.0233971929266206,B,179,Incorrect
1,new_learn,40,669,A,42.37885455462256,86.0979684376683,2.1189427277311284,1.352423725663923,B,277,Incorrect
1,new_learn,40,670,B,21.073838467973147,55.019011989574416,1.0536919233986572,0.8642366193710785,A,484,Incorrect
1,new_learn,40,671,B,55.49797572450832,28.873469116545806,2.7748987862254157,0.4535433923009604,A,286,Incorrect
1,new_learn,40,672,A,76.27315456197319,38.36119985672369,3.813657728098659,0.6025763182638648,B,134,Incorrect
1,new_learn,40,673,A,63.06925682860961,51.12252005279512,3.15346284143048,0.8030306671542901,A,297,Correct
1,new_learn,40,674,B,54.86684085848662,32.92475730181873,2.743342042924331,0.5171808783031031,107,274,Incorrect
1,new_learn,40,675,A,72.56355697245235,46.68316885498169,3.6281778486226175,0.7332975016055114,107,278,Correct
1,new_learn,40,676,A,56.543775390600985,56.853444861486835,2.8271887695300495,0.8930518235405971,107,1617,Correct
1,new_learn,40,677,B,21.226744788342824,59.614284697287985,1.0613372394171412,0.9364189942700517,107,339,Incorrect
1,new_learn,40,678,A,58.499388144192835,52.97392427784812,2.924969407209642,0.8321124567155482,B,438,Incorrect
1,new_learn,40,679,A,78.39998435156197,49.010047305966886,3.9199992175780984,0.7698480228425689,A,562,Correct
1,new_learn,40,680,A,76.43663555995408,54.088899053470115,3.821831777997704,0.8496264395357079,A,471,Correct
1,new_learn,40,681,A,40.583698206643454,72.46529861233563,2.0291849103321726,1.1382822488035214,A,290,Correct
1,new_learn,40,682,A,44.27225796554429,65.69371480440867,2.2136128982772147,1.0319144590827667,B,358,Incorrect
1,new_learn,40,683,A,69.59362048319792,39.59704999942238,3.479681024159896,0.6219890069100653,A,425,Correct
1,new_learn,40,684,A,42.269162578916664,71.3482316724869,2.113458128945833,1.120735402344537,A,472,Correct
1,new_learn,40,685,A,39.6591206368552,81.32407640148801,1.98295603184276,1.277435604914449,A,176,Correct
1,new_learn,40,686,A,57.79903240310618,51.76429431582947,2.8899516201553093,0.8131116337043488,A,288,Correct
1,new_learn,40,687,A,37.036927471271746,78.54939216924937,1.8518463735635873,1.2338509669142874,A,325,Correct
1,new_learn,40,688,A,49.18670712491363,71.15400350163043,2.4593353562456817,1.1176844733711229,B,231,Incorrect
1,new_learn,40,689,A,57.575468268083654,65.22168429334633,2.878773413404183,1.024499821153648,B,120,Incorrect
1,new_learn,40,690,A,32.78840410905604,88.17340043881138,1.639420205452802,1.3850245353030042,B,412,Incorrect
1,new_learn,40,691,B,62.74449043051159,17.489448585886464,3.1372245215255794,0.2747236159637866,A,272,Incorrect
1,new_learn,40,692,A,86.8201572367837,38.066192815940425,4.341007861839185,0.597942358503455,A,77,Correct
1,new_learn,40,693,B,16.75307877996879,52.843529524619406,0.8376539389984394,0.8300642207214983,A,409,Incorrect
1,new_learn,40,694,B,64.17348764221799,14.51618389045747,3.2086743821108996,0.22801968334209843,B,599,Correct
1,new_learn,40,695,B,29.146078307133433,49.25523674420489,1.4573039153566716,0.7736994495321008,B,511,Correct
1,new_learn,40,696,A,52.60941040170612,74.45389856332248,2.6304705200853062,1.1695191037882677,B,384,Incorrect
1,new_learn,40,697,A,77.29438307864567,40.769684925957094,3.864719153932283,0.6404087132627866,B,452,Incorrect
1,new_learn,40,698,A,47.40467772555328,68.15563484333475,2.370233886277664,1.070586208622845,B,447,Incorrect
1,new_learn,40,699,A,78.6935339943224,34.45394880545288,3.9346766997161193,0.541201362271848,B,601,Incorrect
1,new_learn,40,700,B,44.32225096512432,46.70964397026474,2.216112548256216,0.7337133717438925,A,984,Incorrect
1,new_learn,40,701,B,17.27535144091766,60.02928937459818,0.8637675720458831,0.9429378724972675,B,407,Correct
1,new_learn,40,702,A,54.086613540728806,78.13900163101222,2.7043306770364404,1.2274045674141443,B,352,Incorrect
1,new_learn,40,703,A,54.57166973105721,56.38620482687098,2.7285834865528606,0.8857124342395359,B,260,Incorrect
1,new_learn,40,704,A,76.50613584086416,36.50873871080165,3.825306792043208,0.5734779266284188,A,107,Correct
1,new_learn,40,705,A,58.02865144294164,71.4102704148887,2.9014325721470815,1.1217099046313745,A,303,Correct
1,new_learn,40,706,A,63.06586682642852,61.46328318409333,3.153293341321426,0.9654629945832833,A,25,Correct
1,new_learn,40,707,B,26.379169253280047,46.920074028393145,1.3189584626640025,0.7370187993674457,107,218,Incorrect
1,new_learn,40,708,A,44.31076074071975,64.91053334998071,2.2155380370359876,1.0196122735644733,100,244,Incorrect
1,new_learn,40,709,B,30.850940935669755,40.773351760921415,1.5425470467834879,0.6404663117717159,A,371,Incorrect
1,new_learn,40,710,B,43.66106761983623,25.198267522311312,2.1830533809918116,0.3958134606564175,B,3,Correct
1,new_learn,40,711,A,63.40981197141965,49.618061828015406,3.1704905985709826,0.7793986926212867,B,302,Incorrect
1,new_learn,40,712,A,66.85041528855002,55.38436661910214,3.3425207644275012,0.8699755964714753,A,619,Correct
1,new_learn,40,713,B,32.3743993769147,57.745738416474794,1.6187199688457352,0.9070679379265757,B,602,Correct
1,new_learn,40,714,B,40.87375757578174,39.06401044741556,2.0436878787890866,0.6136160412067783,A,564,Incorrect
1,new_learn,40,715,B,19.22489931178618,59.793500940761554,0.961244965589309,0.9392341164395545,B,418,Correct
1,new_learn,40,716,B,26.729898939169757,61.01158883649452,1.3364949469584877,0.9583677963628612,B,469,Correct
1,new_learn,40,717,B,57.38621593497041,24.356408673536407,2.8693107967485205,0.3825895727830635,B,628,Correct
1,new_learn,40,718,B,45.99663864863,27.055595291192475,2.2998319324314997,0.4249882970265444,B,509,Correct
1,new_learn,40,719,A,41.38586114384073,70.67475452244392,2.069293057192036,1.1101564480098591,B,286,Incorrect
1,new_learn,40,720,B,16.19501738728961,59.79196126323757,0.8097508693644805,0.9392099312415632,B,252,Correct
1,new_learn,40,721,B,18.861407669269365,61.52998059389003,0.9430703834634683,0.9665106750464373,B,293,Correct
1,new_learn,40,722,B,35.44511202378216,51.29508841843179,1.7722556011891077,0.8057413647029209,B,295,Correct
1,new_learn,40,723,A,61.37318268391367,62.35642797592163,3.0686591341956837,0.9794924801662822,100,583,Incorrect
1,new_learn,40,724,B,29.273485833286667,39.35357861383093,1.4636742916643335,0.6181645673283983,B,87,Correct
1,new_learn,40,725,A,55.96601271262433,59.63829750979226,2.7983006356312163,0.9367961866468292,100,291,Incorrect
1,new_learn,40,726,A,50.655495739327364,79.60890951623671,2.5327747869663684,1.2504938264825192,100,293,Incorrect
1,new_learn,40,727,B,20.82376865534491,64.90207357917754,1.0411884327672454,1.0194793877954418,A,117,Incorrect
1,new_learn,40,728,B,51.39533117251794,23.657102300509294,2.569766558625897,0.37160489396251095,B,331,Correct
1,new_learn,40,729,B,30.437904743691433,39.262471617919424,1.5218952371845718,0.616733461983167,B,257,Correct
1,new_learn,40,730,B,21.175144103579566,57.31212700113285,1.0587572051789784,0.9002567857418209,B,287,Correct
1,new_learn,40,731,B,66.72712311548419,11.761759987615193,3.3363561557742094,0.1847532938518913,B,269,Correct
1,new_learn,40,732,B,12.7699882954145,60.08312751353417,0.638499414770725,0.9437835600060887,107,505,Incorrect
1,new_learn,40,733,B,23.76450201160629,54.15060800754369,1.1882251005803144,0.8505957615195993,107,246,Incorrect
1,new_learn,40,734,B,30.56827060596526,46.42027939891072,1.528413530298263,0.7291680436860177,100,281,Correct
1,new_learn,40,735,B,51.81960078279234,40.35017299996974,2.590980039139617,0.6338190353389108,B,294,Correct
1,new_learn,40,736,A,83.95470105833772,39.816295900930314,4.197735052916886,0.6254329134776003,B,439,Incorrect
1,new_learn,40,737,B,44.73960792725578,28.69798741153491,2.2369803963627892,0.4507869321244522,A,499,Incorrect
1,new_learn,40,738,B,40.347089601872796,27.04179083832986,2.0173544800936396,0.4247714571880444,B,476,Correct
1,new_learn,40,739,B,66.91634415268005,19.688314500147584,3.3458172076340027,0.3092633209761453,B,146,Correct
1,new_learn,40,740,A,59.024596153979914,64.75310725130768,2.951229807698996,1.0171394301891008,B,508,Incorrect
1,new_learn,40,741,B,46.38741505310749,38.52652585334181,2.319370752655374,0.6051732529459792,B,294,Correct
1,new_learn,40,742,B,48.312713915537536,37.04026016885477,2.4156356957768765,0.5818270461676439,A,759,Incorrect
1,new_learn,40,743,A,51.04792288436847,78.66595797018681,2.5523961442184233,1.2356819782337116,B,407,Incorrect
1,new_learn,40,744,A,63.60685401065007,54.538316198832234,3.1803427005325036,0.8566858675470429,A,364,Correct
1,new_learn,40,745,B,40.534752964623195,33.462759691133485,2.0267376482311596,0.5256318000725281,A,353,Incorrect
1,new_learn,40,746,B,43.96245843719981,39.21069653745494,2.1981229218599903,0.6159201809210358,B,434,Correct
1,new_learn,40,747,A,71.52555726106971,43.240878787827555,3.5762778630534853,0.6792261356730288,B,285,Incorrect
1,new_learn,40,748,A,69.8183903524242,53.949298571610605,3.49091951762121,0.847433600294471,B,668,Incorrect
1,new_learn,40,749,A,53.97355929709807,65.46868992004977,2.6986779648549035,1.0283797764648823,B,416,Incorrect
1,new_learn,40,750,B,34.34082182092115,54.1576943702463,1.7170410910460574,0.8507070738446353,A,267,Incorrect
1,new_learn,40,751,A,76.52048943975534,40.27074036966408,3.826024471987767,0.632571310499793,B,247,Incorrect
1,new_learn,40,752,A,75.26858066698176,42.72371943641191,3.763429033349088,0.6711026155773157,B,505,Incorrect
1,new_learn,40,753,A,61.04489644369633,52.56056971511988,3.052244822184816,0.8256194984275739,A,530,Correct
1,new_learn,40,754,B,21.70330796865769,46.86448432912385,1.0851653984328846,0.7361455984132473,A,347,Incorrect
1,new_learn,40,755,B,58.121992736765286,16.913878105251484,2.9060996368382646,0.26568257599585654,B,194,Correct
1,new_learn,40,756,A,59.812353557189084,52.580877276687104,2.9906176778594546,0.8259384888587334,B,320,Incorrect
1,new_learn,40,757,B,65.27359087996838,22.540319201256253,3.263679543998419,0.354062506061178,B,196,Correct
1,new_learn,40,758,B,31.02027984181877,57.20165461939172,1.5510139920909385,0.8985214896273083,B,250,Correct
1,new_learn,40,759,A,55.369739608004444,76.68446515273556,2.768486980400222,1.2045567618414825,B,248,Incorrect
1,new_learn,40,760,B,19.657754247219042,56.29800263524632,0.9828877123609522,0.8843269574533432,B,300,Correct
1,new_learn,40,761,A,72.05246950185153,51.96284924433123,3.6026234750925767,0.8162305272279247,B,356,Incorrect
1,new_learn,40,762,B,15.97715096448053,60.40835042323221,0.7988575482240264,0.9488921495255209,B,141,Correct
1,new_learn,40,763,A,65.14939128997673,60.60885626851746,3.2574695644988365,0.9520416879782706,B,2121,Incorrect
1,new_learn,40,764,B,57.8255911987264,14.847741449109677,2.89127955993632,0.23322777729461816,B,6,Correct
1,new_learn,40,765,B,32.62190941043162,41.68749873694021,1.631095470521581,0.6548256988925257,B,535,Correct
1,new_learn,40,766,A,53.34494688724264,72.32237358866868,2.6672473443621323,1.1360371877816902,B,220,Incorrect
1,new_learn,40,767,A,58.067772388046606,60.17305445563683,2.90338861940233,0.9451961291094362,A,474,Correct
1,new_learn,40,768,A,75.27942656435357,49.55845362704676,3.7639713282176785,0.7784623691900027,A,262,Correct
1,new_learn,40,769,A,68.42883867700958,60.368958203318854,3.4214419338504793,0.9482733779820789,A,417,Correct
1,new_learn,40,770,B,52.29319922564349,25.23676017665906,2.6146599612821744,0.3964181018569978,A,314,Incorrect
1,new_learn,40,771,A,47.05589940482848,69.77812268271764,2.3527949702414244,1.0960721880065651,A,475,Correct
1,new_learn,40,772,B,34.06828043401025,50.6429603885247,1.7034140217005125,0.7954977615631403,A,257,Incorrect
1,new_learn,40,773,B,47.723673611787945,29.759858389498547,2.3861836805893972,0.46746676244160595,B,351,Correct
1,new_learn,40,774,A,80.24049328102531,33.4304852110572,4.012024664051265,0.5251248337249976,B,308,Incorrect
1,new_learn,40,775,A,48.21589727890445,69.97933618167542,2.410794863945222,1.0992328422572095,B,332,Incorrect
1,new_learn,40,776,B,38.74464197343644,46.493778129731595,1.937232098671822,0.7303225590499929,B,283,Correct
1,new_learn,40,777,B,43.740842781434964,34.308310916940485,2.1870421390717483,0.5389136876686736,B,150,Correct
1,new_learn,40,778,A,43.41303022373499,75.13101706265016,2.1706515111867497,1.1801552563037556,B,79,Incorrect
1,new_learn,40,779,A,43.84748196808023,81.07229355499256,2.192374098404011,1.2734806092101987,B,115,Incorrect
1,new_learn,40,780,B,18.854372205812872,53.55582438829513,0.9427186102906435,0.8412529222760652,A,237,Incorrect
1,new_learn,40,781,B,52.02131761659178,24.564257471216663,2.601065880829589,0.38585445406231234,B,252,Correct
1,new_learn,40,782,A,44.08302977552252,73.7771933835404,2.2041514887761258,1.1588894436810202,B,251,Incorrect
1,new_learn,40,783,A,69.55032194924424,61.6583032508901,3.4775160974622117,0.9685263626290401,B,410,Incorrect
1,new_learn,40,784,B,54.37112602853785,21.300223738947167,2.7185563014268928,0.33458313209047663,B,281,Correct
1,new_learn,40,785,A,81.57001803651146,34.47011080514454,4.0785009018255725,0.5414552343693412,B,203,Incorrect
1,new_learn,40,786,A,75.40240690385733,53.64522602094571,3.7701203451928667,0.8426572398378351,B,147,Incorrect
1,new_learn,40,787,B,19.978502193954267,54.773614098194344,0.9989251096977134,0.8603819183072484,B,444,Correct
1,new_learn,40,788,A,45.03261598354331,82.72760445409409,2.2516307991771654,1.2994821720103213,B,166,Incorrect
1,new_learn,40,789,A,40.23311246318166,77.9057220565902,2.011655623159083,1.2237402204279606,B,305,Incorrect
1,new_learn,40,790,A,50.718882514782194,69.91877830828945,2.5359441257391095,1.0982816014064776,B,291,Incorrect
1,new_learn,40,791,B,23.537629411953343,65.60262282838139,1.1768814705976671,1.030483589669325,A,393,Incorrect
1,new_learn,40,792,A,71.06046193877646,42.24080652004474,3.5530230969388232,0.663517037225402,B,261,Incorrect
1,new_learn,40,793,B,21.98171014157794,64.1278488745456,1.099085507078897,1.0073178945739447,A,256,Incorrect
1,new_learn,40,794,A,48.776762414902045,63.8103238598082,2.438838120745102,1.0023302233057945,B,359,Incorrect
1,new_learn,40,795,A,70.20766946323752,49.14351937138375,3.510383473161876,0.7719445971434346,B,340,Incorrect
1,new_learn,40,796,B,16.081081959136803,55.675815875302334,0.8040540979568402,0.8745536706823388,B,337,Correct
1,new_learn,40,797,B,50.043617718400846,26.166639960252184,2.5021808859200423,0.4110246193412868,B,488,Correct
1,new_learn,40,798,A,36.5933894472974,78.88476026250046,1.8296694723648699,1.2391189166043175,B,314,Incorrect
1,new_learn,40,799,B,27.819088478343062,48.3621925549014,1.3909544239171532,0.7596715442098663,A,645,Incorrect
1,new_learn,40,800,B,39.915396436152555,36.124254734849394,1.9957698218076276,0.5674384664570458,B,270,Correct
1,new_learn,40,801,B,49.46688043374318,42.09094658790142,2.4733440216871587,0.6611630429159574,B,474,Correct
1,new_learn,40,802,B,41.87567737686514,28.299422567160832,2.093783868843257,0.44452629018912837,B,504,Correct
1,new_learn,40,803,B,50.26740481137584,28.21345750564963,2.513370240568792,0.4431759541605835,B,2191,Correct
1,new_learn,40,804,B,44.373175458457546,45.27246488482245,2.2186587729228773,0.7111382154603003,B,489,Correct
1,new_learn,40,805,A,66.74797979959669,50.01894616473585,3.3373989899798344,0.7856957690571876,B,749,Incorrect
1,new_learn,40,806,B,48.703728105805695,22.193688609009058,2.4351864052902847,0.3486176454506117,A,294,Incorrect
1,new_learn,40,807,A,73.24572452598008,58.84477365398019,3.6622862262990044,0.924331543067492,B,392,Incorrect
1,new_learn,40,808,B,14.294733946026696,59.52142755300115,0.7147366973013348,0.9349603976584275,A,125,Incorrect
1,new_learn,40,809,A,33.273535466527015,79.95715801019824,1.6636767733263509,1.2559641010337852,B,604,Incorrect
1,new_learn,40,810,B,58.945789633160885,28.80424150067664,2.947289481658044,0.4524559674537598,B,270,Correct
1,new_learn,40,811,B,16.419496100536207,67.07379621591669,0.8209748050268104,1.0535927272015135,B,264,Correct
1,new_learn,40,812,B,15.232457214088647,57.98912963026716,0.7616228607044323,0.9108911181725674,B,212,Correct
1,new_learn,40,813,B,27.986189154915778,40.67231291464529,1.399309457745789,0.6388791972857745,B,525,Correct
1,new_learn,40,814,B,51.394523775931084,32.4550515146161,2.5697261887965546,0.5098027570509811,B,618,Correct
1,new_learn,40,815,A,46.66320728334445,63.38403497951811,2.333160364167222,0.9956340932326627,B,267,Incorrect
1,new_learn,40,816,B,44.85260161797813,45.378906811465654,2.242630080898907,0.7128102013341817,B,161,Correct
1,new_learn,40,817,A,44.4940508104351,66.14937451149001,2.224702540521755,1.0390719450242847,B,228,Incorrect
1,new_learn,40,818,B,55.791993685458536,26.54945136036457,2.7895996842729267,0.4170378067528044,A,262,Incorrect
1,new_learn,40,819,B,37.366868215461416,51.285218192633266,1.8683434107730708,0.8055863235586314,B,98,Correct
1,new_learn,40,820,B,46.445957740273855,42.54799680225703,2.3222978870136926,0.6683423708946635,B,258,Correct
1,new_learn,40,821,A,38.32427460900048,87.57258476883266,1.9162137304500242,1.3755869448281703,B,226,Incorrect
1,new_learn,40,822,B,48.363485189196815,26.49566753431091,2.4181742594598408,0.4161929723887437,B,137,Correct
1,new_learn,40,823,B,55.442570256689734,16.354570791082352,2.772128512834487,0.25689699724939263,B,61,Correct
1,new_learn,40,824,A,62.33850999068589,65.44834801052001,3.116925499534295,1.028060246497189,B,677,Incorrect
1,new_learn,40,825,A,73.56527805564549,47.86458406798309,3.6782639027822746,0.7518551283755335,B,46,Incorrect
1,new_learn,40,826,A,76.8233509974685,51.30362697897982,3.8411675498734246,0.8058754880983705,A,427,Correct
1,new_learn,40,827,B,12.524585458495878,63.17708927350131,0.6262292729247939,0.9923833976840912,A,87,Incorrect
1,new_learn,40,828,B,34.21153605260641,51.166786486941504,1.7105768026303207,0.8037260026758645,B,37,Correct
1,new_learn,40,829,B,54.96785215588902,21.235974037976362,2.748392607794451,0.3335739001476506,B,117,Correct
1,new_learn,40,830,A,42.48624305645893,74.43478133376642,2.1243121528229465,1.1692188110486164,B,100,Incorrect
1,new_learn,40,831,B,25.49620607601009,50.973359512984175,1.2748103038005043,0.8006876588739125,B,198,Correct
1,new_learn,40,832,A,51.30222152234357,65.05584958991095,2.5651110761171787,1.0218948957235339,B,228,Incorrect
1,new_learn,40,833,A,34.177924987922,89.4033013972398,1.7088962493960997,1.404343774381213,A,175,Correct
1,new_learn,40,834,B,34.047811591933076,56.42822133431312,1.7023905795966539,0.8863724279950848,B,329,Correct
1,new_learn,40,835,B,27.021490850336978,50.13604685112966,1.3510745425168489,0.7875351823377131,B,294,Correct
1,new_learn,40,836,B,38.3953970007497,30.369717352601143,1.9197698500374853,0.4770464046326511,B,306,Correct
1,new_learn,40,837,A,85.15302783226163,43.473279300527395,4.257651391613082,0.6828766743899704,B,238,Incorrect
1,new_learn,40,838,B,50.524023745336585,37.42056568549983,2.5262011872668295,0.5878008712537028,B,209,Correct
1,new_learn,40,839,B,16.177590317286864,62.79807943376963,0.8088795158643433,0.9864299250433947,B,87,Correct
1,new_learn,40,840,A,55.02520492291836,55.47958383543592,2.751260246145918,0.8714712650081224,B,277,Incorrect
1,new_learn,40,841,A,54.888714285178395,65.6807068040253,2.7444357142589193,1.0317101298905553,B,55,Incorrect
1,new_learn,40,842,B,37.58667353495806,32.5278388662671,1.879333676747903,0.5109460980970865,A,101,Incorrect
1,new_learn,40,843,B,36.26033462309667,42.92119245155547,1.8130167311548333,0.6742045144456017,A,246,Incorrect
1,new_learn,40,844,B,34.920111002703194,54.18911784712065,1.74600555013516,0.851200672665129,A,521,Incorrect
1,new_learn,40,845,A,76.02803995998805,36.486835535652915,3.8014019979994025,0.5731338723577311,B,304,Incorrect
1,new_learn,40,846,B,50.16292508559372,32.29138526414134,2.5081462542796857,0.5072318936003206,B,598,Correct
1,new_learn,40,847,B,47.6323237481984,38.22832055886072,2.38161618740992,0.6004890551339624,B,291,Correct
1,new_learn,40,848,B,31.85282463882374,35.10961491604347,1.592641231941187,0.551500541453044,B,306,Correct
1,new_learn,40,849,B,47.562515926440625,21.917446431997803,2.3781257963220312,0.3442784434810606,B,95,Correct
1,new_learn,40,850,B,57.120489011877666,29.20217284500839,2.8560244505938837,0.45870665839368857,B,223,Correct
1,new_learn,40,851,A,68.89621542921483,45.68593298124896,3.444810771460742,0.7176329571314369,B,283,Incorrect
1,new_learn,40,852,A,75.56260206365097,40.45360625596395,3.7781301031825483,0.6354437611247522,B,217,Incorrect
1,new_learn,40,853,A,49.417435867577865,70.43097273708659,2.470871793378893,1.1063271326800712,B,350,Incorrect
1,new_learn,40,854,B,24.96783489746342,43.6287120830163,1.248391744873171,0.6853182068279412,B,779,Correct
1,new_learn,40,855,B,47.59269552205312,35.57485055384136,2.379634776102656,0.558808445762514,B,582,Correct
1,new_learn,40,856,A,50.45497588289955,75.67697369431373,2.5227487941449773,1.1887311230198203,B,2316,Incorrect
1,new_learn,40,857,B,49.15528626286647,38.65585419875881,2.4577643131433233,0.607204737845294,A,125,Incorrect
1,new_learn,40,858,A,87.15015888401427,35.42820627518422,4.357507944200714,0.5565049628199128,B,167,Incorrect
1,new_learn,40,859,A,65.88123786726844,45.37058481806887,3.294061893363422,0.7126794797675888,B,131,Incorrect
1,new_learn,40,860,B,62.40479340791276,24.60195865504926,3.120239670395638,0.38644666287311286,A,267,Incorrect
1,new_learn,40,861,A,70.92492890286246,41.48261729222681,3.5462464451431233,0.6516074286846834,B,281,Incorrect
1,new_learn,40,862,A,50.03253739599573,80.4783582154518,2.5016268697997868,1.2641510947131558,B,28,Incorrect
1,new_learn,40,863,A,56.79463674867353,50.24396953497096,2.8397318374336766,0.7892304278912705,B,9,Incorrect
1,new_learn,40,864,A,74.21661755317912,39.79161182602018,3.710830877658956,0.6250451769356086,A,330,Correct
1,new_learn,40,865,A,53.64904065626864,73.63935457829977,2.682452032813432,1.1567242767914023,A,426,Correct
1,new_learn,40,866,B,42.63698705630041,30.995734324987723,2.1318493528150206,0.48687985624001207,A,263,Incorrect
1,new_learn,40,867,B,56.852163200642586,21.778647352174602,2.8426081600321296,0.34209819263357266,B,18,Correct
1,new_learn,40,868,A,71.22122672788984,48.65596684123188,3.5610613363944923,0.7642861399086133,B,250,Incorrect
1,new_learn,40,869,B,36.33428024713556,41.135629528548336,1.816714012356778,0.6461569576383941,A,281,Incorrect
1,new_learn,40,870,A,34.87484426739573,86.23991732274644,1.7437422133697864,1.3546534535366566,B,137,Incorrect
1,new_learn,40,871,A,57.846925368011846,49.312858027579644,2.8923462684005923,0.7746045625348031,A,283,Correct
1,new_learn,40,872,A,39.19077095496519,76.06354034503195,1.9595385477482594,1.194803297769916,B,40,Incorrect
1,new_learn,40,873,A,77.42545871121666,49.6226997483662,3.871272935560833,0.7794715449037968,A,88,Correct
1,new_learn,40,874,A,39.40951803405961,86.69431518568365,1.9704759017029803,1.3617911184767089,B,14,Incorrect
1,new_learn,40,875,B,50.379700672612834,34.76941594551094,2.5189850336306416,0.5461567085201249,A,68,Incorrect
1,new_learn,40,876,A,38.798904400893164,78.84437792854267,1.939945220044658,1.2384845923858343,B,6,Incorrect
1,new_learn,40,877,A,62.455899710794874,56.190275282417396,3.1227949855397434,0.8826347801521532,A,34,Correct
1,new_learn,40,878,A,56.81378081505881,64.65722871774057,2.840689040752941,1.0156333737056438,A,182,Correct
1,new_learn,40,879,A,60.707452354819466,47.88201202102218,3.0353726177409732,0.7521288860217071,A,117,Correct
1,new_learn,40,880,B,20.016874424354764,67.15319614926189,1.0008437212177383,1.0548399384379776,A,162,Incorrect
1,new_learn,40,881,B,14.862528450553768,59.90760003987893,0.7431264225276883,0.9410263808973962,B,328,Correct
1,new_learn,40,882,A,81.85615619629712,34.05125506772575,4.092807809814856,0.5348758638313971,B,9,Incorrect
1,new_learn,40,883,A,70.83597412416943,61.50243625362815,3.5417987062084713,0.9660780095613636,A,123,Correct
1,new_learn,40,884,A,61.3930664232524,60.49315943688579,3.0696533211626202,0.9502243263967822,B,154,Incorrect
1,new_learn,40,885,A,62.17649826903277,51.9589467130223,3.108824913451638,0.8161692264094719,A,191,Correct
1,new_learn,40,886,B,30.60401825313075,39.127976138328144,1.5302009126565375,0.614620811930042,B,200,Correct
1,new_learn,40,887,A,71.50916428968682,46.697851334280436,3.575458214484341,0.7335281334510186,A,196,Correct
1,new_learn,40,888,A,83.87693371862733,32.02217875326707,4.193846685931367,0.5030032076160149,A,220,Correct
1,new_learn,40,889,B,41.94177049191795,27.207370500899913,2.0970885245958977,0.4273723764456141,A,86,Incorrect
1,new_learn,40,890,A,47.929351693736244,73.40453138120972,2.396467584686812,1.1530356826370496,B,151,Incorrect
1,new_learn,40,891,B,12.159662336904915,66.33585651151797,0.6079831168452458,1.0420011974308576,A,20,Incorrect
1,new_learn,40,892,A,78.94263015642282,44.989882491726334,3.947131507821141,0.7066994216093775,B,242,Incorrect
1,new_learn,40,893,A,36.91232207420972,82.50025004306028,1.8456161037104861,1.295910897272996,A,594,Correct
1,new_learn,40,894,B,21.415621087876435,57.98025937183293,1.0707810543938217,0.9107517844789054,B,394,Correct
1,new_learn,40,895,A,56.16353078996102,69.00771570419741,2.808176539498051,1.0839706634865978,B,292,Incorrect
1,new_learn,40,896,B,60.015794820662265,20.54985069471654,3.0007897410331132,0.3227962998744429,A,309,Incorrect
1,new_learn,40,897,A,66.43475344065162,52.25113555437702,3.321737672032581,0.8207589179967765,B,59,Incorrect
1,new_learn,40,898,B,28.705427566254507,61.285274201794806,1.4352713783127253,0.9626668360279732,B,400,Correct
