experiment,condition,subject,trial,cat,x,y,xt,yt,resp,rt,fb
1,new_learn,10,0,A,33.579710075433255,64.37071862676108,1.6789855037716626,1.0111328837206413,A,3422,Correct
1,new_learn,10,1,A,17.91765424859017,46.17667543944482,0.8958827124295086,0.7253415216388004,A,1176,Correct
1,new_learn,10,2,B,71.84422212731243,57.97671028494601,3.592211106365622,0.9106960355524508,B,764,Correct
1,new_learn,10,3,A,39.87929064165411,63.31478745559542,1.9939645320827055,0.9945463556704888,A,778,Correct
1,new_learn,10,4,B,59.293344995405505,30.925092307827114,2.964667249770275,0.4857702140292794,B,700,Correct
1,new_learn,10,5,A,49.19091761906311,68.81627703757212,2.459545880953155,1.0809635519431826,B,1003,Incorrect
1,new_learn,10,6,A,48.24092192657567,60.17483107756435,2.4120460963287838,0.9452240362214147,A,1225,Correct
1,new_learn,10,7,B,86.76863565630771,61.22413590592075,4.338431782815386,0.9617064779221184,B,612,Correct
1,new_learn,10,8,A,47.86425057355941,74.47531308875712,2.3932125286779704,1.1698554823671956,A,947,Correct
1,new_learn,10,9,B,38.57408017390203,20.76987976341383,1.9287040086951015,0.326252508403421,A,1125,Incorrect
1,new_learn,10,10,A,29.849057763732574,53.629024212955656,1.4924528881866286,0.842402742433053,A,973,Correct
1,new_learn,10,11,B,34.51278366848728,12.395041380515082,1.725639183424364,0.19470085470983836,B,626,Correct
1,new_learn,10,12,B,58.98440409459578,45.85796942984955,2.949220204729789,0.7203352993468032,B,668,Correct
1,new_learn,10,13,B,56.08821365180178,42.94507065705596,2.8044106825900887,0.6745795924205079,B,643,Correct
1,new_learn,10,14,B,59.638857242865186,40.758889704525394,2.981942862143259,0.6402391423210682,B,529,Correct
1,new_learn,10,15,B,77.4899409581639,62.39912334554461,3.874497047908195,0.9801631374640315,B,449,Correct
1,new_learn,10,16,A,60.59098113791707,76.51937747351717,3.0295490568958536,1.201963570640329,B,498,Incorrect
1,new_learn,10,17,A,54.129046062412,77.95036493373988,2.7064523031206,1.2244414691024033,A,924,Correct
1,new_learn,10,18,B,40.5333956003505,31.43769366385935,2.0266697800175253,0.4938221373009346,A,671,Incorrect
1,new_learn,10,19,B,66.08151977052684,39.80480580772011,3.3040759885263418,0.6252524275155091,B,639,Correct
1,new_learn,10,20,A,17.37496469954308,36.466826902137825,0.8687482349771541,0.5728195774774342,B,1389,Incorrect
1,new_learn,10,21,A,45.6298465856693,63.276565493618,2.281492329283465,0.9939459664957185,B,619,Incorrect
1,new_learn,10,22,B,45.870262816363066,31.564585534790478,2.2935131408181535,0.49581535014852207,A,740,Incorrect
1,new_learn,10,23,B,68.46340632743345,38.36200617636647,3.4231703163716727,0.602588983903196,B,639,Correct
1,new_learn,10,24,A,39.17700537724968,62.79201482209325,1.958850268862484,0.9863346623459478,A,669,Correct
1,new_learn,10,25,B,50.445272268671516,39.58434924454812,2.5222636134335756,0.6217895039190252,107,1771,Incorrect
1,new_learn,10,26,B,67.51425476721386,56.1923585167685,3.3757127383606926,0.8826675035208189,B,547,Correct
1,new_learn,10,27,B,86.58671727644179,67.69369009840293,4.32933586382209,1.0633299975376336,B,467,Correct
1,new_learn,10,28,B,44.708583960957625,28.345896841906352,2.2354291980478815,0.4452563063897357,A,815,Incorrect
1,new_learn,10,29,A,14.467175402351486,34.32256665442379,0.7233587701175743,0.5391376162694189,B,1097,Incorrect
1,new_learn,10,30,A,48.399174098482185,63.82070742599829,2.419958704924109,1.002493327982099,B,3055,Incorrect
1,new_learn,10,31,B,34.14298865553512,16.965757678331553,1.7071494327767562,0.26649749842415515,B,997,Correct
1,new_learn,10,32,B,58.83197577249231,50.4795332249937,2.9415987886246153,0.7929306536814106,B,579,Correct
1,new_learn,10,33,A,17.18691647205138,40.22345163595838,0.859345823602569,0.631828500807756,A,692,Correct
1,new_learn,10,34,B,67.2782498652169,36.79338090099008,3.3639124932608455,0.5779490756964072,B,680,Correct
1,new_learn,10,35,A,51.22105882910933,76.68483966610151,2.5610529414554666,1.2045626446836784,A,809,Correct
1,new_learn,10,36,A,52.48677187728142,67.28514005193901,2.624338593864071,1.0569125084146596,A,483,Correct
1,new_learn,10,37,B,59.38760575590506,26.84039246520957,2.9693802877952526,0.42160789894084605,B,691,Correct
1,new_learn,10,38,A,66.79280744815722,85.07889651849092,3.3396403724078607,1.3364161813900863,B,912,Incorrect
1,new_learn,10,39,A,39.59973558353957,51.84785813854152,1.9799867791769785,0.8144242511620389,A,772,Correct
1,new_learn,10,40,B,34.14999131620203,15.599255329537218,1.7074995658101018,0.24503252972372777,B,847,Correct
1,new_learn,10,41,B,65.98244805518625,44.71310056575904,3.2991224027593127,0.7023517412830511,A,1188,Incorrect
1,new_learn,10,42,B,40.48494877868309,24.320217042302176,2.0242474389341543,0.38202107596902907,A,1101,Incorrect
1,new_learn,10,43,A,26.794397059727107,39.150224268948065,1.3397198529863552,0.6149702847486003,B,543,Incorrect
1,new_learn,10,44,B,66.07535373795446,42.035045082736005,3.303767686897723,0.660284944126196,B,1208,Correct
1,new_learn,10,45,B,45.1684344713012,34.616591091533685,2.2584217235650597,0.5437561413274206,B,414,Correct
1,new_learn,10,46,B,45.53156753589818,18.436022858220994,2.2765783767949093,0.28959236986400283,A,444,Incorrect
1,new_learn,10,47,B,48.401222275577446,24.816718213040936,2.4200611137788726,0.3898200981214871,B,525,Correct
1,new_learn,10,48,B,59.96901734022871,44.38240868203494,2.9984508670114356,0.6971572453205042,B,660,Correct
1,new_learn,10,49,A,61.20622502871693,79.20782200778117,3.0603112514358464,1.2441935586324664,A,891,Correct
1,new_learn,10,50,B,77.34707326708795,47.84805700289412,3.8673536633543972,0.7515955218441892,B,383,Correct
1,new_learn,10,51,A,48.03511285538117,58.840952080166566,2.4017556427690585,0.9242715139264018,A,519,Correct
1,new_learn,10,52,B,38.658412303622185,28.44598004016164,1.9329206151811094,0.4468284095916684,A,517,Incorrect
1,new_learn,10,53,A,21.46009169923987,38.82968762260978,1.0730045849619936,0.609935306881887,B,359,Incorrect
1,new_learn,10,54,A,37.912420127593286,69.0273536457607,1.8956210063796644,1.0842791355513322,B,429,Incorrect
1,new_learn,10,55,A,65.59558227924504,76.9021459945394,3.2797791139622516,1.2079760845086736,A,428,Correct
1,new_learn,10,56,B,62.037936712433996,34.47783268263209,3.1018968356217,0.5415765293372752,A,487,Incorrect
1,new_learn,10,57,A,21.564200324521757,50.53175894592717,1.0782100162260877,0.7937510133874756,B,331,Incorrect
1,new_learn,10,58,B,70.84013976684786,39.3140956859985,3.542006988342393,0.6175443709482954,A,344,Incorrect
1,new_learn,10,59,A,44.05792209402778,59.38312058679237,2.2028961047013893,0.9327878769135185,A,248,Correct
1,new_learn,10,60,B,75.1804934506798,56.67358883472781,3.7590246725339904,0.8902266516787471,A,438,Incorrect
1,new_learn,10,61,B,32.09165132933738,17.996262243896528,1.604582566466869,0.2826846262875035,B,281,Correct
1,new_learn,10,62,B,30.06462358644887,12.517349324973548,1.5032311793224435,0.19662206340877028,B,313,Correct
1,new_learn,10,63,B,63.22440805110999,45.48163347523453,3.1612204025554997,0.7144238279953021,A,511,Incorrect
1,new_learn,10,64,B,44.66383006879715,25.844937836029608,2.2331915034398575,0.4059713341907775,B,308,Correct
1,new_learn,10,65,A,32.76201662407389,60.0469120772103,1.6381008312036942,0.9432146892625806,B,347,Incorrect
1,new_learn,10,66,A,18.678057398745924,34.476655558142724,0.9339028699372962,0.5415580391090344,A,814,Correct
1,new_learn,10,67,B,38.84382383563525,13.545637467679871,1.9421911917817625,0.21277437578326866,B,500,Correct
1,new_learn,10,68,A,42.30330274829024,62.48227478257303,2.115165137414512,0.9814692771825512,B,336,Incorrect
1,new_learn,10,69,A,41.16895847214717,63.6258509974484,2.0584479236073583,0.9994325303599135,A,353,Correct
1,new_learn,10,70,A,55.60842560651758,79.44278403796098,2.7804212803258785,1.2478843335718932,B,562,Incorrect
1,new_learn,10,71,A,29.380498834849014,40.92915309314712,1.4690249417424508,0.6429136333754149,A,485,Correct
1,new_learn,10,72,B,68.18708097277589,54.72355383347205,3.4093540486387948,0.8595955735078067,A,543,Incorrect
1,new_learn,10,73,A,48.75890072420942,79.4987192984806,2.4379450362104707,1.2487629625895187,A,619,Correct
1,new_learn,10,74,A,47.295087846828984,59.27767559213758,2.364754392341449,0.931131550810692,A,596,Correct
1,new_learn,10,75,B,65.43652093252129,35.34694851661314,3.2718260466260642,0.5552285689330424,B,795,Correct
1,new_learn,10,76,B,53.66784364306149,41.252302491415236,2.6833921821530744,0.64798965225347,B,456,Correct
1,new_learn,10,77,A,42.14614913678811,51.392207793903985,2.1073074568394055,0.8072669122854443,B,408,Incorrect
1,new_learn,10,78,B,65.99582293242518,43.81200483658322,3.2997911466212595,0.6881973626682516,B,332,Correct
1,new_learn,10,79,B,53.537573545042015,46.9029121283649,2.676878677252101,0.736749220872194,A,337,Incorrect
1,new_learn,10,80,A,62.297517067966716,86.6993787239457,3.1148758533983356,1.361870656349735,B,258,Incorrect
1,new_learn,10,81,A,36.18793831561279,54.89056629399975,1.8093969157806395,0.8622189991030657,B,437,Incorrect
1,new_learn,10,82,A,65.9344627746176,89.03128277965973,3.29672313873088,1.3985001196012723,A,427,Correct
1,new_learn,10,83,A,25.382518559159966,57.22067547775095,1.2691259279579983,0.8988202685717401,A,746,Correct
1,new_learn,10,84,A,38.13613937781594,49.96383389029268,1.906806968890797,0.7848300674746211,A,496,Correct
1,new_learn,10,85,B,47.93454199656644,33.99040612506892,2.396727099828322,0.5339200508752501,A,641,Incorrect
1,new_learn,10,86,B,53.99676829739359,23.539033016892066,2.6998384148696797,0.3697502659923786,B,536,Correct
1,new_learn,10,87,A,34.70118567509571,62.150311758467176,1.7350592837547854,0.9762548141935792,B,688,Incorrect
1,new_learn,10,88,B,77.28337695910871,53.402082301339476,3.864168847955435,0.8388379472214281,B,799,Correct
1,new_learn,10,89,B,48.93393723130056,28.566673812596328,2.446696861565028,0.4487242629357428,A,830,Incorrect
1,new_learn,10,90,A,63.65521140158545,88.64443744852048,3.1827605700792727,1.3924235673493595,B,156,Incorrect
1,new_learn,10,91,B,87.85642217444234,61.76031743453444,4.392821108722117,0.970128797678535,B,459,Correct
1,new_learn,10,92,B,34.07662565226563,12.89552832341673,1.7038312826132818,0.2025624852250255,A,279,Incorrect
1,new_learn,10,93,B,51.16333077202918,21.743668180185896,2.558166538601459,0.34154874108483085,B,309,Correct
1,new_learn,10,94,B,85.58179955323914,66.2443250898448,4.279089977661957,1.0405634252213523,B,360,Correct
1,new_learn,10,95,A,46.009776078642616,66.56464944681953,2.300488803932131,1.0455950684545405,A,590,Correct
1,new_learn,10,96,B,49.4067689761358,26.825563259311615,2.47033844880679,0.4213749623193082,A,429,Incorrect
1,new_learn,10,97,A,17.528009071319126,42.712785196443,0.8764004535659563,0.670930860937521,B,374,Incorrect
1,new_learn,10,98,A,35.73715321611413,55.483438850245406,1.7868576608057065,0.8715318194391475,A,471,Correct
1,new_learn,10,99,A,38.12184007502323,65.20946045434754,1.9060920037511613,1.0243078095396616,A,447,Correct
1,new_learn,10,100,A,31.08734787881044,63.487639336152775,1.554367393940522,0.9972615066610795,A,402,Correct
1,new_learn,10,101,A,20.00626185240254,42.97350229078344,1.0003130926201271,0.675026195478747,A,376,Correct
1,new_learn,10,102,B,39.7973103788178,17.62298980372189,1.9898655189408898,0.2768212765083026,B,501,Correct
1,new_learn,10,103,A,47.701475754523535,60.6646263513291,2.3850737877261765,0.9529177223905263,A,664,Correct
1,new_learn,10,104,A,46.06012448846526,66.44188145814829,2.303006224423263,1.0436666333980127,A,487,Correct
1,new_learn,10,105,B,64.185524389047,53.279329062216505,3.2092762194523505,0.8369097438502625,A,475,Incorrect
1,new_learn,10,106,B,78.78246717050837,62.04993965806155,3.9391233585254186,0.9746781729272807,B,627,Correct
1,new_learn,10,107,B,55.285946181581984,37.252519347195964,2.764297309079099,0.5851612055443124,B,661,Correct
1,new_learn,10,108,B,37.9822397579737,13.46316376621883,1.899111987898685,0.2114788819101468,A,784,Incorrect
1,new_learn,10,109,B,41.82189018652215,31.543961883163547,2.0910945093261075,0.4954913945863153,B,384,Correct
1,new_learn,10,110,A,21.372781185669005,51.00574352217545,1.0686390592834503,0.8011963457007578,B,397,Incorrect
1,new_learn,10,111,A,31.20511804170129,58.16688354155702,1.5602559020850646,0.9136832700818428,A,349,Correct
1,new_learn,10,112,B,38.98963954783664,29.334535261478663,1.949481977391832,0.4607858023696606,A,311,Incorrect
1,new_learn,10,113,B,69.77888214093673,59.200871075475916,3.4889441070468363,0.9299251082841582,B,466,Correct
1,new_learn,10,114,B,46.93667644240273,17.21385940466328,2.3468338221201366,0.27039467122808863,B,447,Correct
1,new_learn,10,115,B,81.1387854142424,51.00323333545391,4.05693927071212,0.8011569157799403,B,376,Correct
1,new_learn,10,116,B,63.193407794396485,55.020161388218305,3.1596703897198246,0.8642546740827571,B,420,Correct
1,new_learn,10,117,A,44.448692555411945,58.88239946360753,2.2224346277705975,0.9249225679030448,B,281,Incorrect
1,new_learn,10,118,B,84.38962444238007,64.48530346094073,4.219481222119003,1.0129327780869992,A,350,Incorrect
1,new_learn,10,119,A,57.36503560310078,75.89504804879911,2.8682517801550387,1.1921566269697583,A,480,Correct
1,new_learn,10,120,A,39.58547155200065,50.149718659930876,1.9792735776000325,0.7877499386081692,A,657,Correct
1,new_learn,10,121,B,89.29838339057247,67.28417794943653,4.464919169528623,1.0568973957438907,B,742,Correct
1,new_learn,10,122,B,78.20108267117031,52.21495007547213,3.9100541335585155,0.8201905178233052,B,592,Correct
1,new_learn,10,123,A,57.24624248085139,68.3086838645939,2.8623121240425693,1.0729902970269793,B,389,Incorrect
1,new_learn,10,124,A,37.04357328210898,52.25296808992442,1.852178664105449,0.8207877033978423,B,328,Incorrect
1,new_learn,10,125,A,21.44568413903145,40.72233246633766,1.0722842069515723,0.6396649025664376,A,447,Correct
1,new_learn,10,126,A,11.973136374024484,32.98863252894342,0.5986568187012242,0.5181842280245097,A,651,Correct
1,new_learn,10,127,B,46.14877673029653,28.150961398560405,2.3074388365148266,0.4421942676060361,A,609,Incorrect
1,new_learn,10,128,B,61.21898033385933,44.92955250538618,3.0609490166929665,0.7057517603999905,B,669,Correct
1,new_learn,10,129,A,59.74108525802024,75.84260995619987,2.987054262901012,1.191332931337368,B,703,Incorrect
1,new_learn,10,130,A,27.266068781057932,46.836548135051046,1.3633034390528964,0.7357067777029056,A,496,Correct
1,new_learn,10,131,B,70.65880430010537,38.576222235096374,3.5329402150052687,0.60595388188513,B,694,Correct
1,new_learn,10,132,A,19.086522240506532,42.24705243740869,0.9543261120253266,0.6636151478659295,A,530,Correct
1,new_learn,10,133,B,39.60073243265865,22.983005382036644,1.9800366216329326,0.361016204328105,B,422,Correct
1,new_learn,10,134,A,43.16111285385469,75.44117726286218,2.1580556426927346,1.1850272413358658,B,431,Incorrect
1,new_learn,10,135,A,30.54825070103882,47.722550296987336,1.527412535051941,0.749624067117924,A,347,Correct
1,new_learn,10,136,B,59.79853312113382,49.991386048794176,2.9899266560566913,0.7852628557683153,B,540,Correct
1,new_learn,10,137,A,39.81938137673838,64.44230064388043,1.9909690688369188,1.0122572914161978,A,524,Correct
1,new_learn,10,138,B,58.51008334689176,26.444842847563535,2.925504167344588,0.415394620076211,A,398,Incorrect
1,new_learn,10,139,A,49.06080269662927,65.29531927970109,2.453040134831463,1.0256564768145446,B,175,Incorrect
1,new_learn,10,140,B,54.63694859783921,24.802379091554418,2.7318474298919604,0.3895948597278822,A,433,Incorrect
1,new_learn,10,141,B,44.490637886710886,34.54492485734502,2.224531894335544,0.5426304107532328,A,349,Incorrect
1,new_learn,10,142,A,29.13155692012166,50.74283852904319,1.456577846006083,0.7970666437256761,B,304,Incorrect
1,new_learn,10,143,A,30.915835279838653,64.27641609412377,1.5457917639919327,1.0096515830018997,A,452,Correct
1,new_learn,10,144,A,51.88149844179536,68.15721409927642,2.594074922089768,1.0706110155171673,A,326,Correct
1,new_learn,10,145,B,67.3104574667488,46.75404381025451,3.36552287333744,0.7344108027995546,B,518,Correct
1,new_learn,10,146,B,60.34900213919968,45.0724121985046,3.017450106959984,0.7079957952119652,A,504,Incorrect
1,new_learn,10,147,A,66.19695361294663,88.20673176004979,3.3098476806473314,1.3855481024726897,B,380,Incorrect
1,new_learn,10,148,B,64.27044564511783,46.220917721034304,3.2135222822558918,0.7260364777728983,A,433,Incorrect
1,new_learn,10,149,B,39.66476491414147,25.54049623120644,1.9832382457070736,0.40118917664497966,A,417,Incorrect
1,new_learn,10,150,A,62.387772900847395,81.79404086393777,3.1193886450423696,1.2848177894278512,A,419,Correct
1,new_learn,10,151,B,51.26789525505667,26.945746144105247,2.5633947627528335,0.4232627906590827,B,460,Correct
1,new_learn,10,152,A,59.96187449614598,84.64453647723269,2.998093724807299,1.3295932698169373,A,621,Correct
1,new_learn,10,153,A,18.354046842119025,35.09144075440961,0.9177023421059514,0.5512150623896734,A,653,Correct
1,new_learn,10,154,B,59.42130728777963,47.802733056150856,2.9710653643889815,0.7508835749535875,B,572,Correct
1,new_learn,10,155,A,45.34294780647863,61.90714109363572,2.2671473903239314,0.9724350983225638,B,556,Incorrect
1,new_learn,10,156,A,50.31887663801762,68.57451193118135,2.515943831900881,1.0771659145325247,A,226,Correct
1,new_learn,10,157,B,64.64132104835258,42.04620897483752,3.2320660524176286,0.6604603061332539,B,378,Correct
1,new_learn,10,158,B,40.70913187068264,21.416838030932613,2.035456593534132,0.3364149051055019,B,318,Correct
1,new_learn,10,159,B,46.070358371467435,26.36462333909711,2.3035179185733714,0.4141345349838474,A,332,Incorrect
1,new_learn,10,160,B,76.96983922505352,44.85963459304338,3.8484919612526762,0.7046534924011383,B,247,Correct
1,new_learn,10,161,A,37.56143334520744,45.22367839838502,1.878071667260372,0.710371879123369,B,321,Incorrect
1,new_learn,10,162,A,44.976005654556914,70.44292315839748,2.2488002827278457,1.106514849459059,A,151,Correct
1,new_learn,10,163,A,47.085114543883066,72.05201702016939,2.354255727194153,1.1317904367344545,B,290,Incorrect
1,new_learn,10,164,A,53.50178800773669,80.33869130589036,2.6750894003868346,1.2619572120280167,B,272,Incorrect
1,new_learn,10,165,A,42.44607068123329,50.16351391861772,2.1223035340616643,0.7879666340248938,A,210,Correct
1,new_learn,10,166,B,48.83769900225174,27.86819793727169,2.4418849501125868,0.43775262954259475,A,288,Incorrect
1,new_learn,10,167,A,52.33855947761674,80.99020375624242,2.616927973880837,1.2721911456667583,B,724,Incorrect
1,new_learn,10,168,B,50.101020159009025,22.024124352806762,2.505051007950451,0.34595413634262895,A,355,Incorrect
1,new_learn,10,169,A,59.134242655342426,84.55923822743665,2.9567121327671213,1.328253408042321,B,449,Incorrect
1,new_learn,10,170,B,57.083187395224414,33.56284286056521,2.8541593697612204,0.5272039028217015,B,400,Correct
1,new_learn,10,171,B,39.69202714839574,12.171081455800635,1.984601357419787,0.19118290043893119,B,712,Correct
1,new_learn,10,172,A,35.54467297156631,53.35463784175912,1.7772336485783153,0.8380926913930722,A,428,Correct
1,new_learn,10,173,B,49.61731079952701,41.00460709567256,2.480865539976351,0.644098862075504,A,397,Incorrect
1,new_learn,10,174,A,28.252491323040925,47.683891544236864,1.4126245661520462,0.749016816849735,B,312,Incorrect
1,new_learn,10,175,B,35.10591892939429,14.67419022778282,1.7552959464697147,0.2305016410849082,A,388,Incorrect
1,new_learn,10,176,A,59.06188877088611,79.6607900454201,2.9530944385443054,1.2513087639292535,B,146,Incorrect
1,new_learn,10,177,B,57.16270343638919,35.9101730058007,2.8581351718194594,0.5640756785208099,B,154,Correct
1,new_learn,10,178,A,19.880112385828784,41.32813902588897,0.9940056192914392,0.6491808897513522,119,658,Correct
1,new_learn,10,179,B,50.84063824332995,38.90846443043554,2.5420319121664976,0.6111727300855802,A,353,Incorrect
1,new_learn,10,180,A,12.995917893871297,37.07437963888816,0.6497958946935648,0.5823629935496503,B,263,Incorrect
1,new_learn,10,181,B,80.89355371344567,55.17621020276571,4.0446776856722835,0.8667058831296747,A,327,Incorrect
1,new_learn,10,182,B,32.52477813222281,11.482706969627987,1.6262389066111405,0.18036993929553802,B,470,Correct
1,new_learn,10,183,A,45.768656384116376,59.970830364896045,2.288432819205819,0.9420196005201856,A,490,Correct
1,new_learn,10,184,A,48.94669809096175,66.62586039419338,2.4473349045480877,1.0465565677674853,A,467,Correct
1,new_learn,10,185,A,51.45924608435739,65.83559816623777,2.5729623042178695,1.0341431577187112,A,427,Correct
1,new_learn,10,186,B,58.623788389320694,33.858513096713075,2.9311894194660346,0.531848280030538,A,135,Incorrect
1,new_learn,10,187,A,54.74239871014306,75.55055287370548,2.737119935507153,1.186745309413402,A,544,Correct
1,new_learn,10,188,B,50.16357714748266,25.72158181659354,2.508178857374133,0.4040336623685954,A,550,Incorrect
1,new_learn,10,189,A,49.655637112550565,64.64106700521998,2.482781855627528,1.0153795061190232,B,334,Incorrect
1,new_learn,10,190,A,32.94139989028668,60.98784779560751,1.6470699945143341,0.957994872964665,B,265,Incorrect
1,new_learn,10,191,A,68.98756509362221,88.18009699294002,3.4493782546811103,1.3851297245292786,A,217,Correct
1,new_learn,10,192,A,20.760821059699964,43.728885588280534,1.0380410529849982,0.6868917285690535,A,409,Correct
1,new_learn,10,193,B,79.17804019011973,57.363647730708365,3.958902009505987,0.901066071469531,B,433,Correct
1,new_learn,10,194,A,42.9199394800468,67.52857389024217,2.14599697400234,1.0607363582049016,A,469,Correct
1,new_learn,10,195,A,12.38861971408231,31.848708883690477,0.6194309857041155,0.5002783492766099,B,474,Incorrect
1,new_learn,10,196,A,24.859417591579067,35.53368799657255,1.2429708795789534,0.5581618658249207,A,433,Correct
1,new_learn,10,197,A,62.61172148453481,73.48476701065114,3.130586074226741,1.154296020957096,B,763,Incorrect
1,new_learn,10,198,B,54.67142326626832,42.969441172179245,2.733571163313416,0.6749624035768856,B,443,Correct
1,new_learn,10,199,A,22.171563290330287,47.19444001772669,1.1085781645165143,0.7413285302498716,A,518,Correct
1,new_learn,10,200,B,77.26077603887398,46.55671605797591,3.8630388019436994,0.7313111857150154,A,525,Incorrect
1,new_learn,10,201,A,30.175324626920045,46.82036147274538,1.5087662313460022,0.7354525182059775,A,383,Correct
1,new_learn,10,202,B,78.30854817306263,66.5388021672216,3.9154274086531315,1.04518906033604,B,301,Correct
1,new_learn,10,203,B,68.41545572404509,36.54565861040599,3.420772786202255,0.5740578630552601,A,302,Incorrect
1,new_learn,10,204,B,53.60122151648601,33.7465666978702,2.6800610758243004,0.5300898301095349,B,60,Correct
1,new_learn,10,205,B,44.88756038135412,25.517134212682034,2.244378019067706,0.4008222069161332,B,469,Correct
1,new_learn,10,206,B,39.37038311160774,19.38431524143415,1.968519155580387,0.3044881117867909,B,398,Correct
1,new_learn,10,207,A,42.78569475353687,59.287635509598296,2.1392847376768436,0.9312880008283169,B,376,Incorrect
1,new_learn,10,208,A,32.459444750533024,46.05212874107994,1.622972237526651,0.7233851466757406,A,306,Correct
1,new_learn,10,209,A,24.0081257374026,47.096167612003164,1.20040628687013,0.7397848709105135,B,386,Incorrect
1,new_learn,10,210,A,56.86459043540556,85.79915472811375,2.8432295217702777,1.3477299708902806,A,270,Correct
1,new_learn,10,211,A,59.790913602193,78.26868700010417,2.9895456801096496,1.229441660428231,A,298,Correct
1,new_learn,10,212,A,42.70372242162524,52.37236332973553,2.135186121081262,0.8226631594391631,A,280,Correct
1,new_learn,10,213,B,41.8635816953909,27.330726859321576,2.093179084769545,0.4293100535925695,A,391,Incorrect
1,new_learn,10,214,B,58.698758246094826,26.062538267906383,2.934937912304741,0.40938939378178774,A,314,Incorrect
1,new_learn,10,215,A,19.362725190748208,46.05002737677172,0.9681362595374103,0.7233521385223745,B,257,Incorrect
1,new_learn,10,216,A,50.351931927684134,59.771862337493616,2.5175965963842066,0.9388942180542519,A,473,Correct
1,new_learn,10,217,A,24.2193566606606,38.89727624490872,1.21096783303303,0.6109969864782901,A,628,Correct
1,new_learn,10,218,A,20.69387809505714,37.77904383733771,1.0346939047528572,0.5934318328951345,A,455,Correct
1,new_learn,10,219,A,47.74575574539672,65.23152265122056,2.3872877872698357,1.0246543617177535,B,369,Incorrect
1,new_learn,10,220,B,44.60592082739666,30.694874126820743,2.230296041369833,0.4821539552984173,B,351,Correct
1,new_learn,10,221,B,50.505848454688945,33.80866778760223,2.525292422734447,0.5310653117459452,B,361,Correct
1,new_learn,10,222,B,56.94486442329203,27.19163521568658,2.8472432211646015,0.4271252071634723,B,375,Correct
1,new_learn,10,223,B,54.56090914688785,26.46805056929196,2.728045457344393,0.4157591661166538,B,360,Correct
1,new_learn,10,224,A,47.611692713640586,66.11640194207325,2.3805846356820295,1.0385540131150361,B,317,Incorrect
1,new_learn,10,225,B,55.9412741103845,29.90303818398459,2.797063705519225,0.46971582539410534,A,279,Incorrect
1,new_learn,10,226,B,86.37589291549168,57.51664036141983,4.3187946457745845,0.9034692740930137,B,571,Correct
1,new_learn,10,227,A,58.75865311162138,83.30999044466446,2.937932655581069,1.3086302697579688,B,435,Incorrect
1,new_learn,10,228,A,51.28877021517598,79.629770321036,2.564438510758799,1.2508215072380464,B,39,Incorrect
1,new_learn,10,229,B,41.493867941561064,28.427615276099047,2.074693397078053,0.4465399365523487,A,224,Incorrect
1,new_learn,10,230,A,16.46831276357328,35.45115712320925,0.823415638178664,0.5568654738976582,B,280,Incorrect
1,new_learn,10,231,B,73.75965243880192,59.120485404383956,3.687982621940096,0.9286624131153762,A,427,Incorrect
1,new_learn,10,232,A,26.822082639622543,48.68686440535435,1.3411041319811272,0.764771477710918,A,329,Correct
1,new_learn,10,233,B,78.32802913166468,60.84201418353656,3.916401456583234,0.9557041239430223,B,430,Correct
1,new_learn,10,234,A,61.1455635770174,86.521120199326,3.0572781788508703,1.3590705779928103,B,434,Incorrect
1,new_learn,10,235,B,71.38035651645642,52.20107190284827,3.5690178258228205,0.8199725199975034,A,456,Incorrect
1,new_learn,10,236,A,60.851121679702445,70.3816702978446,3.0425560839851222,1.1055526917754377,A,445,Correct
1,new_learn,10,237,A,50.96859290886684,63.68851260738455,2.548429645443342,1.0004168166271012,A,497,Correct
1,new_learn,10,238,A,24.30469255680199,38.8690568570173,1.2152346278400996,0.6105537173698475,A,789,Correct
1,new_learn,10,239,B,74.65876078667932,44.646882593183655,3.7329380393339657,0.701311591802159,B,529,Correct
1,new_learn,10,240,A,31.25451977978475,40.07330543432835,1.5627259889892375,0.6294700097877293,A,409,Correct
1,new_learn,10,241,A,40.160346550862265,62.647548455716326,2.0080173275431132,0.9840653899694449,A,749,Correct
1,new_learn,10,242,B,45.72305847518857,22.197061388992083,2.2861529237594285,0.34867062495469586,A,757,Incorrect
1,new_learn,10,243,A,57.146955154955926,68.92200495429282,2.8573477577477964,1.0826243221754281,B,796,Incorrect
1,new_learn,10,244,B,48.18336798493039,19.77611691180256,2.4091683992465196,0.310642518033259,A,242,Incorrect
1,new_learn,10,245,B,80.20083201232649,49.14055684723331,4.010041600616324,0.771898061922899,B,260,Correct
1,new_learn,10,246,A,30.854352497612478,52.23565277861893,1.542717624880624,0.8205157151238823,B,398,Incorrect
1,new_learn,10,247,B,73.96760013503743,45.086241842018865,3.6983800067518713,0.7082130307442961,A,420,Incorrect
1,new_learn,10,248,B,74.46205682476108,52.58166374718408,3.723102841238054,0.8259508427084112,B,303,Correct
1,new_learn,10,249,B,82.88226331517579,67.28428053809498,4.14411316575879,1.0568990072027695,B,356,Correct
1,new_learn,10,250,A,36.28045248701804,63.65941331225106,1.814022624350902,0.9999597259680212,B,305,Incorrect
1,new_learn,10,251,A,46.92942703919894,61.2881711587029,2.346471351959947,0.9627123413206743,A,419,Correct
1,new_learn,10,252,A,62.369113942302505,79.70665976602176,3.1184556971151256,1.2520292838155753,A,414,Correct
1,new_learn,10,253,B,61.403144249382215,37.98661749552035,3.0701572124691108,0.5966923922932612,A,456,Incorrect
1,new_learn,10,254,B,44.483047476807634,35.48481340026904,2.2241523738403814,0.5573941454614493,B,486,Correct
1,new_learn,10,255,B,57.5339085468922,25.8484627164653,2.87669542734461,0.4060267028831852,B,337,Correct
1,new_learn,10,256,B,50.123612169515326,38.506360489129804,2.5061806084757663,0.6048564961456523,B,411,Correct
1,new_learn,10,257,A,39.054274701100596,66.1939269605678,1.9527137350550299,1.0397717732578957,B,403,Incorrect
1,new_learn,10,258,A,51.69667543891982,68.94098151396791,2.584833771945991,1.0829224052777566,A,503,Correct
1,new_learn,10,259,B,70.5720965303089,40.36376392506697,3.528604826515445,0.6340325210911155,A,367,Incorrect
1,new_learn,10,260,A,43.90633485924415,72.19406758373505,2.1953167429622074,1.134021761769135,B,398,Incorrect
1,new_learn,10,261,A,62.24326122202213,72.68965304556144,3.112163061101106,1.1418063999996337,A,319,Correct
1,new_learn,10,262,A,53.270725106533185,74.59551731886096,2.6635362553266595,1.1717436459983188,A,474,Correct
1,new_learn,10,263,A,37.933993764124885,59.06225287400054,1.8966996882062443,0.9277476986671137,A,383,Correct
1,new_learn,10,264,B,59.4225646282939,52.11133501183922,2.971128231414695,0.8185629362097534,A,428,Incorrect
1,new_learn,10,265,B,41.525875166975645,29.064174674607,2.076293758348782,0.45653898820197936,B,503,Correct
1,new_learn,10,266,B,85.31689496862104,56.41770230258641,4.265844748431053,0.8862071954311072,B,606,Correct
1,new_learn,10,267,B,35.560401506382334,17.59937760449416,1.7780200753191167,0.27645037695015795,A,579,Incorrect
1,new_learn,10,268,A,13.657368412381675,33.957511199185404,0.6828684206190837,0.53340333858777,A,621,Correct
1,new_learn,10,269,A,26.88932479128589,57.058353316865535,1.3444662395642946,0.896270518030978,A,730,Correct
1,new_learn,10,270,A,46.73380850745092,78.29451347401348,2.336690425372546,1.2298473417317393,B,714,Incorrect
1,new_learn,10,271,A,36.297245195896814,50.43916995789606,1.8148622597948405,0.7922966289644664,A,412,Correct
1,new_learn,10,272,A,48.32292041387282,63.00657518568228,2.416146020693641,0.989704968655962,B,579,Incorrect
1,new_learn,10,273,A,23.07761932614058,42.487036579513145,1.153880966307029,0.6673848099549966,A,441,Correct
1,new_learn,10,274,A,29.723171933970356,62.23882190399962,1.4861585966985178,0.9776451283084436,A,425,Correct
1,new_learn,10,275,A,47.54304584113756,58.89040279400674,2.3771522920568784,0.9250482839229771,B,586,Incorrect
1,new_learn,10,276,A,61.91010249870052,73.00871607159137,3.095505124935026,1.1468182302926724,A,437,Correct
1,new_learn,10,277,A,32.80785155785084,47.67527756277465,1.640392577892542,0.7488815087453358,B,631,Incorrect
1,new_learn,10,278,A,22.883525233841393,36.32743284373721,1.1441762616920697,0.570629980728307,A,1087,Correct
1,new_learn,10,279,B,79.36498185678508,59.777307192347095,3.968249092839254,0.9389797456342897,A,315,Incorrect
1,new_learn,10,280,A,52.30593188455111,76.22944729093493,2.615296594227555,1.1974093579820577,A,692,Correct
1,new_learn,10,281,A,45.35601931906875,70.68291973552444,2.2678009659534375,1.110284706877003,A,371,Correct
1,new_learn,10,282,A,34.742156571488906,57.340491939901376,1.7371078285744455,0.9007023411580946,B,231,Incorrect
1,new_learn,10,283,A,30.905080916221173,62.51084960756071,1.5452540458110589,0.9819181294838455,107,406,Correct
1,new_learn,10,284,A,30.526429096661438,41.42561558198118,1.526321454833072,0.6507120479139347,107,442,Correct
1,new_learn,10,285,A,43.173320198554414,55.037803599347264,2.1586660099277206,0.8645317972871361,A,529,Correct
1,new_learn,10,286,B,37.81503138531019,16.98347389973132,1.8907515692655097,0.2667757841791495,107,420,Incorrect
1,new_learn,10,287,B,39.36562677409267,25.73572456903075,1.9682813387046334,0.4042558162043868,B,343,Correct
1,new_learn,10,288,A,31.742847483417528,63.17386677852751,1.5871423741708766,0.9923327788514117,B,333,Incorrect
1,new_learn,10,289,A,54.12692320896429,77.91912857343216,2.7063461604482146,1.2239508095020653,A,576,Correct
1,new_learn,10,290,A,42.49764598309106,60.18172870988002,2.124882299154553,0.945332383976465,A,308,Correct
1,new_learn,10,291,B,60.01544048162287,29.25632922322636,3.0007720240811433,0.4595573447934616,A,370,Incorrect
1,new_learn,10,292,A,60.257967889937845,86.71271553869938,3.0128983944968923,1.3620801505459974,B,364,Incorrect
1,new_learn,10,293,A,22.570628740987416,53.28158596153388,1.1285314370493709,0.8369451951418395,B,284,Incorrect
1,new_learn,10,294,B,72.54230326923833,42.55665902410557,3.6271151634619168,0.6684784367572791,B,633,Correct
1,new_learn,10,295,A,20.034486733651633,40.67222070508589,1.0017243366825817,0.6388777488614025,A,620,Correct
1,new_learn,10,296,B,84.19968974250753,68.16667997371742,4.209984487125377,1.0707597051251856,B,522,Correct
1,new_learn,10,297,A,37.20404878488365,59.82127480135535,1.8602024392441825,0.939670387221571,A,629,Correct
1,new_learn,10,298,A,32.50008920448175,43.5740581641014,1.6250044602240876,0.6844597050771765,A,603,Correct
1,new_learn,10,299,A,50.98568979546174,58.439758748399335,2.5492844897730866,0.9179695838076559,A,620,Correct
1,new_learn,10,300,A,53.62958031433259,63.42593021045441,2.6814790157166293,0.9962921819813124,A,643,Correct
1,new_learn,10,301,A,29.32003174455848,44.761969844959246,1.466001587227924,0.7031193781256591,A,643,Incorrect
1,new_learn,10,302,B,50.288363455684824,20.048806244327725,2.514418172784241,0.3149259120521258,B,2759,Incorrect
1,new_learn,10,303,B,77.88855953071601,48.64687133994095,3.8944279765358005,0.7641432681084319,B,439,Correct
1,new_learn,10,304,B,76.22932778123867,55.53248737513453,3.8114663890619336,0.8723022718664528,B,350,Incorrect
1,new_learn,10,305,B,85.40679063770708,65.46346607037222,4.270339531885354,1.0282977204260304,A,399,Correct
1,new_learn,10,306,A,12.057193797023544,39.48550258319684,0.6028596898511772,0.6202368241933599,A,417,Incorrect
1,new_learn,10,307,B,56.558410529325144,43.398160336761265,2.8279205264662575,0.6816967084664056,B,488,Incorrect
1,new_learn,10,308,A,18.196948514474123,32.29338006681845,0.909847425723706,0.5072632278874996,B,442,Incorrect
1,new_learn,10,309,B,66.11401873448762,52.703473171425124,3.3057009367243806,0.8278642206700796,B,45,Incorrect
1,new_learn,10,310,B,60.47710198837057,51.45835402650059,3.0238550994185283,0.808305934877385,A,434,Incorrect
1,new_learn,10,311,A,20.59086591913003,42.841295026643266,1.0295432959565016,0.672949488629877,B,114,Correct
1,new_learn,10,312,A,58.102146585231296,66.44983655994845,2.905107329261565,1.0437915918448826,A,276,Correct
1,new_learn,10,313,B,86.53645020159479,62.71251115557957,4.326822510079739,0.9850858216726838,A,353,Incorrect
1,new_learn,10,314,A,40.12535504990768,60.1915709229995,2.006267752495384,0.9454869850986212,B,302,Incorrect
1,new_learn,10,315,A,24.4201676614152,39.638354167646064,1.22100838307076,0.6226378112673361,B,458,Correct
1,new_learn,10,316,A,34.93926475482738,53.632264316759965,1.7469632377413689,0.8424536378645957,A,277,Incorrect
1,new_learn,10,317,B,73.0840021672149,60.924133333020265,3.6542001083607456,0.9569940485267074,A,236,Correct
1,new_learn,10,318,A,48.04687842056309,70.75795295604647,2.4023439210281543,1.1114633259488387,B,293,Correct
1,new_learn,10,319,B,59.34634759717887,41.79572967068119,2.967317379858944,0.6565257864241849,A,304,Incorrect
1,new_learn,10,320,B,67.46753007993466,36.50276231626332,3.3733765039967327,0.573384049642536,A,279,Incorrect
1,new_learn,10,321,A,33.04295412590933,43.80874393458737,1.6521477062954666,0.6881461405394803,A,80,Correct
1,new_learn,10,322,A,27.767637881598944,49.357595492848006,1.3883818940799473,0.7753072969959398,B,253,Correct
1,new_learn,10,323,B,45.95914816788023,31.849299341145112,2.2979574083940117,0.5002876241606186,B,284,Correct
1,new_learn,10,324,A,40.255399290626535,57.84795545381436,2.012769964531327,0.9086735593944638,B,388,Incorrect
1,new_learn,10,325,B,72.49274161862121,48.2007915003216,3.6246370809310604,0.7571362623731185,B,349,Correct
1,new_learn,10,326,A,29.753402628553346,56.279590860142015,1.4876701314276672,0.8840377459663072,A,344,Correct
1,new_learn,10,327,B,75.67128025093929,65.08330492583963,3.7835640125469645,1.022326163131811,A,271,Incorrect
1,new_learn,10,328,B,57.577073166958556,47.60352642445277,2.8788536583479276,0.747754444500142,B,308,Correct
1,new_learn,10,329,A,14.037598539372848,34.79704515444965,0.7018799269686424,0.5465907071192566,A,767,Incorrect
1,new_learn,10,330,A,40.6453546403527,72.25149573223844,2.032267732017635,1.1349238410163727,B,300,Correct
1,new_learn,10,331,B,70.51925596730294,43.51601937822689,3.5259627983651467,0.6835480339605434,B,456,Correct
1,new_learn,10,332,B,35.89383819115702,21.88799783972447,1.794691909557851,0.34381586607533826,A,252,Correct
1,new_learn,10,333,A,58.491840318512146,74.72812761125759,2.924592015925607,1.1738266836002371,B,293,Incorrect
1,new_learn,10,334,B,84.81582172125839,68.13737926613439,4.240791086062919,1.0702994506867463,A,469,Correct
1,new_learn,10,335,A,28.890120526331323,38.32425040869388,1.444506026316566,0.6019959176914416,A,253,Correct
1,new_learn,10,336,B,47.97099095822179,24.34243767994216,2.3985495479110894,0.3823701169288683,A,342,Incorrect
1,new_learn,10,337,B,88.12562854809951,69.07618342956617,4.406281427404975,1.0850461520017305,B,478,Correct
1,new_learn,10,338,B,71.38306083717526,56.93185341672492,3.569153041858763,0.8942834622461698,A,475,Correct
1,new_learn,10,339,A,60.71302324485177,86.35738219133992,3.035651162242589,1.3564985873777975,A,424,Correct
1,new_learn,10,340,A,13.937592569117545,31.037356394668688,0.6968796284558771,0.4875336541816967,B,177,Correct
1,new_learn,10,341,A,17.56279771299184,32.83870084664984,0.878139885649592,0.5158291066663404,B,261,Correct
1,new_learn,10,342,A,48.059398979105026,59.963420825760835,2.4029699489552514,0.9419032117516172,B,355,Incorrect
1,new_learn,10,343,B,33.826932499665396,18.258443114049932,1.6913466249832698,0.2868029537654321,A,95,Incorrect
1,new_learn,10,344,A,26.505136948701892,50.57907428639676,1.3252568474350945,0.7944942410175824,B,131,Correct
1,new_learn,10,345,A,30.196553412979135,47.271029083152015,1.5098276706489568,0.7425315884762992,B,281,Incorrect
1,new_learn,10,346,B,76.14999831260165,56.71124066788056,3.807499915630083,0.8908180852908815,A,463,Incorrect
1,new_learn,10,347,A,32.25521068467329,60.394437431284466,1.6127605342336642,0.9486736047590586,B,288,Correct
1,new_learn,10,348,A,36.13131890986918,62.770532763499766,1.806565945493459,0.9859972229586413,B,253,Correct
1,new_learn,10,349,B,79.48434137246684,66.52670346902082,3.974217068623342,1.044999014429112,B,249,Incorrect
1,new_learn,10,350,B,47.58471301688749,26.426692970263,2.3792356508443744,0.4151095224702564,A,473,Incorrect
1,new_learn,10,351,A,34.731323282592285,55.12513105651185,1.7365661641296142,0.8659035337765608,A,311,Incorrect
1,new_learn,10,352,B,60.676512643921974,40.123335157869036,3.033825632196099,0.6302558748474121,B,209,Incorrect
1,new_learn,10,353,B,30.366904142755207,14.580020488819084,1.5183452071377603,0.2290224262843135,B,1078,Correct
1,new_learn,10,354,A,53.38345460337763,80.86651799818603,2.6691727301688815,1.27024829432244,A,297,Correct
1,new_learn,10,355,B,60.17502522154203,46.001008030125256,3.008751261077101,0.7225821444258329,A,277,Incorrect
1,new_learn,10,356,B,45.730451427552914,15.875523760898854,2.286522571377646,0.2493721440956502,A,422,Incorrect
1,new_learn,10,357,A,40.23542916148831,48.04727429951509,2.0117714580744153,0.7547248198218514,B,134,Correct
1,new_learn,10,358,B,69.91162746012415,41.981373611899244,3.4955813730062073,0.6594418746337554,B,283,Incorrect
1,new_learn,10,359,A,48.97490787531301,73.19943112875427,2.4487453937656505,1.1498139754052323,A,285,Correct
1,new_learn,10,360,A,41.78973776558985,69.37015230704395,2.0894868882794926,1.0896638043310716,A,360,Correct
1,new_learn,10,361,B,87.32589414710196,65.33016764340042,4.366294707355098,1.0262038736314818,B,127,Incorrect
1,new_learn,10,362,A,67.96982043802433,88.2898298403114,3.3984910219012163,1.386853404065076,B,80,Incorrect
1,new_learn,10,363,A,44.439630054159615,74.36477084552483,2.2219815027079806,1.1681190888709463,B,394,Correct
1,new_learn,10,364,A,40.714628257458216,63.54776762185139,2.035731412872911,0.9982059995641982,A,270,Correct
1,new_learn,10,365,A,63.180546045255674,72.98239194967417,3.1590273022627837,1.1464047319525361,A,223,Incorrect
1,new_learn,10,366,A,36.873289226267566,47.79061196793499,1.8436644613133781,0.7506931773451251,A,249,Correct
1,new_learn,10,367,A,31.24794020134007,51.3046134035835,1.5623970100670035,0.8058909828198119,B,229,Correct
1,new_learn,10,368,B,45.62750241494526,32.85648521577936,2.281375120747263,0.5161084628833704,A,297,Correct
1,new_learn,10,369,B,81.82731039615855,59.23533064036241,4.091365519807928,0.9304663978636246,B,291,Correct
1,new_learn,10,370,B,56.917366816166236,27.180080010059278,2.8458683408083116,0.42694369841792507,A,239,Correct
1,new_learn,10,371,A,52.47409174806065,63.39634973146071,2.6237045874030325,0.9958275329038312,B,190,Incorrect
1,new_learn,10,372,A,53.30438237902786,76.47735893218317,2.6652191189513927,1.2013035449364817,B,259,Correct
1,new_learn,10,373,A,42.44632602546307,57.97604009009932,2.1223163012731536,0.9106855081564168,A,162,Incorrect
1,new_learn,10,374,A,21.74746729729857,52.83158320199786,1.0873733648649284,0.8298765683245719,A,25,Correct
1,new_learn,10,375,B,52.66399170254841,39.21952519930732,2.6331995851274206,0.6160588612171183,B,255,Correct
1,new_learn,10,376,A,50.35370781354108,75.26414522319737,2.5176853906770535,1.1822464285595609,A,276,Incorrect
1,new_learn,10,377,B,66.05623215803013,41.26330580245865,3.302811607901506,0.6481624918591659,A,323,Incorrect
1,new_learn,10,378,A,32.353012527834146,46.521731225167436,1.6176506263917074,0.7307616452463246,A,271,Correct
1,new_learn,10,379,B,53.213509823780626,43.208452316261784,2.660675491189031,0.6787167818487645,B,34,Correct
1,new_learn,10,380,A,44.8183555408681,74.38517736317225,2.240917777043405,1.1684396337005785,A,260,Correct
1,new_learn,10,381,A,60.89975098127165,87.38065989752583,3.044987549063583,1.372572195999477,B,256,Incorrect
1,new_learn,10,382,B,49.8101615242501,21.07703270679315,2.490508076212505,0.33107725555566575,B,193,Correct
1,new_learn,10,383,B,62.867134979666815,37.55041705457344,3.143356748983341,0.589840571789404,A,233,Incorrect
1,new_learn,10,384,B,61.52933639813286,49.2341281501417,3.0764668199066434,0.773367876511918,A,92,Correct
1,new_learn,10,385,A,37.01115811846726,65.3766466040295,1.8505579059233628,1.0269339634377759,B,211,Correct
1,new_learn,10,386,B,60.573004326134956,30.9657626203469,3.028650216306748,0.4864090618044362,A,235,Correct
1,new_learn,10,387,B,45.353654052865764,20.49513661721715,2.267682702643288,0.3219368531548428,B,309,Incorrect
1,new_learn,10,388,A,59.28308464866119,86.042340145206,2.9641542324330596,1.3515499184892665,B,224,Correct
1,new_learn,10,389,A,39.94039581293101,62.20473678428333,1.9970197906465503,0.9771097204999565,A,272,Correct
1,new_learn,10,390,A,48.2304314690913,69.81464334677929,2.4115215734545647,1.0966458532561667,B,155,Incorrect
1,new_learn,10,391,A,59.66185918840171,83.46431782251366,2.9830929594200857,1.311054438540463,B,214,Incorrect
1,new_learn,10,392,A,67.92730206904537,88.50776813980261,3.3963651034522684,1.3902767708681631,B,62,Correct
1,new_learn,10,393,B,71.64001948453884,42.72447683920474,3.5820009742269416,0.6711145128325644,A,311,Incorrect
1,new_learn,10,394,B,42.957432679907534,15.544909906447849,2.1478716339953765,0.2441788738140588,A,215,Incorrect
1,new_learn,10,395,B,57.75186037224574,30.26274216141976,2.8875930186122867,0.475366042258992,A,233,Correct
1,new_learn,10,396,B,57.65213136021529,26.803479426176334,2.882606568010765,0.4210280702796037,B,231,Correct
1,new_learn,10,397,B,58.0103279224942,33.291178329464536,2.9005163961247096,0.5229366063459676,A,262,Correct
1,new_learn,10,398,B,68.78123488754906,48.35176074703335,3.439061744377453,0.7595076817550566,B,267,Correct
1,new_learn,10,399,A,29.541861147892174,61.15810601979854,1.4770930573946086,0.9606692828963239,A,295,Incorrect
1,new_learn,10,400,B,54.4155803848118,29.387887033309845,2.72077901924059,0.4616238500418647,A,282,Incorrect
1,new_learn,10,401,B,68.05417120529145,39.06465548392728,3.402708560264573,0.613626173416611,A,303,Incorrect
1,new_learn,10,402,A,14.318508605909372,34.69345590447161,0.7159254302954686,0.5449635309856472,A,273,Incorrect
1,new_learn,10,403,B,62.17086858020488,50.54295400776405,3.1085434290102443,0.7939268650075917,A,191,Correct
1,new_learn,10,404,A,26.497430932205333,48.670435712127414,1.3248715466102667,0.7645134164011691,B,471,Incorrect
1,new_learn,10,405,B,73.46864567043386,61.98709575243988,3.673432283521693,0.973691023166161,B,288,Incorrect
1,new_learn,10,406,B,81.61084119538506,54.732946966818034,4.080542059769254,0.8597431205013765,B,123,Correct
1,new_learn,10,407,A,46.24795050701964,59.004562648481624,2.312397525350982,0.9268415027237429,B,524,Incorrect
1,new_learn,10,408,B,79.37298229639521,67.07061226249073,3.9686491148197605,1.0535427137780518,B,467,Incorrect
1,new_learn,10,409,B,77.58235920391607,60.874152120400325,3.8791179601958037,0.956208945474786,B,257,Incorrect
1,new_learn,10,410,B,71.28112025391592,39.441416158070744,3.5640560126957954,0.6195443162468641,A,1182,Incorrect
1,new_learn,10,411,A,13.027249264861037,31.061472086159167,0.6513624632430519,0.48791246257781024,A,367,Correct
1,new_learn,10,412,B,62.71805940633752,53.44772576990506,3.1359029703168755,0.839554913149078,B,309,Incorrect
1,new_learn,10,413,B,78.73827635969096,55.470893758316876,3.936913817984548,0.871334761595941,B,460,Correct
1,new_learn,10,414,B,58.50111015253646,31.026404304462417,2.925055507626823,0.4873616191510294,A,471,Correct
1,new_learn,10,415,B,70.77958615066423,45.16456474278337,3.538979307533211,0.7094433239925441,B,278,Incorrect
1,new_learn,10,416,B,55.98135202638449,35.228758378777684,2.7990676013192246,0.5533720425892892,B,256,Correct
1,new_learn,10,417,B,32.18845801993438,14.27514737890862,1.6094229009967191,0.22423349067245454,A,269,Incorrect
1,new_learn,10,418,A,44.215799761733415,63.413387238327616,2.210789988086671,0.9960951574358738,B,289,Correct
1,new_learn,10,419,A,41.64634476387073,54.52908018381701,2.0823172381935366,0.8565407885624414,B,309,Incorrect
1,new_learn,10,420,B,71.05958242107852,52.224412542886526,3.5529791210539257,0.8203391539138748,A,322,Incorrect
1,new_learn,10,421,A,45.95343373123475,68.24620101952328,2.2976716865617375,1.072008818791733,B,265,Correct
1,new_learn,10,422,B,42.36684368556003,20.648959385660323,2.118342184278001,0.3243530955513224,B,387,Incorrect
1,new_learn,10,423,B,75.80656773441038,58.55973938236821,3.790328386720519,0.9198542351989043,A,566,Correct
1,new_learn,10,424,B,31.143185194138532,13.55217409510935,1.5571592597069266,0.21287705288682718,B,514,Incorrect
1,new_learn,10,425,B,47.65251302943968,38.79310616863723,2.3826256514719844,0.609360686746598,A,339,Correct
1,new_learn,10,426,B,66.8866141608037,54.41139992701013,3.344330708040185,0.8546922714111561,B,517,Correct
1,new_learn,10,427,A,57.9155095781386,77.96938109386281,2.8957754789069297,1.2247401742471118,A,578,Correct
1,new_learn,10,428,B,50.49300417157673,26.376257082222065,2.5246502085788363,0.4143172773935229,A,427,Incorrect
1,new_learn,10,429,B,70.9365041966392,52.97852927425752,3.54682520983196,0.8321847918299962,B,37,Correct
1,new_learn,10,430,A,43.63103652038248,56.492233430194915,2.181551826019124,0.8873779276459004,B,302,Incorrect
1,new_learn,10,431,B,62.72374430787019,36.41733018155858,3.1361872153935098,0.5720420848086916,B,359,Incorrect
1,new_learn,10,432,A,53.8004900091014,65.5037996084702,2.6900245004550705,1.0289312781609399,A,353,Incorrect
1,new_learn,10,433,A,53.79889313353418,73.19700788942967,2.689944656676709,1.1497759112509318,B,52,Incorrect
1,new_learn,10,434,B,40.85037405431049,24.11217733374791,2.0425187027155247,0.37875319586878375,A,483,Correct
1,new_learn,10,435,B,89.74702385996204,67.40231782839696,4.487351192998102,1.058753132623081,B,242,Correct
1,new_learn,10,436,A,11.778545797599698,33.48710673776736,0.5889272898799849,0.526014242586736,A,303,Incorrect
1,new_learn,10,437,A,43.690789214270666,62.207191508465904,2.184539460713533,0.9771482792172492,B,291,Incorrect
1,new_learn,10,438,B,77.09096959361595,51.422781951338905,3.8545484796807976,0.8077471700273806,A,275,Correct
1,new_learn,10,439,A,39.10706941358605,53.89806608971019,1.9553534706793028,0.8466288423506534,A,349,Correct
1,new_learn,10,440,B,81.11275619762529,51.895746501251,4.055637809881264,0.8151764798044417,A,305,Correct
1,new_learn,10,441,B,69.17791336701416,59.63689820173187,3.458895668350708,0.9367742063672159,A,307,Incorrect
1,new_learn,10,442,A,42.07177527511776,57.411316359357535,2.103588763755888,0.9018148485373857,B,131,Correct
1,new_learn,10,443,B,75.25186789789801,51.19554777990572,3.7625933948949006,0.8041777840092853,A,272,Correct
1,new_learn,10,444,B,84.74859625871551,60.110687513205676,4.237429812935775,0.9442164714685931,B,288,Correct
1,new_learn,10,445,A,45.01131870740701,60.62654611951949,2.2505659353703504,0.952319559508026,A,265,Incorrect
1,new_learn,10,446,B,40.62673653954525,18.61745359226092,2.0313368269772623,0.29244227716997906,A,185,Incorrect
1,new_learn,10,447,B,56.90163258403675,40.78000102934224,2.8450816292018373,0.6405707582358289,A,209,Correct
1,new_learn,10,448,A,27.31450771064537,39.63330096385883,1.3657253855322684,0.6225584357278608,B,333,Correct
1,new_learn,10,449,B,71.74748232588708,44.97537827425965,3.5873741162943538,0.7064715898941805,A,361,Correct
1,new_learn,10,450,B,42.57500954247872,15.259393160224555,2.1287504771239356,0.23969398725199897,B,348,Incorrect
1,new_learn,10,451,A,63.35570091482023,80.58577079444511,3.1677850457410113,1.2658383275584983,B,319,Incorrect
1,new_learn,10,452,B,78.23637436095356,59.520478731533466,3.911818718047678,0.9349454936056654,B,54,Incorrect
1,new_learn,10,453,A,52.43808955403631,75.42272268400963,2.6219044777018157,1.1847373574891245,B,244,Correct
1,new_learn,10,454,B,85.54801855088274,60.154275996959136,4.277400927544137,0.9449011577702982,A,264,Correct
1,new_learn,10,455,A,53.421315792363615,73.20027643387954,2.6710657896181806,1.1498272534270901,B,213,Incorrect
1,new_learn,10,456,A,54.40661523202196,73.35588415144102,2.7203307616010983,1.1522715337387552,B,278,Correct
1,new_learn,10,457,B,42.02478474504609,14.206829757353994,2.1012392372523045,0.22316035998252085,A,295,Correct
1,new_learn,10,458,B,70.99627597663826,58.14719894564043,3.5498137988319125,0.9133740651722407,B,250,Incorrect
1,new_learn,10,459,B,77.72722359414917,59.69094152011664,3.886361179707458,0.9376231168272819,B,253,Correct
1,new_learn,10,460,B,74.13407703397684,45.30143674774555,3.7067038516988418,0.7115933044189005,A,303,Correct
1,new_learn,10,461,B,38.17868896480465,26.01921760750751,1.9089344482402324,0.40870891443949897,B,450,Incorrect
1,new_learn,10,462,A,44.23537078458954,57.91251270647298,2.2117685392294772,0.9096876223479052,A,370,Correct
1,new_learn,10,463,B,56.37638761386037,40.75806010989394,2.818819380693019,0.6402261110790699,B,314,Correct
1,new_learn,10,464,B,68.72927885451438,48.24439710901779,3.436463942725719,0.7578212176727946,B,437,Correct
1,new_learn,10,465,B,44.87808663581417,18.57211436831742,2.2439043317907084,0.2917300903056772,B,377,Correct
1,new_learn,10,466,B,74.49638494645973,55.664423675389344,3.724819247322986,0.8743747224245644,A,283,Incorrect
1,new_learn,10,467,B,57.56083274030728,47.839276843814886,2.878041637015364,0.7514576034278857,A,257,Incorrect
1,new_learn,10,468,B,60.43529905084239,27.998698285284576,3.0217649525421195,0.43980252421563576,A,108,Incorrect
1,new_learn,10,469,A,40.30570827583493,58.871481479563904,2.0152854137917466,0.9247510686107276,A,158,Incorrect
1,new_learn,10,470,B,61.8795794897911,52.109013168158654,3.093978974489555,0.8185264647745052,A,243,Correct
1,new_learn,10,471,A,32.7072943046604,50.9837183310584,1.63536471523302,0.8008503748077217,A,340,Incorrect
1,new_learn,10,472,A,45.94304029328478,61.94325418822361,2.2971520146642392,0.9730023614858425,B,269,Correct
1,new_learn,10,473,B,74.33149256887332,62.72399553168523,3.716574628443666,0.9852662178307067,B,278,Incorrect
1,new_learn,10,474,A,43.88482520548609,63.46799196358289,2.1942412602743047,0.9969528864544401,A,253,Incorrect
1,new_learn,10,475,A,59.623708274991884,83.45756041386046,2.981185413749594,1.3109482934135517,B,317,Correct
1,new_learn,10,476,A,59.30161604021468,76.53975137821564,2.965080802010734,1.2022836031869575,B,322,Incorrect
1,new_learn,10,477,B,58.60758798931977,27.350167321631496,2.9303793994659886,0.4296154236604456,A,414,Correct
1,new_learn,10,478,B,88.09056722574077,66.13829554254075,4.4045283612870385,1.038897916986983,A,207,Correct
1,new_learn,10,479,B,77.71798154529594,48.72300878965924,3.8858990772647974,0.765339232371922,B,294,Correct
1,new_learn,10,480,A,46.26961576824217,74.69996620237885,2.3134807884121087,1.1733843252239962,B,413,Correct
1,new_learn,10,481,B,65.93416802946733,40.8261593474968,3.2967084014733667,0.6412958114019109,B,464,Correct
1,new_learn,10,482,B,64.60097456063251,45.41564232220723,3.2300487280316252,0.7133872413875397,B,525,Incorrect
1,new_learn,10,483,B,83.85352270258267,59.41998278846543,4.192676135129133,0.9333669070233749,B,316,Incorrect
1,new_learn,10,484,A,20.69719614778687,38.941522687246,1.0348598073893434,0.6116920079692615,B,395,Incorrect
1,new_learn,10,485,A,33.608912561163315,64.1779816230179,1.6804456280581659,1.008105377945469,A,228,Correct
1,new_learn,10,486,B,45.72518363470792,27.70621265127062,2.286259181735396,0.43520817062014183,A,317,Incorrect
1,new_learn,10,487,B,50.47254283579565,21.842134321525304,2.5236271417897824,0.3430954436161269,B,285,Correct
1,new_learn,10,488,B,40.017990442751646,16.52892400434021,2.0008995221375825,0.259635731118896,A,388,Correct
1,new_learn,10,489,A,49.73103116836337,66.82091092394542,2.4865515584181686,1.0496204143242245,B,281,Incorrect
1,new_learn,10,490,B,42.281655166522995,15.781920890845324,2.1140827583261497,0.24790183365107477,A,333,Incorrect
1,new_learn,10,491,B,36.58691185010452,16.161865828648594,1.829345592505226,0.2538699947779317,A,328,Correct
1,new_learn,10,492,A,20.27281721008724,44.93474488436982,1.013640860504362,0.7058333220983388,B,316,Incorrect
1,new_learn,10,493,B,75.7944625314393,53.25444002672923,3.789723126571965,0.8365187877950538,A,355,Correct
1,new_learn,10,494,B,85.2975429506337,60.68026906481293,4.264877147531685,0.9531634375593414,A,308,Incorrect
1,new_learn,10,495,B,57.78171187935248,32.155166016972146,2.8890855939676237,0.5050921666693993,B,289,Incorrect
1,new_learn,10,496,B,63.87878292532463,30.539261296704577,3.1939391462662314,0.479709594678931,A,367,Correct
1,new_learn,10,497,A,55.09443249576175,64.19756617604473,2.7547216247880875,1.0084130113850336,B,398,Incorrect
1,new_learn,10,498,A,33.75924000857583,65.2739836540781,1.6879620004287914,1.0253213375909598,A,436,Correct
1,new_learn,10,499,A,40.60748301369398,72.22955966045802,2.030374150684699,1.1345792700066029,A,262,Incorrect
1,new_learn,10,500,A,42.23928707387636,67.01638792074164,2.111964353693818,1.0526909598096283,B,295,Correct
1,new_learn,10,501,B,52.5158963282167,27.844355634387544,2.625794816410835,0.4373781155246674,B,340,Correct
1,new_learn,10,502,A,61.164928700547364,77.86206463363946,3.0582464350273684,1.2230544512318768,B,287,Correct
1,new_learn,10,503,B,60.174928689138056,34.18000784399738,3.0087464344569024,0.5368983077117183,B,348,Incorrect
1,new_learn,10,504,B,43.070070774322375,34.91727184387622,2.1535035387161185,0.5484792235405963,A,325,Correct
1,new_learn,10,505,A,27.897201944027454,60.45709188469898,1.3948600972013727,0.9496577786118672,A,344,Incorrect
1,new_learn,10,506,A,48.35274071017163,79.18686565361362,2.417637035508582,1.2438643769909725,B,928,Incorrect
1,new_learn,10,507,B,54.7442218436486,26.928006473052548,2.73721109218243,0.4229841365578014,A,456,Incorrect
1,new_learn,10,508,A,30.971110192387528,47.111890902863365,1.5485555096193764,0.7400318517857967,B,391,Incorrect
1,new_learn,10,509,B,41.246926901783205,28.15258390948805,2.06234634508916,0.4422197539480894,A,543,Incorrect
1,new_learn,10,510,B,50.302073819215515,42.56896926441743,2.5151036909607756,0.6686718055599175,B,298,Incorrect
1,new_learn,10,511,B,44.82242688317748,19.221194881331964,2.241121344158874,0.3019258231620512,B,656,Correct
1,new_learn,10,512,A,47.25051675339968,76.34221619327928,2.362525837669984,1.1991807277578497,A,367,Incorrect
1,new_learn,10,513,A,43.32916416503503,75.58952180090913,2.1664582082517514,1.187357431890508,B,461,Correct
1,new_learn,10,514,B,38.026434747405574,25.641572630549554,1.9013217373702787,0.40277688101311787,B,592,Correct
1,new_learn,10,515,A,47.374546732947536,64.34136869276558,2.3687273366473764,1.0106718560355232,A,341,Correct
1,new_learn,10,516,B,40.86306961779218,18.294401161038408,2.043153480889609,0.28736778144671415,B,276,Correct
1,new_learn,10,517,B,58.16761976788631,31.727263260924097,2.9083809883943155,0.4983706858951424,A,285,Incorrect
1,new_learn,10,518,B,61.97492855102292,54.30640655961995,3.0987464275511463,0.8530430394528129,A,135,Correct
1,new_learn,10,519,A,46.477301481103346,57.4919955730691,2.3238650740551674,0.903082154662854,B,240,Correct
1,new_learn,10,520,A,23.142010311866805,45.496153491959305,1.1571005155933403,0.7146519078846648,B,303,Incorrect
1,new_learn,10,521,B,42.93443805548897,29.12809485121371,2.1467219027744484,0.45754304398819834,A,299,Incorrect
1,new_learn,10,522,B,55.97584146026475,33.939312958135375,2.798792073013238,0.5331174812858148,B,345,Correct
1,new_learn,10,523,A,61.04797871517554,82.85695801209381,3.0523989357587773,1.3015140529479594,A,301,Correct
1,new_learn,10,524,B,40.99043854537078,30.344674095384313,2.0495219272685388,0.47665302606817933,B,611,Incorrect
1,new_learn,10,525,B,63.18477903852479,47.66346752736289,3.1592389519262394,0.7486959971428945,A,298,Incorrect
1,new_learn,10,526,B,66.77165437264053,51.41078224432967,3.338582718632026,0.8075586790704533,B,530,Incorrect
1,new_learn,10,527,A,25.08129283259041,43.12559981672496,1.2540646416295205,0.6774153378293821,A,252,Correct
1,new_learn,10,528,B,49.595622706598775,39.05226188040851,2.4797811353299384,0.6134314951477805,113,251,Incorrect
1,new_learn,10,529,A,43.79328511516088,72.69738248979499,2.1896642557580437,1.1419278138257358,B,264,Correct
1,new_learn,10,530,A,62.36049657652457,78.50607293925009,3.1180248288262282,1.2331705100406627,B,277,Incorrect
1,new_learn,10,531,B,42.92280357328568,23.50143259343452,2.1461401786642837,0.36915963992184797,A,220,Incorrect
1,new_learn,10,532,A,19.332079538865113,41.675919085090825,0.9666039769432557,0.65464380614662,B,184,Correct
1,new_learn,10,533,A,40.05966024807361,72.68162466095319,2.0029830124036807,1.1416802904291063,B,221,Incorrect
1,new_learn,10,534,B,41.07283940005567,29.624745621306488,2.0536419700027837,0.4653444160418142,A,366,Incorrect
1,new_learn,10,535,A,57.305044803646325,68.47241907181831,2.865252240182316,1.0755622436477301,B,467,Correct
1,new_learn,10,536,B,62.95327672287195,45.966344708096116,3.147663836143597,0.7220376542366542,B,286,Incorrect
1,new_learn,10,537,B,57.26996921289117,45.47765860319241,2.8634984606445584,0.7143613908512696,A,224,Correct
1,new_learn,10,538,B,51.430135722127254,44.223385214923844,2.5715067861063625,0.6946593105403811,B,469,Incorrect
1,new_learn,10,539,A,21.08410050874456,47.226354207539856,1.054205025437228,0.7418298371711831,A,459,Correct
1,new_learn,10,540,A,53.92211097350464,63.92685890065124,2.696105548675232,1.004160751446786,A,337,Incorrect
1,new_learn,10,541,A,56.467409930185404,64.43684790604794,2.8233704965092703,1.012171640010615,B,349,Correct
1,new_learn,10,542,A,67.61502591398579,81.5352255772014,3.3807512956992896,1.2807523284106126,B,2556,Correct
1,new_learn,10,543,B,42.45893671718338,29.740644399064944,2.1229468358591688,0.46716494978564427,A,366,Incorrect
1,new_learn,10,544,B,57.98315429819671,41.13418523447032,2.8991577149098355,0.6461342707200686,B,287,Correct
1,new_learn,10,545,B,61.08962214627662,51.47603361604794,3.054481107313831,0.8085836452205872,B,360,Incorrect
1,new_learn,10,546,A,61.31053283263033,84.3465269618345,3.065526641631516,1.3249121472955634,A,414,Incorrect
1,new_learn,10,547,A,27.89015730524749,45.04269476513303,1.3945078652623746,0.7075289948601468,B,392,Correct
1,new_learn,10,548,A,15.362720727811372,44.212130691070655,0.7681360363905685,0.6944825248930969,B,319,Correct
1,new_learn,10,549,A,54.644813786368665,65.00119756342293,2.732240689318433,1.021036423698941,B,259,Incorrect
1,new_learn,10,550,A,20.084243723695945,47.09092362968295,1.0042121861847972,0.7397024986288498,A,204,Incorrect
1,new_learn,10,551,B,37.26809198962423,17.878083447940973,1.8634045994812114,0.2808282781015832,A,202,Correct
1,new_learn,10,552,A,22.36853421256899,48.15693614220041,1.1184267106284493,0.756447384018648,B,442,Correct
1,new_learn,10,553,A,32.93763084402726,49.518861153548166,1.6468815422013632,0.7778404520705995,A,265,Incorrect
1,new_learn,10,554,A,44.93603502927038,62.60320230065031,2.246801751463519,0.9833688021945932,B,111,Correct
1,new_learn,10,555,B,47.91163719036996,28.092882869905218,2.395581859518498,0.4412819722112639,B,192,Correct
1,new_learn,10,556,A,27.82113018420248,41.52156653567535,1.391056509210124,0.6522192419700873,B,345,Correct
1,new_learn,10,557,A,37.58387004712807,64.44771233415732,1.8791935023564037,1.0123422980482846,B,377,Correct
1,new_learn,10,558,A,19.029788672067653,48.89283474632185,0.9514894336033827,0.7680068522611225,A,211,Correct
1,new_learn,10,559,A,60.92170997243085,82.2591536177887,3.0460854986215424,1.292123763480796,B,458,Incorrect
1,new_learn,10,560,B,45.06389947730868,36.54749142058206,2.2531949738654338,0.574086652770183,B,543,Incorrect
1,new_learn,10,561,B,34.97725648348826,13.492871833806515,1.7488628241744129,0.2119455351445759,A,389,Incorrect
1,new_learn,10,562,B,56.364034882480674,43.35864433946977,2.8182017441240337,0.6810759926324546,A,412,Correct
1,new_learn,10,563,B,49.26697757803814,21.88179725700197,2.4633488789019067,0.3437184675496934,B,569,Incorrect
1,new_learn,10,564,B,82.3031626457377,51.949049340619865,4.115158132286885,0.8160137588473252,A,213,Incorrect
1,new_learn,10,565,A,17.69963002465609,32.96711801517995,0.8849815012328045,0.5178462788325853,B,263,Incorrect
1,new_learn,10,566,A,50.382646534197185,81.16306690247472,2.5191323267098595,1.2749064736181575,B,297,Incorrect
1,new_learn,10,567,B,84.78177319095465,55.304548841568305,4.239088659547733,0.8687218217538445,B,976,Incorrect
1,new_learn,10,568,A,64.9645298919472,87.40696098447182,3.24822649459736,1.3729853325071315,A,359,Incorrect
1,new_learn,10,569,A,41.06827299173107,70.05061019033145,2.053413649586554,1.100352411767138,B,124,Correct
1,new_learn,10,570,B,45.95691661957282,29.405058572098543,2.297845830978641,0.4618935799424117,B,298,Incorrect
1,new_learn,10,571,B,70.75948457442355,40.37927177331465,3.5379742287211773,0.634276117801755,A,215,Incorrect
1,new_learn,10,572,B,35.70284852289892,13.723385578930309,1.785142426144946,0.21556643658573785,B,178,Correct
1,new_learn,10,573,A,33.766447948770114,66.68403613743843,1.6883223974385058,1.0474703902054643,B,197,Incorrect
1,new_learn,10,574,A,56.6335416540871,77.79535318464795,2.8316770827043545,1.2220065502415667,B,65,Correct
1,new_learn,10,575,B,61.71850101992348,34.900062085600354,3.0859250509961735,0.5482088932897486,A,305,Incorrect
1,new_learn,10,576,B,47.429963618581695,23.33112899446588,2.371498180929085,0.3664845172448491,B,360,Incorrect
1,new_learn,10,577,A,37.587193839431805,60.53238860490591,1.87935969197159,0.9508405367270745,A,320,Correct
1,new_learn,10,578,A,44.37317469620856,74.81798079728318,2.218658734810428,1.1752380941458351,A,273,Correct
1,new_learn,10,579,A,10.156418540126442,32.828972659554125,0.5078209270063221,0.5156762966607771,A,287,Correct
1,new_learn,10,580,A,21.866755141614718,40.49666919767278,1.0933377570807359,0.6361201922313243,B,161,Correct
1,new_learn,10,581,B,49.64697763073778,22.15936267460715,2.482348881536889,0.3480784549338884,B,243,Incorrect
1,new_learn,10,582,B,74.31578599542274,56.093561815771736,3.7157892997711373,0.8811156085705671,A,239,Incorrect
1,new_learn,10,583,A,52.836667153592956,82.58836062934068,2.6418333576796478,1.297294935125806,B,297,Incorrect
1,new_learn,10,584,A,34.203621101620186,53.767548622862336,1.7101810550810093,0.8445786787755813,A,287,Incorrect
1,new_learn,10,585,A,15.969598832943674,42.08657093834128,0.7984799416471837,0.6610943103733933,B,293,Correct
1,new_learn,10,586,B,69.47751093757105,56.109976714946654,3.473875546878553,0.8813734532038537,B,366,Correct
1,new_learn,10,587,B,49.213138864817374,18.657897321032536,2.4606569432408687,0.2930775657759425,B,554,Incorrect
1,new_learn,10,588,B,51.605147022474895,23.016379988538223,2.5802573511237448,0.36154045142111396,A,361,Correct
1,new_learn,10,589,B,51.30104607359501,33.89995698833861,2.565052303679751,0.5324992791578728,B,412,Incorrect
1,new_learn,10,590,B,75.22519452835853,56.94986604106275,3.7612597264179266,0.8945664038876279,A,317,Incorrect
1,new_learn,10,591,A,20.03636625332259,41.687204276676866,1.0018183126661295,0.6548210735215252,A,247,Incorrect
1,new_learn,10,592,A,63.3539782388053,77.66481732389792,3.167698911940265,1.2199560977357549,A,92,Incorrect
1,new_learn,10,593,B,32.89453070471204,17.75642562961006,1.6447265352356022,0.27891728155998236,A,226,Correct
1,new_learn,10,594,A,39.180243040698564,50.25037610835054,1.9590121520349282,0.7893310621105907,B,412,Incorrect
1,new_learn,10,595,A,22.744163270335715,53.38986547229748,1.1372081635167859,0.8386460457195856,B,564,Correct
1,new_learn,10,596,B,77.40246644425031,65.75606537123893,3.8701233222125153,1.0328938594962722,B,295,Incorrect
1,new_learn,10,597,A,20.021177248356345,43.45690144757457,1.0010588624178172,0.6826194116773796,B,20,Correct
1,new_learn,10,598,B,35.702254005513865,18.38887054985341,1.785112700275693,0.28885170313616587,B,251,Correct
1,new_learn,10,599,B,44.77350631306753,23.042184582351258,2.238675315653376,0.36194578903287355,B,357,Incorrect
1,new_learn,10,600,B,56.95971404700925,18.84443966169681,2.8479857023504627,0.29600776601101414,A,263,Incorrect
1,new_learn,10,601,B,24.34243767994216,52.02900904177821,1.217121883997108,0.8172697628960367,A,1993,Incorrect
1,new_learn,10,602,A,40.0132746471563,73.12240776839204,2.000663732357815,1.1486040952898882,B,1245,Incorrect
1,new_learn,10,603,A,77.37556748759756,37.76864598579379,3.868778374379878,0.593268503825017,B,730,Incorrect
1,new_learn,10,604,B,36.54749142058206,54.93610052269132,1.827374571029103,0.8629342490947872,A,843,Incorrect
1,new_learn,10,605,A,48.93352558360148,60.969129373230174,2.446676279180074,0.9577008446735279,A,604,Correct
1,new_learn,10,606,B,13.463163766218827,62.0177602420263,0.6731581883109413,0.9741726998422149,A,663,Incorrect
1,new_learn,10,607,B,18.70712879440905,57.46768495082612,0.9353564397204525,0.9027002843016402,A,687,Incorrect
1,new_learn,10,608,B,58.57685847622984,16.644451180879685,2.9288429238114917,0.2614504277644279,B,569,Correct
1,new_learn,10,609,B,23.33112899446588,52.570036381418305,1.166556449723294,0.8257682004740595,A,629,Incorrect
1,new_learn,10,610,B,17.878083447940973,62.73190801037577,0.8939041723970488,0.985390506755336,B,936,Correct
1,new_learn,10,611,A,43.504152309784956,82.01969423880567,2.175207615489248,1.2883623443515648,B,823,Incorrect
1,new_learn,10,612,A,38.639838398112005,80.28898379037328,1.9319919199056002,1.2611764082001333,A,427,Correct
1,new_learn,10,613,B,44.85963459304338,23.03016077494648,2.2429817296521692,0.36175691950781835,B,584,Correct
1,new_learn,10,614,B,39.21952519930732,47.33600829745159,1.9609762599653662,0.7435522795876971,A,477,Incorrect
1,new_learn,10,615,A,76.71630569805535,48.04836614539995,3.8358152849027674,0.7547419704969051,B,625,Incorrect
1,new_learn,10,616,A,59.27767559213758,52.704912153171016,2.9638837796068787,0.8278868241424873,B,631,Incorrect
1,new_learn,10,617,B,48.24439710901779,31.270721145485624,2.4122198554508896,0.49119933911556324,B,1522,Correct
1,new_learn,10,618,A,34.79593606175115,82.42109597881748,1.7397968030875575,1.294667548139361,A,1052,Correct
1,new_learn,10,619,A,39.48550258319684,87.94280620297646,1.9742751291598422,1.3814023695167086,A,817,Correct
1,new_learn,10,620,A,87.40696098447182,35.035470108052806,4.370348049223591,0.5503358775326175,B,887,Incorrect
1,new_learn,10,621,A,62.08008007861756,49.902475266636515,3.104004003930878,0.783866248468058,B,2308,Incorrect
1,new_learn,10,622,B,36.339170832423825,43.8367088192939,1.8169585416211913,0.688585411921243,A,564,Incorrect
1,new_learn,10,623,B,67.19705576823023,10.773777315437627,3.3598527884115117,0.16923409832795605,B,531,Correct
1,new_learn,10,624,A,39.63330096385883,72.68549228935463,1.9816650481929414,1.14174104299397,B,453,Incorrect
1,new_learn,10,625,B,21.842134321525304,49.52745716420435,1.0921067160762652,0.7779754778902377,B,623,Correct
1,new_learn,10,626,A,58.89040279400674,52.45695415886244,2.944520139700337,0.8239919090758939,A,389,Correct
1,new_learn,10,627,B,66.5388021672216,21.691451826937367,3.32694010836108,0.3407285285260167,B,674,Correct
1,new_learn,10,628,A,80.12961597592486,36.33798075111828,4.006480798796243,0.5707956668700026,B,705,Incorrect
1,new_learn,10,629,B,57.19970845102023,18.994307656466006,2.8599854225510115,0.29836188696788984,A,426,Incorrect
1,new_learn,10,630,B,23.61242495931725,49.003473504348506,1.1806212479658624,0.7697447618082167,A,558,Incorrect
1,new_learn,10,631,A,66.44983655994845,41.897853414768704,3.3224918279974225,0.6581299424450969,B,131,Incorrect
1,new_learn,10,632,A,50.53175894592717,78.43579967547825,2.526587947296359,1.2320666601946157,B,436,Incorrect
1,new_learn,10,633,A,31.037356394668688,86.06240743088246,1.5518678197334344,1.3518651346755597,B,255,Incorrect
1,new_learn,10,634,B,43.97294346409393,29.019728348453896,2.1986471732046966,0.45584082694337114,B,329,Correct
1,new_learn,10,635,B,61.22413590592075,13.231364343692292,3.061206795296038,0.20783778509556822,A,318,Incorrect
1,new_learn,10,636,A,61.2881711587029,53.07057296080106,3.064408557935145,0.8336306106772686,B,275,Incorrect
1,new_learn,10,637,B,27.19163521568658,43.05513557670797,1.359581760784329,0.6763084881354915,B,336,Correct
1,new_learn,10,638,A,60.394437431284466,67.74478931532671,3.019721871564223,1.0641326621600935,B,253,Incorrect
1,new_learn,10,639,B,42.04620897483752,35.35867895164742,2.1023104487418762,0.5554128301756779,B,294,Correct
1,new_learn,10,640,B,29.374285080796355,59.217951238875486,1.468714254039818,0.9301934028634491,A,212,Incorrect
1,new_learn,10,641,A,68.47241907181831,42.694955196353675,3.4236209535909152,0.6706507879510503,A,182,Correct
1,new_learn,10,642,A,81.73296166218508,33.23418139010417,4.086648083109254,0.5220413005161094,A,226,Correct
1,new_learn,10,643,A,54.892448014972395,77.35611208537507,2.7446224007486197,1.2151069671884147,B,232,Incorrect
1,new_learn,10,644,A,67.52857389024217,57.0800605199532,3.3764286945121085,0.8966114939797288,A,300,Correct
1,new_learn,10,645,B,57.51664036141983,13.624107084508324,2.8758320180709918,0.21400697364206003,A,209,Incorrect
1,new_learn,10,646,B,23.50143259343452,57.07719642671432,1.1750716296717258,0.8965665049083366,A,309,Incorrect
1,new_learn,10,647,A,59.74321936670017,53.59779418078081,2.9871609683350084,0.8419121822347939,B,253,Incorrect
1,new_learn,10,648,B,41.79572967068119,40.65365240282113,2.0897864835340596,0.6385860786514795,A,317,Incorrect
1,new_learn,10,649,A,88.85343497182161,32.0125348565807,4.4426717485910805,0.5028517216411055,B,12,Incorrect
1,new_learn,10,650,B,69.34369739017782,13.23002464363995,3.4671848695088907,0.20781674113635593,B,214,Correct
1,new_learn,10,651,A,32.98863252894342,88.02686362597552,1.649431626447171,1.3827227404295763,A,280,Correct
1,new_learn,10,652,B,59.520478731533466,21.763625639046438,2.976023936576673,0.3418622321155338,A,472,Incorrect
1,new_learn,10,653,A,57.340491939901376,65.2578434285111,2.867024596995069,1.025067807520617,A,446,Correct
1,new_learn,10,654,A,50.74283852904319,70.86844307987835,2.5371419264521595,1.1131989007554612,A,481,Correct
1,new_learn,10,655,B,15.97635385774781,58.63435462276531,0.7988176928873905,0.921026288654291,B,369,Correct
1,new_learn,10,656,A,64.34136869276558,52.625453267052464,3.217068434638279,0.826638686878025,A,363,Correct
1,new_learn,10,657,B,29.12809485121371,57.06556194451103,1.4564047425606856,0.8963837508892458,B,253,Correct
1,new_learn,10,658,A,51.84785813854152,60.40026441646043,2.592392906927076,0.9487651348281655,B,306,Incorrect
1,new_learn,10,659,B,47.66346752736289,36.81522096147521,2.3831733763681444,0.5782921385642775,A,288,Incorrect
1,new_learn,10,660,A,76.22944729093493,47.69406811544889,3.8114723645467463,0.7491766700565271,B,178,Incorrect
1,new_learn,10,661,A,69.37015230704395,58.21026223441015,3.4685076153521974,0.9143646609957915,B,184,Incorrect
1,new_learn,10,662,A,47.29267809494162,72.13817618762252,2.364633904747081,1.1331438217720053,B,183,Incorrect
1,new_learn,10,663,A,46.65025223724365,63.462625621821054,2.3325126118621826,0.996868592155162,B,170,Incorrect
1,new_learn,10,664,B,45.16456474278337,29.22041384933577,2.2582282371391686,0.4589931874196335,A,230,Incorrect
1,new_learn,10,665,B,41.440983606673235,35.90569417432971,2.0720491803336616,0.5640053252005802,A,86,Incorrect
1,new_learn,10,666,B,13.723385578930305,64.29715147710108,0.6861692789465152,1.0099772936360543,A,90,Incorrect
1,new_learn,10,667,A,81.4595886117111,48.64265680060274,4.072979430585555,0.7640770662793157,A,510,Correct
1,new_learn,10,668,A,62.48227478257303,57.69669725170976,3.1241137391286515,0.9062976011118289,A,259,Correct
1,new_learn,10,669,B,30.9657626203469,39.426995673865044,1.548288131017345,0.6193177998106549,A,330,Incorrect
1,new_learn,10,670,A,82.58836062934068,47.163332846407044,4.129418031467035,0.7408398999454128,B,418,Incorrect
1,new_learn,10,671,A,70.3816702978446,39.148878320297555,3.51908351489223,0.6149491426366376,A,558,Correct
1,new_learn,10,672,B,65.04722161672694,22.941921644873887,3.252361080836347,0.3603708624938423,B,275,Correct
1,new_learn,10,673,B,25.517134212682034,55.11243961864588,1.2758567106341017,0.8657041771367447,A,520,Incorrect
1,new_learn,10,674,B,30.925092307827114,40.706655004594495,1.546254615391356,0.6394186415732412,B,241,Correct
1,new_learn,10,675,B,55.470893758316876,21.261723640309043,2.773544687915844,0.33397837395525665,B,203,Correct
1,new_learn,10,676,B,52.97852927425752,29.063495803360794,2.648926463712876,0.4565283245173803,B,147,Correct
1,new_learn,10,677,A,55.933708033953444,51.53693491554689,2.796685401697672,0.809540280596087,B,187,Incorrect
1,new_learn,10,678,B,25.56505806607999,60.71086638444952,1.2782529033039995,0.9536440591322907,A,183,Incorrect
1,new_learn,10,679,A,63.44557758827758,68.47298259780865,3.172278879413879,1.075571095493287,A,171,Correct
1,new_learn,10,680,A,62.623745343301884,62.49056965006667,3.131187267165094,0.9815995726564536,B,195,Incorrect
1,new_learn,10,681,B,43.84480185100444,34.56565777312416,2.192240092550222,0.5429560826327289,B,461,Correct
1,new_learn,10,682,A,48.04727429951509,59.76457083851169,2.4023637149757544,0.9387796834560753,A,279,Correct
1,new_learn,10,683,B,60.110687513205676,15.251403741284491,3.0055343756602837,0.23956848975275621,A,290,Incorrect
1,new_learn,10,684,A,63.94937659959161,60.57079446589789,3.1974688299795804,0.9514438145808105,A,331,Correct
1,new_learn,10,685,A,55.0980120914771,70.29288123882512,2.7549006045738555,1.104157996497764,A,281,Correct
1,new_learn,10,686,B,31.849299341145112,54.04085183211977,1.5924649670572557,0.84887171554761,A,363,Incorrect
1,new_learn,10,687,B,15.007007234122433,64.77410044106925,0.7503503617061216,1.0174691904427524,B,230,Correct
1,new_learn,10,688,B,37.93592052676679,47.67917687857608,1.8967960263383394,0.7489427590547147,B,281,Correct
1,new_learn,10,689,B,56.1923585167685,32.485745232786144,2.8096179258384253,0.5102848928485529,B,266,Correct
1,new_learn,10,690,A,72.68965304556144,37.75673877797787,3.634482652278072,0.5930814658420207,B,274,Incorrect
1,new_learn,10,691,B,34.47783268263209,37.962063287566004,1.7238916341316044,0.5963066956966407,A,163,Incorrect
1,new_learn,10,692,A,68.3086838645939,42.75375751914861,3.4154341932296948,0.6715744526775832,B,241,Incorrect
1,new_learn,10,693,A,67.01638792074164,57.76071292612364,3.350819396037082,0.9073031569740951,A,111,Correct
1,new_learn,10,694,A,40.83004085325038,81.48817486126481,2.0415020426625192,1.28001325749295,B,130,Incorrect
1,new_learn,10,695,B,41.00460709567256,50.38268920047299,2.050230354783628,0.7914094313015189,A,223,Incorrect
1,new_learn,10,696,B,19.221194881331964,55.17757311682252,0.9610597440665982,0.8667272917336165,A,175,Incorrect
1,new_learn,10,697,A,63.31478745559542,60.12070935834589,3.165739372779771,0.9443738942439329,A,248,Correct
1,new_learn,10,698,B,26.803479426176334,42.34786863978471,1.3401739713088168,0.6651987650696661,A,499,Incorrect
1,new_learn,10,699,A,40.07330543432835,68.74548022021526,2.003665271716417,1.0798514781366535,B,281,Incorrect
1,new_learn,10,700,B,14.674190227782816,64.89408107060571,0.7337095113891408,1.0193538417643768,B,69,Correct
1,new_learn,10,701,B,49.14055684723331,19.799167987673513,2.457027842361666,0.3110046034863266,A,348,Incorrect
1,new_learn,10,702,A,75.44117726286218,56.83888714614531,3.7720588631431093,0.8928231514827472,B,368,Incorrect
1,new_learn,10,703,A,46.521731225167436,67.64698747216585,2.326086561258372,1.062596394400185,B,75,Incorrect
1,new_learn,10,704,B,41.26330580245865,33.94376784196987,2.063165290122933,0.5331874584374501,B,168,Correct
1,new_learn,10,705,A,57.058353316865535,73.11067520871411,2.8529176658432767,1.1484198006734283,B,132,Incorrect
1,new_learn,10,706,A,47.096167612003164,75.9918742625974,2.3548083806001583,1.1936775695794763,B,256,Incorrect
1,new_learn,10,707,B,19.70122189601071,52.42965870643022,0.9850610948005355,0.8235631531117066,B,35,Correct
1,new_learn,10,708,B,53.44772576990506,37.28194059366248,2.672386288495253,0.5856233534031057,A,228,Incorrect
1,new_learn,10,709,B,14.730498982428252,57.51261106933847,0.7365249491214126,0.9034059821210038,A,263,Incorrect
1,new_learn,10,710,B,43.35864433946977,43.635965117519326,2.1679322169734885,0.6854321372274959,B,198,Correct
1,new_learn,10,711,B,42.04099687616321,35.46588915898465,2.1020498438081607,0.5570968841744803,A,395,Incorrect
1,new_learn,10,712,A,46.17667543944482,82.08234575140983,2.3088337719722407,1.2893464720102326,B,319,Incorrect
1,new_learn,10,713,B,43.208452316261784,46.786490176219374,2.1604226158130895,0.7349204691243091,B,46,Correct
1,new_learn,10,714,A,63.17386677852751,68.25715251658247,3.1586933389263754,1.0721808445052676,B,118,Incorrect
1,new_learn,10,715,B,24.802379091554418,45.36305140216079,1.240118954577721,0.7125611451472226,B,44,Correct
1,new_learn,10,716,B,66.42093795840258,19.304596747251452,3.321046897920129,0.3032358966083929,B,98,Correct
1,new_learn,10,717,B,64.48530346094073,15.610375557619932,3.224265173047036,0.24520720585798222,B,175,Correct
1,new_learn,10,718,B,18.57211436831742,55.12191336418583,0.9286057184158709,0.8658529903836962,B,182,Correct
1,new_learn,10,719,A,32.937413629611,78.71795057948246,1.64687068148055,1.2364986762307324,B,114,Incorrect
1,new_learn,10,720,A,65.5037996084702,46.1995099908986,3.2751899804235105,0.7257002059342764,A,27,Correct
1,new_learn,10,721,A,55.483438850245406,64.26284678388586,2.7741719425122704,1.0094384367751115,B,35,Incorrect
1,new_learn,10,722,A,65.29531927970109,50.93919730337073,3.264765963985054,0.8001510401401526,A,269,Correct
1,new_learn,10,723,B,53.25444002672923,24.205537468560706,2.6627220013364616,0.3802196934371139,A,159,Incorrect
1,new_learn,10,724,B,52.20107190284827,28.619643483543584,2.6100535951424138,0.4495563085812976,B,271,Correct
1,new_learn,10,725,B,56.93185341672492,28.616939162824735,2.8465926708362463,0.44951382921078115,A,296,Incorrect
1,new_learn,10,726,B,29.064174674607,58.474124833024355,1.45320873373035,0.918509405002609,B,349,Correct
1,new_learn,10,727,A,68.81634448801071,60.22099980808405,3.4408172244005355,0.945949252944546,B,405,Incorrect
1,new_learn,10,728,B,42.53570684922608,30.55242619524644,2.126785342461304,0.4799163884216528,B,13,Correct
1,new_learn,10,729,A,58.871481479563904,59.69429172416507,2.9435740739781955,0.9376757417094148,B,423,Incorrect
1,new_learn,10,730,A,63.622065406687,57.32514825575538,3.18110327033435,0.9004613231311343,A,242,Correct
1,new_learn,10,731,A,82.2591536177887,39.07829002756915,4.112957680889434,0.6138403443273127,A,28,Correct
1,new_learn,10,732,A,64.27641609412377,69.08416472016134,3.2138208047061885,1.0851715218212303,B,138,Incorrect
1,new_learn,10,733,B,37.252519347195964,44.714053818418016,1.8626259673597982,0.7023667149408034,A,45,Incorrect
1,new_learn,10,734,A,38.941522687246,79.30280385221313,1.9470761343623,1.2456855299559255,B,344,Incorrect
1,new_learn,10,735,A,53.629024212955656,70.15094223626743,2.681451210647783,1.1019284238592983,A,107,Correct
1,new_learn,10,736,A,38.32425040869388,71.10987947366868,1.9162125204346938,1.1169913747606657,A,73,Correct
1,new_learn,10,737,B,17.213859404663282,53.06332355759727,0.860692970233164,0.833516737318029,A,131,Incorrect
1,new_learn,10,738,A,42.08657093834128,84.03040116705633,2.1043285469170643,1.3199464549231366,B,105,Incorrect
1,new_learn,10,739,A,87.38065989752583,39.10024901872835,4.369032994876291,0.6141852753538425,A,180,Correct
1,new_learn,10,740,B,44.79217715626773,32.77557820285229,2.2396088578133866,0.5148375784961925,A,246,Incorrect
1,new_learn,10,741,B,19.38431524143415,60.62961688839226,0.9692157620717076,0.9523677950326839,B,225,Correct
1,new_learn,10,742,A,46.82278266120082,66.86393382987154,2.341139133060041,1.0502962165501923,B,271,Incorrect
1,new_learn,10,743,B,67.28417794943653,10.701616609427532,3.3642088974718263,0.16810060060856025,A,175,Incorrect
1,new_learn,10,744,B,54.72355383347205,31.812919027224112,2.736177691673603,0.4997161635258711,B,21,Correct
1,new_learn,10,745,A,77.66481732389792,36.6460217611947,3.883240866194896,0.5756343637413047,B,176,Incorrect
1,new_learn,10,746,B,33.939312958135375,44.02415853973525,1.6969656479067685,0.691529865244523,A,274,Incorrect
1,new_learn,10,747,A,57.411316359357535,57.92822472488224,2.8705658179678766,0.9099344261559433,B,380,Incorrect
1,new_learn,10,748,A,57.91251270647298,55.76462921541046,2.8956256353236487,0.8759487473664612,B,187,Incorrect
1,new_learn,10,749,A,74.72812761125759,41.508159681487854,3.7364063805628795,0.6520086475969715,B,254,Incorrect
1,new_learn,10,750,A,56.279590860142015,70.24659737144665,2.813979543007101,1.1034309712090844,B,295,Incorrect
1,new_learn,10,751,A,80.99020375624242,47.66144052238326,4.049510187812121,0.7486641570231305,A,176,Correct
1,new_learn,10,752,A,43.55146920842391,64.2290314595345,2.177573460421195,1.0089072669023065,A,211,Correct
1,new_learn,10,753,B,20.49513661721715,54.646345947134236,1.0247568308608574,0.8583827948652165,100,381,Incorrect
1,new_learn,10,754,B,35.9101730058007,42.83729656361081,1.7955086502900348,0.672886680919435,107,61,Correct
1,new_learn,10,755,B,42.20538515418822,38.45313826928124,2.110269257709411,0.6040204834712325,A,262,Incorrect
1,new_learn,10,756,B,46.001008030125256,39.82497477845797,2.300050401506263,0.6255692409670118,B,184,Correct
1,new_learn,10,757,B,40.64437292536744,46.68764888829176,2.032218646268372,0.7333678738041854,B,186,Correct
1,new_learn,10,758,A,31.848708883690477,87.61138028591769,1.5924354441845239,1.3761963433855031,B,275,Incorrect
1,new_learn,10,759,A,76.68483966610151,48.77894117089067,3.8342419833050756,0.7662178161617942,B,439,Incorrect
1,new_learn,10,760,B,56.109976714946654,30.522489062428946,2.8054988357473327,0.47944613703900796,A,281,Incorrect
1,new_learn,10,761,A,41.675919085090825,80.66792046113488,2.083795954254541,1.2671287315053354,B,436,Incorrect
1,new_learn,10,762,A,67.28514005193901,47.51322812271858,3.364257002596951,0.7463360420933433,A,366,Correct
1,new_learn,10,763,A,68.57451193118135,49.68112336198238,3.4287255965590675,0.7803892608804605,A,375,Correct
1,new_learn,10,764,B,33.29464742613301,58.32043639050727,1.6647323713066504,0.9160952725928422,A,355,Incorrect
1,new_learn,10,765,B,56.18483439137236,27.416756662521365,2.809241719568618,0.43066140658118074,B,334,Correct
1,new_learn,10,766,B,45.48163347523453,36.77559194889001,2.2740816737617267,0.577669647490244,B,273,Correct
1,new_learn,10,767,B,34.900062085600354,38.28149898007652,1.7450031042800176,0.6013243798210678,B,236,Correct
1,new_learn,10,768,A,61.26852041552396,56.85303385084328,3.063426020776198,0.8930453674005054,B,226,Incorrect
1,new_learn,10,769,B,37.55174039845826,34.56713210157008,1.877587019922913,0.5429792413298024,A,257,Incorrect
1,new_learn,10,770,A,58.88239946360753,55.551307444588055,2.944119973180376,0.8725978968261292,B,200,Incorrect
1,new_learn,10,771,A,61.32789466089981,56.0436303846393,3.0663947330449908,0.8803312874844226,A,120,Correct
1,new_learn,10,772,A,74.81798079728318,55.62682530379144,3.7408990398641593,0.8737841285845699,A,266,Correct
1,new_learn,10,773,B,26.928006473052548,45.2557781563514,1.3464003236526276,0.7108761009424149,A,203,Incorrect
1,new_learn,10,774,B,62.4366646562066,22.12311225001244,3.12183323281033,0.3475090345959072,B,206,Correct
1,new_learn,10,775,B,22.15936267460715,50.35302236926222,1.1079681337303575,0.7909434258065835,B,113,Correct
1,new_learn,10,776,B,20.791413419234644,51.88660890343945,1.0395706709617323,0.8150329467536608,B,249,Correct
1,new_learn,10,777,A,44.212130691070655,84.63727927218864,2.210606534553533,1.3294792739066776,B,287,Incorrect
1,new_learn,10,778,B,41.744226570507685,37.17431374580353,2.087211328525384,0.5839327548302923,B,306,Correct
1,new_learn,10,779,A,57.60880973378384,73.86443580972829,2.880440486689192,1.1602598445069863,A,250,Correct
1,new_learn,10,780,A,68.48345183595642,64.15474461381379,3.424172591797821,1.0077403718584337,A,353,Correct
1,new_learn,10,781,A,47.09092362968295,79.91575627630405,2.3545461814841473,1.255313764118546,A,399,Correct
1,new_learn,10,782,A,45.496153491959305,76.85798968813319,2.2748076745979655,1.2072824788695964,A,290,Correct
1,new_learn,10,783,B,32.33371154150817,43.939213987259585,1.6166855770754085,0.6901955593344229,A,252,Incorrect
1,new_learn,10,784,A,53.430697825276255,76.13947962163243,2.6715348912638124,1.1959961491373512,A,247,Correct
1,new_learn,10,785,B,16.57118641334621,57.205941289425525,0.8285593206673105,0.8985888244827412,B,356,Correct
1,new_learn,10,786,B,28.524307207854093,62.096806892579835,1.4262153603927046,0.9754143617255641,A,479,Incorrect
1,new_learn,10,787,A,64.92923099797703,61.1447940219543,3.2464615498988514,0.9604601785231636,B,643,Incorrect
1,new_learn,10,788,B,48.2007915003216,27.50725838137879,2.41003957501608,0.43208300425667934,100,192,Incorrect
1,new_learn,10,789,B,41.252302491415236,46.33215635693851,2.062615124570762,0.7277838101796583,100,248,Incorrect
1,new_learn,10,790,B,28.44598004016164,61.341587696377815,1.4222990020080821,0.9635514063323729,100,192,Incorrect
1,new_learn,10,791,A,66.7134920259656,46.028221504291196,3.33567460129828,0.7230096126784248,107,296,Incorrect
1,new_learn,10,792,B,23.66623969858098,52.96479788223401,1.183311984929049,0.831969099628473,107,292,Incorrect
1,new_learn,10,793,A,64.44230064388043,60.18061862326162,3.2221150321940217,0.945314946776639,100,86,Incorrect
1,new_learn,10,794,B,26.01921760750751,61.82131103519535,1.3009608803753756,0.9710868829172966,107,123,Correct
1,new_learn,10,795,B,48.718794082170525,32.31147408173835,2.435939704108526,0.507547448009231,B,235,Correct
1,new_learn,10,796,B,30.86007895326821,38.53926125342075,1.5430039476634105,0.6053733001426218,B,257,Correct
1,new_learn,10,797,B,69.07618342956617,11.874371451900487,3.4538091714783086,0.1865221905964347,B,259,Correct
1,new_learn,10,798,A,60.17483107756435,51.75907807342433,3.0087415538782176,0.8130296971602522,B,236,Incorrect
1,new_learn,10,799,B,67.69369009840293,13.413282723558211,3.3846845049201466,0.21069535232426687,100,18,Incorrect
1,new_learn,10,800,A,57.97604009009932,57.55367397453693,2.898802004504966,0.9040509967275363,B,300,Incorrect
1,new_learn,10,801,A,72.25149573223844,59.3546453596473,3.6125747866119218,0.9323405890914773,A,263,Correct
1,new_learn,10,802,B,33.71531619817794,48.03448246880634,1.6857658099088968,0.7545238862149485,A,303,Incorrect
1,new_learn,10,803,B,36.24099557724783,31.51823614502922,1.8120497788623913,0.4950872956366605,B,94,Correct
1,new_learn,10,804,A,43.09397975816549,75.77413295736366,2.1546989879082745,1.1902572971549494,B,300,Incorrect
1,new_learn,10,805,B,40.66876775004672,27.398534880267434,2.033438387502336,0.4303751794948594,A,1051,Incorrect
1,new_learn,10,806,A,34.69345590447161,85.68149139409063,1.7346727952235808,1.3458817195614612,A,268,Correct
1,new_learn,10,807,A,65.83559816623777,48.54075391564261,3.291779908311889,0.7624763795054641,A,436,Correct
1,new_learn,10,808,A,66.62586039419338,51.05330190903825,3.3312930197096695,0.8019433910946816,B,290,Incorrect
1,new_learn,10,809,A,84.64453647723269,40.03812550385402,4.232226823861635,0.6289174047320696,A,1268,Correct
1,new_learn,10,810,A,70.75795295604647,51.95312157943691,3.537897647802323,0.8160777254250817,A,273,Correct
1,new_learn,10,811,A,63.346383559669356,47.434067267633324,3.167319177983468,0.7450925862894047,A,258,Correct
1,new_learn,10,812,B,12.895528323416727,65.92337434773437,0.6447764161708364,1.0355219427534605,A,185,Incorrect
1,new_learn,10,813,A,64.44771233415732,62.41612995287193,3.2223856167078657,0.9804302766272415,A,194,Correct
1,new_learn,10,814,A,72.68162466095319,59.94033975192639,3.634081233047659,0.941540655091641,B,401,Incorrect
1,new_learn,10,815,A,46.59073352576143,80.14842696163858,2.3295366762880714,1.2589685466973095,B,671,Incorrect
1,new_learn,10,816,B,12.395041380515082,65.48721633151271,0.6197520690257541,1.0286707886556292,A,547,Incorrect
1,new_learn,10,817,B,51.41078224432967,33.228345627359474,2.5705391122164833,0.5219496325692752,B,345,Correct
1,new_learn,10,818,B,40.8261593474968,34.06583197053267,2.04130796737484,0.5351048372852487,B,518,Correct
1,new_learn,10,819,B,25.641572630549554,61.973565252594426,1.2820786315274777,0.9734784865715915,B,508,Correct
1,new_learn,10,820,A,72.69738248979499,56.20671488483912,3.6348691244897497,0.8828930128231333,B,109,Incorrect
1,new_learn,10,821,B,46.009843527975214,39.58452064311916,2.3004921763987607,0.6217921962414833,100,131,Incorrect
1,new_learn,10,822,A,85.07889651849092,33.20719255184278,4.253944825924546,0.5216173608360548,A,278,Correct
1,new_learn,10,823,A,36.528240023163654,87.1473733785549,1.8264120011581826,1.368907739928574,B,257,Incorrect
1,new_learn,10,824,A,74.21758547395343,52.76915253529317,3.7108792736976715,0.8288959097051812,B,245,Incorrect
1,new_learn,10,825,B,62.39912334554461,22.5100590418361,3.11995616727723,0.35358718058852395,B,129,Correct
1,new_learn,10,826,A,84.55923822743665,40.865757344657574,4.227961911371833,0.6419178152867969,A,86,Correct
1,new_learn,10,827,A,37.07437963888816,87.0040821061287,1.853718981944408,1.3666569258846857,B,231,Incorrect
1,new_learn,10,828,B,26.444842847563535,41.48991665310824,1.3222421423781767,0.6517220867772883,B,52,Correct
1,new_learn,10,829,A,86.6993787239457,37.702482932033284,4.334968936197285,0.5922292170068516,A,166,Correct
1,new_learn,10,830,B,58.55973938236821,24.19343226558962,2.92798696911841,0.38002954535349315,B,95,Correct
1,new_learn,10,831,B,27.844355634387544,47.4841036717833,1.3922177817193773,0.7458785562878527,A,208,Incorrect
1,new_learn,10,832,B,45.85796942984955,41.01559590540422,2.2928984714924776,0.6442714738951275,A,424,Incorrect
1,new_learn,10,833,A,60.33069169087472,47.986090454237065,3.016534584543736,0.7537637462276322,A,208,Correct
1,new_learn,10,834,B,59.63689820173187,30.822086632985844,2.9818449100865934,0.48415220467248243,B,312,Correct
1,new_learn,10,835,B,28.58635884761422,40.504671366961574,1.4293179423807112,0.6362458900125766,A,260,Incorrect
1,new_learn,10,836,A,44.30138944094075,65.1212978665807,2.2150694720470376,1.0229229548494132,A,339,Correct
1,new_learn,10,837,A,62.150311758467176,65.2988143249043,3.1075155879233587,1.0257113768562163,B,408,Incorrect
1,new_learn,10,838,B,67.07061226249073,20.627017703604793,3.353530613124536,0.3240084364155571,B,373,Correct
1,new_learn,10,839,B,29.387887033309845,45.5844196151882,1.4693943516654924,0.7160383889061486,A,321,Incorrect
1,new_learn,10,840,A,68.92200495429282,42.853044845044074,3.4461002477146407,0.673134054345722,A,392,Correct
1,new_learn,10,841,B,46.55671605797591,22.739223961126015,2.3278358028987953,0.35718689472303244,A,240,Incorrect
1,new_learn,10,842,A,59.11255587497254,65.11341749212882,2.955627793748627,1.0227991702169854,A,298,Correct
1,new_learn,10,843,A,55.45180999197441,61.6084185478211,2.7725904995987203,0.9677427755455996,A,290,Correct
1,new_learn,10,844,A,51.3046134035835,68.75205979865993,2.5652306701791754,1.0799548299131807,B,216,Incorrect
1,new_learn,10,845,B,29.25632922322636,39.98455951837713,1.4628164611613181,0.6280759921997873,B,356,Correct
1,new_learn,10,846,B,41.08764122872941,48.52231612426949,2.0543820614364705,0.7621867593558329,A,209,Incorrect
1,new_learn,10,847,B,33.99040612506892,52.06545800343356,1.699520306253446,0.8178423018468739,A,286,Incorrect
1,new_learn,10,848,B,48.06134122598365,33.06458313560253,2.4030670612991822,0.5193772573640894,A,282,Incorrect
1,new_learn,10,849,B,67.40231782839696,10.252976140037958,3.3701158914198484,0.16105337259487343,A,270,Incorrect
1,new_learn,10,850,A,80.58577079444511,36.64429908517977,4.0292885397222555,0.5756073040097397,B,367,Incorrect
1,new_learn,10,851,B,61.077995436701556,20.91830584381269,3.0538997718350775,0.3285839798223319,A,546,Incorrect
1,new_learn,10,852,B,43.51601937822689,29.48074403269706,2.1758009689113447,0.4630824443774111,B,1965,Correct
1,new_learn,10,853,A,47.226354207539856,78.91589949125544,2.361317710376993,1.239608050465793,A,573,Correct
1,new_learn,10,854,A,62.564093271422806,63.633668930307074,3.12820466357114,0.999555334162089,A,511,Correct
1,new_learn,10,855,A,56.69668287772053,75.7737380225014,2.834834143886026,1.19025109353264,B,207,Incorrect
1,new_learn,10,856,B,38.506360489129804,49.876387830484674,1.9253180244564903,0.78345646797923,A,361,Incorrect
1,new_learn,10,857,B,13.257620842943489,68.07519905660284,0.6628810421471744,1.0693227262394314,A,660,Incorrect
1,new_learn,10,858,A,86.042340145206,40.71691535133881,4.3021170072603,0.6395798107230175,B,310,Incorrect
1,new_learn,10,859,B,17.756425629610064,67.10546929528796,0.8878212814805032,1.0540902467688604,A,278,Incorrect
1,new_learn,10,860,B,27.350167321631496,41.39241201068023,1.3675083660815748,0.6501904874355748,A,203,Incorrect
1,new_learn,10,861,B,46.220917721034304,35.72955435488217,2.311045886051715,0.5612385273866751,A,194,Incorrect
1,new_learn,10,862,B,60.924133333020265,26.915997832785095,3.0462066666510133,0.4227955052775822,A,290,Incorrect
1,new_learn,10,863,A,88.50776813980261,32.07269793095463,4.42538840699013,0.5037967610034583,A,338,Correct
1,new_learn,10,864,B,46.86722206827847,44.180806765945476,2.3433611034139235,0.6939904898278226,B,319,Correct
1,new_learn,10,865,B,22.024124352806762,49.898979840990975,1.101206217640338,0.7838113424504122,A,288,Incorrect
1,new_learn,10,866,B,30.26274216141976,42.24813962775426,1.5131371080709881,0.6636322254119431,115,304,Correct
1,new_learn,10,867,A,61.63713700045186,63.00241185948846,3.081856850022593,0.989639571281037,B,178,Incorrect
1,new_learn,10,868,B,26.426692970263,52.41528698311251,1.32133464851315,0.8233374026097349,A,489,Incorrect
1,new_learn,10,869,B,54.30640655961995,38.02507144897708,2.7153203279809977,0.5972964255816671,B,449,Correct
1,new_learn,10,870,A,76.33048994060597,43.29241188130248,3.8165244970302985,0.6800356156124167,A,297,Correct
1,new_learn,10,871,A,60.734745776832945,64.44610155005324,3.0367372888416475,1.0123169959107452,A,312,Correct
1,new_learn,10,872,A,60.62654611951949,54.98868129259299,3.0313273059759744,0.8637601858970031,B,184,Incorrect
1,new_learn,10,873,A,42.841295026643266,79.40913408086996,2.142064751332163,1.2473557612819397,A,256,Correct
1,new_learn,10,874,A,44.98300765126409,79.89960481220871,2.2491503825632044,1.2550600575138129,A,337,Correct
1,new_learn,10,875,B,68.13737926613439,15.184178278741612,3.4068689633067195,0.23851251465646178,100,67,Incorrect
1,new_learn,10,876,B,38.36200617636647,31.536593672566553,1.9181003088183235,0.4953756550049072,A,328,Incorrect
1,new_learn,10,877,A,43.29150627730296,71.11032559491338,2.1645753138651482,1.1169983824167906,B,366,Incorrect
1,new_learn,10,878,A,56.20791827926022,63.34729468053331,2.810395913963011,0.9950569779657561,A,216,Correct
1,new_learn,10,879,A,65.00119756342293,45.355186213631335,3.2500598781711467,0.7124375990547064,A,301,Correct
1,new_learn,10,880,A,78.50607293925009,37.63950342347543,3.9253036469625044,0.5912399371997915,A,321,Correct
1,new_learn,10,881,B,28.15258390948805,58.753073098216795,1.4076291954744025,0.9228911141059098,B,467,Correct
1,new_learn,10,882,A,66.11640194207325,52.388307286359414,3.3058200971036626,0.8229136065241568,B,344,Incorrect
1,new_learn,10,883,A,37.57315786151181,87.64714450817905,1.8786578930755906,1.3767581264750914,A,390,Correct
1,new_learn,10,884,A,33.84973379134294,88.61864019070222,1.692486689567147,1.3920183449711365,A,264,Correct
1,new_learn,10,885,B,52.78037403445103,18.65837422155704,2.6390187017225513,0.2930850569118639,A,399,Incorrect
1,new_learn,10,886,B,59.00463783378056,23.06174324443957,2.9502318916890284,0.362253015778527,B,248,Correct
1,new_learn,10,887,A,68.89939282729765,48.42752472597693,3.4449696413648825,0.7606977795533358,B,623,Incorrect
1,new_learn,10,888,B,13.545637467679867,61.15617616436475,0.6772818733839934,0.9606389687980577,B,579,Correct
1,new_learn,10,889,B,32.82109175825217,41.00072095332637,1.6410545879126088,0.644037818694276,A,423,Incorrect
1,new_learn,10,890,A,58.840952080166566,51.96488714461883,2.9420476040083283,0.816262538490786,B,697,Incorrect
1,new_learn,10,891,B,46.75404381025451,32.6895425332512,2.3377021905127253,0.5134861333583652,A,817,Incorrect
1,new_learn,10,892,A,81.79404086393777,37.612227099152605,4.089702043196889,0.5908114816992438,100,483,Incorrect
1,new_learn,10,893,B,60.65525532418773,19.912271741482158,3.032762766209386,0.3127812330966199,B,679,Correct
1,new_learn,10,894,A,40.601566141087034,77.53678758394967,2.0300783070543518,1.217945011283443,B,574,Incorrect
1,new_learn,10,895,A,81.16306690247472,49.617353465802815,4.058153345123737,0.7793875656936711,A,468,Correct
1,new_learn,10,896,B,24.320217042302176,59.51505122131691,1.2160108521151087,0.9348602384745472,A,209,Incorrect
1,new_learn,10,897,A,66.0609167240047,64.36983544990613,3.303045836200235,1.0111190108110448,B,494,Incorrect
1,new_learn,10,898,A,64.43684790604794,43.532590069814596,3.221842395302397,0.6838083257753276,A,396,Correct
