experiment,condition,subject,trial,cat,x,y,xt,yt,resp,rt,fb
1,relearn,33,0,B,52.178792565247704,40.83426660549612,2.608939628262385,0.6414231599127681,A,850,Incorrect
1,relearn,33,1,B,84.33618264689203,65.13659196207072,4.2168091323446015,1.0231631939395869,A,1508,Incorrect
1,relearn,33,2,B,43.46627360617671,32.91065342647437,2.1733136803088358,0.5169593351472581,B,1800,Correct
1,relearn,33,3,A,37.10341024012706,49.50094995186892,1.855170512006353,0.777559103572537,B,645,Incorrect
1,relearn,33,4,A,34.67797493237823,44.66012403534327,1.7338987466189113,0.7015195878892169,A,1702,Correct
1,relearn,33,5,B,72.75592416158354,55.62759186352787,3.637796208079177,0.8737961696767526,A,608,Incorrect
1,relearn,33,6,A,57.91833381174058,80.00909419201639,2.895916690587029,1.2567799126700623,A,2538,Correct
1,relearn,33,7,B,59.36766800355633,43.31324274036458,2.9683834001778164,0.680362825981404,A,1035,Incorrect
1,relearn,33,8,B,77.1307270235078,63.68046805410723,3.8565363511753903,1.0002904530797139,A,966,Incorrect
1,relearn,33,9,B,63.22672745991096,47.63476130400846,3.161336372995548,0.7482450808408815,B,1008,Correct
1,relearn,33,10,A,69.37376992473736,84.5631848620923,3.468688496236868,1.328315401634524,B,1012,Incorrect
1,relearn,33,11,B,42.994880548647686,20.9153825246516,2.1497440274323845,0.328538060432329,A,1884,Incorrect
1,relearn,33,12,A,42.64317869405427,74.8203675051115,2.1321589347027134,1.1752755844647338,A,846,Correct
1,relearn,33,13,A,31.091649437194768,46.50408684669358,1.5545824718597385,0.7304844879973714,A,700,Correct
1,relearn,33,14,B,75.97228198550194,62.46978653643207,3.7986140992750967,0.9812731122708876,A,872,Incorrect
1,relearn,33,15,A,27.900802263217273,45.120241127692864,1.3950401131608634,0.7087470902747999,A,1517,Correct
1,relearn,33,16,A,50.25435768071419,64.23224066340764,2.5127178840357094,1.008957676958865,B,895,Incorrect
1,relearn,33,17,B,62.845253190244634,37.44982368712507,3.142262659512232,0.5882604548685257,A,888,Incorrect
1,relearn,33,18,B,48.33291338835698,28.58698582545734,2.416645669417849,0.44904332328766167,A,1039,Incorrect
1,relearn,33,19,A,31.518418079845134,46.721508562440725,1.5759209039922566,0.7338997403219819,B,653,Incorrect
1,relearn,33,20,A,20.86722579232472,48.07667269514515,1.043361289616236,0.755186608740545,B,646,Incorrect
1,relearn,33,21,B,80.53520743171362,54.81891902947031,4.026760371585681,0.8610935665035881,A,576,Incorrect
1,relearn,33,22,B,48.203077908509904,21.669950723926625,2.4101538954254953,0.3403907899897035,A,3606,Incorrect
1,relearn,33,23,A,25.10557409783475,52.52319472772618,1.2552787048917375,0.8250324134984535,B,1545,Incorrect
1,relearn,33,24,B,57.34149134188373,29.79452410742438,2.8670745670941864,0.4680112902654422,B,1209,Correct
1,relearn,33,25,B,86.12014573631666,60.32770325215572,4.306007286815833,0.9476253467245874,B,885,Correct
1,relearn,33,26,A,60.073577624670904,69.28687059211256,3.0036788812335455,1.0883556182120377,B,1095,Incorrect
1,relearn,33,27,A,53.75890793265272,64.9928471085971,2.687945396632636,1.0209052550612665,A,5812,Correct
1,relearn,33,28,B,51.99261598030349,26.3102294016972,2.599630799015175,0.4132801170131705,A,2871,Incorrect
1,relearn,33,29,B,42.39419977023803,23.26516656074608,2.1197099885119015,0.36544838175891403,B,1841,Correct
1,relearn,33,30,B,37.95781429945808,14.469628665442993,1.8978907149729038,0.22728839557763997,B,2069,Correct
1,relearn,33,31,A,55.904354832870155,65.76592527424256,2.7952177416435076,1.0330487384904787,B,2582,Incorrect
1,relearn,33,32,B,36.05177382082796,13.824758185539174,1.8025886910413982,0.21715879376672614,B,2372,Correct
1,relearn,33,33,A,45.387139863275365,57.78751079381844,2.2693569931637683,0.9077240968955045,A,4931,Correct
1,relearn,33,34,A,17.9484524618253,42.195986651023716,0.897422623091265,0.6628130083691455,B,1061,Incorrect
1,relearn,33,35,A,36.82588245558,68.29786387400415,1.841294122779,1.0728203370122358,A,814,Correct
1,relearn,33,36,B,65.43561779125314,51.96231185098374,3.271780889562657,0.816222085872962,B,1340,Correct
1,relearn,33,37,B,61.59690533526103,35.137806265486674,3.079845266763051,0.5519433701345716,B,1611,Correct
1,relearn,33,38,B,68.61899659034944,37.567001960316695,3.4309498295174716,0.5901010868796215,B,928,Correct
1,relearn,33,39,B,42.958881228764355,29.551022363911176,2.147944061438218,0.46418637382265515,B,1753,Correct
1,relearn,33,40,B,71.06474165769406,48.27875909371301,3.553237082884703,0.7583609744662011,B,1299,Correct
1,relearn,33,41,A,32.488437175314964,56.00642320799828,1.6244218587657482,0.8797468385204414,A,1065,Correct
1,relearn,33,42,B,73.61480834045088,48.45854576771005,3.6807404170225437,0.7611850569374131,B,957,Correct
1,relearn,33,43,A,41.38940963801823,51.81987435026501,2.0694704819009115,0.8139846828436935,B,1587,Incorrect
1,relearn,33,44,A,46.445310270554145,53.21207001921165,2.3222655135277073,0.8358532412733051,B,2894,Incorrect
1,relearn,33,45,A,57.70531924987825,76.47432538615107,2.8852659624939125,1.201255894106838,A,2914,Correct
1,relearn,33,46,A,35.679514800910155,55.382750725520225,1.7839757400455079,0.8699502140744457,A,1163,Correct
1,relearn,33,47,B,66.09128396976176,42.45428354699368,3.3045641984880882,0.6668703265232669,B,881,Correct
1,relearn,33,48,B,66.70400399407623,49.90790012498954,3.3352001997038117,0.7839514619438013,B,643,Correct
1,relearn,33,49,B,60.603656609170436,46.438828147646774,3.030182830458522,0.7294594067498301,B,486,Correct
1,relearn,33,50,B,42.06159852040529,16.347413759702903,2.1030799260202646,0.2567845748633767,A,1570,Incorrect
1,relearn,33,51,B,67.00683284634088,58.8758553211628,3.3503416423170442,0.924819772753903,B,557,Correct
1,relearn,33,52,B,59.409158963776314,37.3168559519635,2.9704579481888156,0.5861718025687854,B,520,Correct
1,relearn,33,53,B,71.21540087485211,41.81906082408037,3.5607700437426053,0.656892271324778,B,539,Correct
1,relearn,33,54,A,54.11044575346349,64.73471099855114,2.7055222876731744,1.016850462526533,B,449,Incorrect
1,relearn,33,55,B,65.37907841223384,41.86735569573874,3.268953920611692,0.657650885394818,B,770,Correct
1,relearn,33,56,B,89.56142107847734,66.8904553056249,4.478071053923867,1.0507128149171379,B,908,Correct
1,relearn,33,57,A,31.484449117989286,43.79644326744623,1.5742224558994644,0.6879529221118561,A,624,Correct
1,relearn,33,58,B,62.071261330290795,31.338937609837885,3.1035630665145395,0.49227088083187787,A,1751,Incorrect
1,relearn,33,59,B,73.7411620745883,46.18180524364408,3.6870581037294152,0.725422100414734,B,830,Correct
1,relearn,33,60,A,56.525165790233814,73.72502382108361,2.826258289511691,1.1580699661102438,B,1096,Incorrect
1,relearn,33,61,A,49.501451695487034,57.15930487075996,2.475072584774352,0.8978562613313938,B,1022,Incorrect
1,relearn,33,62,A,37.437208350908406,65.18482870396045,1.8718604175454203,1.023920894909356,B,886,Incorrect
1,relearn,33,63,A,26.501896502160854,49.20012980144139,1.3250948251080428,0.7728338316993626,A,823,Correct
1,relearn,33,64,A,47.00107306775903,56.42824589309117,2.3500536533879512,0.8863728137634682,A,554,Correct
1,relearn,33,65,B,57.97180162096252,45.49576979284864,2.8985900810481264,0.7146458807531286,A,461,Incorrect
1,relearn,33,66,A,51.11310971613707,67.50295799586516,2.5556554858068536,1.0603339846769517,B,482,Incorrect
1,relearn,33,67,A,32.070560571216745,50.86688403408717,1.603528028560837,0.799015145962461,A,872,Correct
1,relearn,33,68,B,70.07081864453411,40.99595777095351,3.503540932226706,0.6439629988005247,B,431,Correct
1,relearn,33,69,B,38.44541599423265,17.143745270334936,1.9222707997116322,0.269293320981495,A,3077,Incorrect
1,relearn,33,70,B,82.88952609169532,61.16027591156838,4.1444763045847655,0.9607033674765401,B,492,Correct
1,relearn,33,71,A,37.05487692385177,51.67244995328794,1.8527438461925885,0.8116689458311781,B,655,Incorrect
1,relearn,33,72,A,28.198715366206763,52.63923161828802,1.409935768310338,0.8268551167131261,B,1105,Incorrect
1,relearn,33,73,A,31.541378183070528,57.882067632659506,1.5770689091535264,0.9092093922467532,A,1269,Correct
1,relearn,33,74,B,42.585419975717166,15.741737789849736,2.1292709987858585,0.24727063897664378,B,1174,Correct
1,relearn,33,75,A,43.40195386913349,63.74901421486873,2.1700976934566745,1.0013671736551144,A,611,Correct
1,relearn,33,76,A,43.56628492091922,73.0117064231502,2.1783142460459612,1.146865202625117,A,1142,Correct
1,relearn,33,77,A,32.441528700414075,58.633989237505325,1.6220764350207038,0.9210205491960486,B,1523,Incorrect
1,relearn,33,78,B,66.92683569527712,33.51095674005965,3.3463417847638564,0.5263888775466837,A,943,Incorrect
1,relearn,33,79,B,63.57135441248458,43.14359662464621,3.1785677206242293,0.6776980310271495,B,844,Correct
1,relearn,33,80,B,65.52658103281497,53.35968329521263,3.276329051640749,0.83817194519059,B,643,Correct
1,relearn,33,81,A,28.182837180197865,50.33805586096961,1.4091418590098932,0.7907083324440739,B,1714,Incorrect
1,relearn,33,82,B,42.30895628601232,28.215521742419963,2.115447814300616,0.4432083791159482,A,852,Incorrect
1,relearn,33,83,B,36.657866754971124,13.011125200312648,1.8328933377485561,0.2043782767211962,B,888,Correct
1,relearn,33,84,A,32.854180440464354,62.75604631775873,1.6427090220232177,0.9857696704010581,B,1130,Incorrect
1,relearn,33,85,A,60.33433619550302,71.1302733867034,3.016716809775151,1.1173117215975048,B,833,Incorrect
1,relearn,33,86,B,83.75405471175198,59.180433930686064,4.187702735587599,0.9296040823644972,A,1093,Incorrect
1,relearn,33,87,A,36.03651224840179,50.33793537869333,1.8018256124200895,0.7907064399129035,B,693,Incorrect
1,relearn,33,88,B,73.82791639453414,48.70292002908923,3.6913958197267074,0.7650236788587894,A,809,Incorrect
1,relearn,33,89,A,47.2342411504613,77.01072022404202,2.361712057523065,1.2096815645175465,B,537,Incorrect
1,relearn,33,90,A,64.21136840263814,77.87917528984653,3.210568420131907,1.2233232247910681,B,363,Incorrect
1,relearn,33,91,A,27.13512467289202,38.81299673778305,1.3567562336446009,0.6096731270761192,B,5483,Incorrect
1,relearn,33,92,B,46.3271564807585,17.83254228514457,2.316357824037925,0.28011291918919756,A,1222,Incorrect
1,relearn,33,93,B,77.09371361233353,61.43872059446478,3.8546856806166767,0.9650771663276326,B,3057,Correct
1,relearn,33,94,A,48.97020526684745,59.673526364834515,2.4485102633423725,0.9373495602078047,B,791,Incorrect
1,relearn,33,95,A,47.959750955462994,69.34902881979862,2.3979875477731496,1.089331997369331,B,2065,Incorrect
1,relearn,33,96,B,58.841713617997875,38.647256660336204,2.942085680899894,0.6070696880275571,B,2653,Correct
1,relearn,33,97,A,29.048411326361464,51.51077678446826,1.4524205663180731,0.8091293896339459,A,1226,Correct
1,relearn,33,98,A,23.855631779212437,36.38185797435237,1.192781588960622,0.5714848886808632,A,820,Correct
1,relearn,33,99,A,22.161770883711736,35.70634080948598,1.1080885441855868,0.5608738898682728,A,811,Correct
1,relearn,33,100,A,66.1097746437915,81.21277373258623,3.305488732189575,1.275687266679715,B,1000,Incorrect
1,relearn,33,101,A,47.52129557594194,64.68280584248632,2.376064778797097,1.0160351382416497,A,678,Correct
1,relearn,33,102,B,35.54453263191607,20.195818081617357,1.7772266315958034,0.317235168592225,A,1124,Incorrect
1,relearn,33,103,A,36.76743356700045,60.18123254320747,1.8383716783500228,0.9453245902085978,B,824,Incorrect
1,relearn,33,104,B,47.36463680061756,22.749774763078637,2.3682318400308784,0.3573526263325516,A,914,Incorrect
1,relearn,33,105,B,47.26719586695036,33.42422741789351,2.3633597933475183,0.525026536539844,B,544,Correct
1,relearn,33,106,A,32.638415237028795,52.92545418029384,1.6319207618514397,0.8313510902035718,B,1496,Incorrect
1,relearn,33,107,B,47.28506295849284,28.687658109910352,2.3642531479246416,0.45062467983395005,B,688,Correct
1,relearn,33,108,A,33.53778552869097,66.01545774637815,1.6768892764345482,1.036968385396945,A,904,Correct
1,relearn,33,109,A,36.64103659117078,48.53978563063795,1.832051829558539,0.762461169720178,B,3367,Incorrect
1,relearn,33,110,A,44.13394542474568,65.36364096051862,2.2066972712372843,1.026729671267231,B,1688,Incorrect
1,relearn,33,111,A,30.325317644587358,61.282088131879,1.516265882229368,0.9626167893587665,A,1683,Correct
1,relearn,33,112,A,29.164651778980602,51.24055927299679,1.45823258894903,0.8048848228893953,A,657,Correct
1,relearn,33,113,A,38.334631709653515,70.08349887785522,1.9167315854826756,1.1008690260626923,A,658,Correct
1,relearn,33,114,B,85.46881936150174,69.26449244115096,4.2734409680750876,1.0880041030387282,100,1823,Incorrect
1,relearn,33,115,B,57.764184877599824,42.256464044703655,2.888209243879991,0.6637629850476112,B,695,Correct
1,relearn,33,116,A,54.44436061849607,72.11132379935212,2.7222180309248034,1.132722025443397,B,453,Incorrect
1,relearn,33,117,A,43.20003238196446,72.82838179298196,2.160001619098223,1.143985546068324,A,5070,Correct
1,relearn,33,118,A,43.339548737465535,52.86629779800791,2.1669774368732764,0.8304218639235595,A,1254,Correct
1,relearn,33,119,A,49.50513610562535,80.15124276799864,2.4752568052812673,1.2590127772801827,B,2787,Incorrect
1,relearn,33,120,A,65.2613820325662,81.50349054660231,3.26306910162831,1.2802538357156548,A,926,Correct
1,relearn,33,121,A,49.793216129356196,77.95091128707205,2.48966080646781,1.2244500512004763,B,2094,Incorrect
1,relearn,33,122,A,34.22645276464791,64.71685663227517,1.7113226382323956,1.0165700067968977,B,1485,Incorrect
1,relearn,33,123,A,55.88639435034355,81.10805028802874,2.7943197175171774,1.274042274659313,A,871,Correct
1,relearn,33,124,A,42.86494418808228,57.73988449537799,2.143247209404114,0.9069759847490134,A,630,Correct
1,relearn,33,125,A,14.329643399080688,34.88966458304438,0.7164821699540344,0.5480455697015211,B,4069,Incorrect
1,relearn,33,126,A,20.829926683648953,34.235236302113094,1.0414963341824477,0.5377658343031455,A,651,Correct
1,relearn,33,127,B,48.4760237807057,40.00942670466122,2.4238011890352853,0.6284666050485149,A,978,Incorrect
1,relearn,33,128,B,62.51596352758115,37.53772152933195,3.1257981763790577,0.5896411509452433,B,950,Correct
1,relearn,33,129,B,48.64252783877596,40.85403279068502,2.432126391938798,0.6417336464236628,B,968,Correct
1,relearn,33,130,A,44.3630133908663,63.220770146924174,2.2181506695433146,0.9930695352393294,B,589,Incorrect
1,relearn,33,131,A,62.069532071132414,78.22944754428248,3.103476603556621,1.2288252884975297,B,1415,Incorrect
1,relearn,33,132,B,81.74878066860622,51.54940328866532,4.087439033430311,0.8097361333430424,A,772,Incorrect
1,relearn,33,133,B,62.254417771578865,49.458664637578465,3.1127208885789432,0.776894887408889,A,941,Incorrect
1,relearn,33,134,B,78.24313721734734,52.99524968828377,3.912156860867367,0.8324474354793453,A,1089,Incorrect
1,relearn,33,135,B,46.11372606850161,29.38930173634407,2.3056863034250807,0.46164607214516146,B,409,Correct
1,relearn,33,136,B,55.1798496793339,41.4181483087931,2.758992483966695,0.6505947522609846,B,765,Correct
1,relearn,33,137,B,47.83619904090942,35.24652152298797,2.391809952045471,0.5536510654060677,B,782,Correct
1,relearn,33,138,A,68.2809164174756,88.2093158480294,3.41404582087378,1.3855886932317543,A,727,Correct
1,relearn,33,139,A,30.055680722153934,50.896539198132054,1.5027840361076965,0.799480968189983,B,733,Incorrect
1,relearn,33,140,A,31.56847425261479,49.13182093599208,1.5784237126307397,0.7717608385500097,A,1146,Correct
1,relearn,33,141,B,38.18590236624454,17.49444171901935,1.9092951183122269,0.2748020479156299,A,857,Incorrect
1,relearn,33,142,B,37.73416025906316,15.0630818225941,1.8867080129531582,0.23661033597141787,B,410,Correct
1,relearn,33,143,A,62.92386894379439,72.84515592468509,3.1461934471897193,1.1442490335129682,B,570,Incorrect
1,relearn,33,144,B,46.19793023831838,27.111627871029533,2.3098965119159187,0.42586845473243334,A,346,Incorrect
1,relearn,33,145,A,15.738021517364157,44.4831060693665,0.7869010758682079,0.6987389961818866,B,771,Incorrect
1,relearn,33,146,B,60.68699635596459,30.027013852870542,3.0343498177982293,0.47166323064708515,A,952,Incorrect
1,relearn,33,147,B,71.73411894102183,42.840189172291346,3.586705947051092,0.6729321179103375,B,1051,Correct
1,relearn,33,148,B,73.20066819101979,61.39972635027159,3.660033409550989,0.9644646461721845,B,511,Correct
1,relearn,33,149,B,66.17937935546689,44.08264419708517,3.3089689677733447,0.6924485558018776,B,430,Correct
1,relearn,33,150,B,32.22934788218933,17.410900453038803,1.6114673941094666,0.2734897847782495,B,1368,Correct
1,relearn,33,151,A,17.144795344726457,36.275895848066,0.8572397672363229,0.5698204394933631,B,705,Incorrect
1,relearn,33,152,A,34.36004462278129,47.679123024206696,1.7180022311390644,0.7489419131122587,B,750,Incorrect
1,relearn,33,153,B,41.47741602582623,16.946370410343885,2.073870801291312,0.266192963930739,A,626,Incorrect
1,relearn,33,154,A,68.49833359934465,82.70704192175003,3.424916679967232,1.2991591765075647,B,1457,Incorrect
1,relearn,33,155,A,46.48822486658015,74.25064297191656,2.324411243329007,1.1663263724244584,A,1546,Correct
1,relearn,33,156,A,49.80098947586515,66.92987429186364,2.4900494737932575,1.0513320069050358,A,913,Correct
1,relearn,33,157,B,69.34280770304963,53.68850133911022,3.4671403851524816,0.8433370069459722,A,1195,Incorrect
1,relearn,33,158,B,50.999077656330314,43.7414130381232,2.549953882816516,0.6870885092910233,B,802,Correct
1,relearn,33,159,A,27.48545113546799,48.16750146932292,1.3742725567733995,0.7566133437890025,B,814,Incorrect
1,relearn,33,160,B,58.0713321693535,45.31163594453243,2.9035666084676746,0.7117535130273913,A,578,Incorrect
1,relearn,33,161,B,74.78253321879949,53.46544131348914,3.739126660939974,0.8398331882569685,B,510,Correct
1,relearn,33,162,A,37.79578423168404,58.53982537585458,1.8897892115842019,0.9195414267160705,B,1453,Incorrect
1,relearn,33,163,B,73.53125794087529,60.40197617377328,3.6765628970437647,0.9487920230491592,A,871,Incorrect
1,relearn,33,164,B,53.20937374469227,39.43174289488351,2.6604686872346135,0.6193923689840378,B,789,Correct
1,relearn,33,165,A,67.01506318828652,85.7162253894984,3.350753159414326,1.3464273198854755,B,428,Incorrect
1,relearn,33,166,B,33.72985655004785,17.37721196028417,1.6864928275023925,0.2729606071715072,B,996,Correct
1,relearn,33,167,A,25.93762620019742,49.81698349912221,1.296881310009871,0.7825233469242314,A,708,Correct
1,relearn,33,168,B,79.98468660467887,62.8722427126243,3.9992343302339437,0.9875948791034747,A,728,Incorrect
1,relearn,33,169,B,61.25432518126623,37.326759802910026,3.0627162590633117,0.5863273718956646,A,582,Incorrect
1,relearn,33,170,A,55.3224578162824,79.23413716939424,2.7661228908141204,1.2446069162244746,B,364,Incorrect
1,relearn,33,171,A,36.24329669636999,66.72149255443234,1.8121648348184993,1.0480587542277535,A,1434,Correct
1,relearn,33,172,B,67.50093609465985,53.89000082701773,3.3750468047329925,0.8465021535005337,A,1424,Incorrect
1,relearn,33,173,A,17.88797292328742,34.69274687340358,0.894398646164371,0.5449523935516747,B,524,Incorrect
1,relearn,33,174,A,29.88868337010796,52.873734243169146,1.494434168505398,0.8305386753309963,A,503,Correct
1,relearn,33,175,B,48.27961596048437,22.15319896487293,2.4139807980242183,0.3479816356077891,B,2575,Correct
1,relearn,33,176,B,72.72986763928901,58.09210105141426,3.6364933819644505,0.9125085894735948,B,1126,Correct
1,relearn,33,177,B,53.95086304493076,32.708656290428564,2.697543152246538,0.5137863715540197,B,1062,Correct
1,relearn,33,178,B,40.93850531439547,31.400977025607066,2.046925265719773,0.49324539369594517,A,1677,Incorrect
1,relearn,33,179,B,68.14408280678764,43.455491137920255,3.407204140339382,0.6825972585851332,B,1086,Correct
1,relearn,33,180,B,45.61900718824812,23.09757100734738,2.2809503594124063,0.36281579696225563,A,1506,Incorrect
1,relearn,33,181,B,35.44041260349506,25.136911962015603,1.7720206301747532,0.394849689769008,B,1306,Correct
1,relearn,33,182,A,30.13907207035367,56.7871997465244,1.5069536035176836,0.8920112477080862,A,1836,Correct
1,relearn,33,183,B,56.574355150880955,42.736315095349575,2.8287177575440476,0.671300467725244,B,2174,Correct
1,relearn,33,184,B,56.79808006431855,39.96105270943595,2.8399040032159273,0.6277067481083923,B,972,Correct
1,relearn,33,185,B,80.83255774029055,67.07482200123985,4.041627887014528,1.0536088401996908,B,1206,Correct
1,relearn,33,186,B,46.61687083408949,20.466355179753545,2.3308435417044744,0.3214847553923657,B,2256,Correct
1,relearn,33,187,B,52.12404867656093,45.103442472013825,2.606202433828047,0.7084832176084425,B,921,Correct
1,relearn,33,188,A,28.210071344680685,42.47544863029156,1.410503567234034,0.667202786874273,A,845,Correct
1,relearn,33,189,B,45.76889867296639,18.898950489655743,2.2884449336483192,0.2968640200942985,B,1389,Correct
1,relearn,33,190,A,61.64382170413406,81.12076892515019,3.0821910852067034,1.274242058544035,B,1343,Incorrect
1,relearn,33,191,B,34.496685607888324,17.805385673066073,1.724834280394416,0.27968634412418664,A,1704,Incorrect
1,relearn,33,192,B,66.12308060215481,53.84403516151792,3.3061540301077406,0.8457801265152762,B,1003,Correct
1,relearn,33,193,A,23.596484556232017,39.091982847274295,1.179824227811601,0.6140554306362755,A,1138,Correct
1,relearn,33,194,A,14.593605220823004,39.035134713144544,0.7296802610411502,0.6131624622335141,A,783,Correct
1,relearn,33,195,A,52.93656319451188,70.11989607883218,2.6468281597255943,1.1014407519586946,A,1517,Correct
1,relearn,33,196,A,26.817309804555695,47.23271292550351,1.3408654902277848,0.7419297196793875,A,762,Correct
1,relearn,33,197,A,64.7278165031547,75.95300114232384,3.236390825157735,1.1930669520341086,A,761,Correct
1,relearn,33,198,A,56.24567340942401,81.17852280172927,2.8122836704712006,1.275149254315921,B,1179,Incorrect
1,relearn,33,199,B,58.91724678546856,30.92621369084927,2.9458623392734284,0.48578782867260084,A,2779,Incorrect
1,relearn,33,200,B,57.91131600699862,47.600222805522776,2.8955658003499307,0.7477025513753385,B,3384,Correct
1,relearn,33,201,B,40.30970774350645,29.6510253898498,2.015485387175323,0.46575721768078276,B,1651,Correct
1,relearn,33,202,A,67.56541425039784,87.58512831849603,3.378270712519892,1.3757839784455326,A,1963,Correct
1,relearn,33,203,B,79.4259927455237,50.68857352062786,3.971299637276185,0.7962142509667531,B,3849,Correct
1,relearn,33,204,B,51.104171802667274,42.12774537413156,2.555208590133364,0.6617410768983655,B,2740,Correct
1,relearn,33,205,B,49.03330175271055,41.542377551532475,2.4516650876355275,0.6525461406427399,B,2621,Correct
1,relearn,33,206,A,15.062460364493415,32.110238268172736,0.7531230182246708,0.5043864432415465,B,762,Incorrect
1,relearn,33,207,A,15.480489981003391,40.81185322288354,0.7740244990501695,0.6410710913219794,A,589,Correct
1,relearn,33,208,A,43.70440197481188,73.90528655372299,2.185220098740594,1.1609015264931233,A,1749,Correct
1,relearn,33,209,A,66.47909083861836,81.42984214911573,3.3239545419309184,1.2790969693931922,A,2033,Correct
1,relearn,33,210,A,56.807290973732506,82.65726033671066,2.840364548686625,1.298377209198346,A,2620,Correct
1,relearn,33,211,A,20.778378229991308,39.127218566699895,1.0389189114995654,0.6146089120227327,A,1137,Correct
1,relearn,33,212,A,45.884191293184244,76.25273199570528,2.294209564659212,1.1977751132692953,A,4900,Correct
1,relearn,33,213,A,53.916460430882765,65.68934204034093,2.695823021544138,1.031845771865411,B,2701,Incorrect
1,relearn,33,214,B,60.66813788060927,30.76078140192992,3.0334068940304637,0.48318922435492284,B,5267,Correct
1,relearn,33,215,B,56.44376168728834,37.21637303608895,2.822188084364417,0.5845934206171717,A,1238,Incorrect
1,relearn,33,216,A,38.30652341128756,56.4854790386138,1.915326170564378,0.8872718299110468,B,1200,Incorrect
1,relearn,33,217,B,53.99089499268167,42.2466312719501,2.6995447496340836,0.6636085322143763,B,4042,Correct
1,relearn,33,218,A,30.736625688916476,42.882977257452026,1.5368312844458238,0.6736042315803472,B,1686,Incorrect
1,relearn,33,219,A,28.13887421264696,48.864802235924216,1.406943710632348,0.767566518617488,A,990,Correct
1,relearn,33,220,A,28.310135286311812,57.39771668211179,1.4155067643155905,0.9016012253067536,A,717,Correct
1,relearn,33,221,A,60.16878341928538,74.054487175166,3.0084391709642695,1.1632451643743051,A,1787,Correct
1,relearn,33,222,B,42.19665785780825,16.75373828202774,2.109832892890412,0.2631671055349221,A,4007,Incorrect
1,relearn,33,223,A,43.55279754812778,56.908143087985124,2.177639877406389,0.8939110212732541,A,1964,Correct
1,relearn,33,224,B,70.66034195594467,53.43148829096013,3.5330170977972335,0.839299855426247,A,1299,Incorrect
1,relearn,33,225,A,37.548410092193066,55.64528010566511,1.8774205046096535,0.8740740159345189,B,729,Incorrect
1,relearn,33,226,A,14.429649982438594,31.523473286464455,0.7214824991219296,0.49516956046195415,A,898,Correct
1,relearn,33,227,A,38.35895927883486,62.37687717784174,1.917947963941743,0.9798136954789022,B,1159,Incorrect
1,relearn,33,228,A,29.298900246901326,44.98344636796586,1.4649450123450662,0.70659832321376,A,1079,Correct
1,relearn,33,229,B,41.40287707784351,29.4559086397017,2.070143853892176,0.4626923309364949,A,3247,Incorrect
1,relearn,33,230,B,53.37571804912864,45.985876889772264,2.6687859024564324,0.722344465028966,B,1177,Correct
1,relearn,33,231,A,41.8926493327107,71.46344127059484,2.094632466635535,1.122545110479732,B,3601,Incorrect
1,relearn,33,232,A,31.050535387222705,49.441840563764885,1.552526769361135,0.7766306154754079,A,1720,Correct
1,relearn,33,233,B,35.82486727863957,18.007434710576764,1.7912433639319787,0.28286012298372903,A,6672,Incorrect
1,relearn,33,234,B,61.68474200442459,47.35609802245281,3.08423710022123,0.7438678482500796,B,1980,Correct
1,relearn,33,235,A,59.11405785526685,86.12346877894925,2.955702892763343,1.3528242840880844,B,1605,Incorrect
1,relearn,33,236,A,22.243647632162578,41.26581482004991,1.1121823816081289,0.648201903415328,A,931,Correct
1,relearn,33,237,A,40.34470964616237,66.1415839190398,2.017235482308118,1.0389495706842413,A,4711,Correct
1,relearn,33,238,B,34.4843625213815,15.81277863418072,1.724218126069075,0.24838654594991894,B,5359,Correct
1,relearn,33,239,B,70.49568396362001,44.205477433720255,3.524784198181001,0.6943780157710246,B,6856,Correct
1,relearn,33,240,A,49.460967261209596,64.90351860066421,2.47304836306048,1.0195020861398758,B,1129,Incorrect
1,relearn,33,241,B,73.08180242097828,42.86478505058927,3.654090121048914,0.6733184690631842,B,2507,Correct
1,relearn,33,242,B,74.57067723025064,52.34425782325205,3.7285338615125316,0.8222216791756936,B,2216,Correct
1,relearn,33,243,B,73.3405796668945,63.31221427046536,3.667028983344725,0.9945059361729842,B,2184,Correct
1,relearn,33,244,A,20.119240063740843,38.75215976493766,1.0059620031870422,0.6087175021413305,A,1828,Correct
1,relearn,33,245,B,68.0525082943431,37.75739448590191,3.4026254147171553,0.5930917656780059,B,2370,Correct
1,relearn,33,246,A,42.96022749455417,57.575330472016724,2.1480113747277083,0.9043911761944615,A,2522,Correct
1,relearn,33,247,B,59.24738274138608,48.5694543704547,2.962369137069304,0.7629272051954257,A,2619,Incorrect
1,relearn,33,248,B,33.55538689355447,16.82258355416516,1.6777693446777235,0.2642485245408287,B,3059,Correct
1,relearn,33,249,B,46.05868442321177,36.502245201322935,2.302934221160589,0.5733759268200471,B,1766,Correct
1,relearn,33,250,B,78.17544696514821,48.27639280215568,3.908772348257411,0.7583238048453372,B,4567,Correct
1,relearn,33,251,A,30.64360695242035,52.48928514916758,1.5321803476210176,0.8244997630840234,A,1296,Correct
1,relearn,33,252,B,76.82527513847499,56.790173149585044,3.8412637569237496,0.8920579538141435,B,3576,Correct
1,relearn,33,253,B,65.66151222007434,41.68703782651563,3.2830756110037167,0.6548184589285065,B,2545,Correct
1,relearn,33,254,A,29.87611641852839,51.02350763130641,1.4938058209264196,0.8014753836744747,A,1535,Correct
1,relearn,33,255,A,46.069995264137425,60.82079748455343,2.303499763206871,0.9553708528147281,B,2673,Incorrect
1,relearn,33,256,B,48.60683626846016,28.082723917501703,2.4303418134230075,0.4411223957600687,B,2147,Correct
1,relearn,33,257,A,51.56170477979832,72.33456881204809,2.578085238989916,1.136228749902578,A,1679,Correct
1,relearn,33,258,A,53.96066288194192,62.63663172905433,2.698033144097096,0.9838939104280322,B,1454,Incorrect
1,relearn,33,259,A,32.70357646481941,50.559183822082666,1.6351788232409705,0.7941818023347541,A,1251,Correct
1,relearn,33,260,A,34.49637368297721,43.85318347929048,1.7248186841488604,0.6888441952753214,A,650,Correct
1,relearn,33,261,B,62.65876881421583,31.529692441247228,3.1329384407107916,0.4952672507168396,A,418,Incorrect
1,relearn,33,262,A,35.44509911203575,68.40130426424379,1.7722549556017873,1.0744451748625425,A,755,Correct
1,relearn,33,263,A,58.21281046769745,71.86192261805304,2.9106405233848727,1.128804440848568,B,983,Incorrect
1,relearn,33,264,B,40.258971761206,15.349903916685307,2.0129485880602997,0.24111572688983876,B,1373,Correct
1,relearn,33,265,A,26.156655973757825,40.84226785112996,1.3078327986878913,0.6415488431852824,B,1011,Incorrect
1,relearn,33,266,A,22.567923147563178,44.16288003229443,1.128396157378159,0.6937088973541177,A,857,Correct
1,relearn,33,267,A,24.6359410747434,35.63616490008371,1.23179705373717,0.5597715692610872,A,1568,Correct
1,relearn,33,268,B,48.16578885541703,33.98933990289731,2.4082894427708514,0.5339033026965431,B,2951,Correct
1,relearn,33,269,A,40.253399512252805,67.93090817869917,2.0126699756126403,1.0670562104294203,B,2812,Incorrect
1,relearn,33,270,A,40.18476191238572,51.06829004620825,2.0092380956192857,0.802178824202803,A,3198,Correct
1,relearn,33,271,B,84.3690399647592,58.339305407146924,4.21845199823796,0.9163916664131203,B,2373,Correct
1,relearn,33,272,A,19.591175892997114,43.74216224056421,0.9795587946498557,0.6871002777354468,A,3639,Correct
1,relearn,33,273,B,79.59790832028641,52.305060115092935,3.9798954160143207,0.8216059630157424,B,1915,Correct
1,relearn,33,274,A,53.573559553188815,71.84563275957493,2.678677977659441,1.1285485603499537,B,4632,Incorrect
1,relearn,33,275,A,38.322377241959245,71.30422020765037,1.9161188620979623,1.1200440718715163,A,885,Correct
1,relearn,33,276,B,43.842467709523845,33.2925408769182,2.1921233854761923,0.5229580091913205,A,696,Incorrect
1,relearn,33,277,B,64.17879986390301,38.026160763640874,3.2089399931951506,0.5973135364963931,B,852,Correct
1,relearn,33,278,A,54.31702377377248,82.20748184505514,2.715851188688624,1.2913121051727077,A,1534,Correct
1,relearn,33,279,A,36.323052924540406,45.0740645436315,1.8161526462270203,0.7080217501885244,B,877,Incorrect
1,relearn,33,280,A,24.8247916305218,53.73314369228382,1.2412395815260902,0.8440382473898179,A,846,Correct
1,relearn,33,281,B,55.95944872760629,44.594863438820504,2.7979724363803147,0.7004944768361928,B,1048,Correct
1,relearn,33,282,A,59.94101358119003,86.7707069914569,2.9970506790595017,1.3629910781557675,A,2836,Correct
1,relearn,33,283,A,61.334593675379885,80.15414065934647,3.066729683768994,1.259058297251029,A,993,Correct
1,relearn,33,284,B,47.42663909413147,35.800174674127085,2.3713319547065734,0.5623478287673451,A,1260,Incorrect
1,relearn,33,285,A,40.874587212194726,57.26214042315737,2.0437293606097366,0.8994715984110916,B,1750,Incorrect
1,relearn,33,286,A,18.17112472546169,41.2036487353584,0.9085562362730846,0.6472254008404815,A,761,Correct
1,relearn,33,287,B,41.21412791483675,15.690146134304918,2.0607063957418377,0.2464602391464131,A,1113,Incorrect
1,relearn,33,288,B,49.234151252629886,24.72295753363173,2.4617075626314944,0.38834730881334945,B,736,Correct
1,relearn,33,289,B,55.26850634774263,44.241788122859376,2.7634253173871315,0.6949483827422559,B,872,Correct
1,relearn,33,290,A,43.348107318037094,57.29687496782772,2.1674053659018546,0.9000172073629022,B,605,Incorrect
1,relearn,33,291,A,55.24678674033414,74.83253812946307,2.762339337016707,1.1754667601849964,A,704,Correct
1,relearn,33,292,B,54.75148599149581,35.54494101606445,2.7375742995747907,0.5583386278417529,A,872,Incorrect
1,relearn,33,293,A,51.84277774288476,63.65474651790331,2.5921388871442383,0.9998864201338276,B,804,Incorrect
1,relearn,33,294,A,33.56739324368265,53.415744761272094,1.6783696621841326,0.8390525566401994,A,700,Correct
1,relearn,33,295,B,71.94876573582076,46.44214732145132,3.597438286791038,0.729511544210032,A,696,Incorrect
1,relearn,33,296,B,52.67173476529197,43.33695458050902,2.6335867382645985,0.6807352906954084,B,615,Correct
1,relearn,33,297,B,51.00126860789665,38.22053424775536,2.5500634303948324,0.6003667480451266,B,1033,Correct
1,relearn,33,298,A,65.12995240940445,87.89398290854605,3.2564976204702223,1.3806354550011755,A,1689,Correct
1,relearn,33,299,B,74.27758478131592,45.53766508664968,3.713879239065796,0.7153039704892552,B,795,Correct
1,relearn,33,300,A,17.109821955521415,37.61379337848568,0.8554910977760707,0.5908360847574752,A,876,Correct
1,relearn,33,301,A,68.20897254610821,88.52952513166287,3.410448627305411,1.3906185288971251,A,1415,Correct
1,relearn,33,302,A,53.33094752408791,74.01438091238444,2.6665473762043956,1.1626151766717179,A,1064,Incorrect
1,relearn,33,303,A,50.68708552440513,58.485528036879856,2.5343542762202564,0.9186885261099081,B,1642,Correct
1,relearn,33,304,A,25.43698608469191,42.74452460098061,1.2718493042345955,0.6714294223381444,B,1599,Correct
1,relearn,33,305,B,52.034492203400255,43.2860013243863,2.601724610170013,0.6799349188198502,B,2547,Incorrect
1,relearn,33,306,B,51.066397353565364,23.95872227523582,2.5533198676782685,0.376342729446395,B,860,Correct
1,relearn,33,307,A,23.92606761297862,43.873986659393864,1.196303380648931,0.6891709708642418,A,766,Correct
1,relearn,33,308,A,56.17615076900916,73.17305068064971,2.8088075384504583,1.1493995922954137,A,511,Correct
1,relearn,33,309,A,43.020258231156944,73.0523644932873,2.1510129115578476,1.1475038580973762,A,680,Correct
1,relearn,33,310,B,58.46057894118985,38.22162005538504,2.9230289470594926,0.6003838038714897,A,757,Correct
1,relearn,33,311,A,35.924522179255746,50.68600151623831,1.7962261089627873,0.7961738500162769,A,568,Correct
1,relearn,33,312,B,82.70890572543509,62.66792781557966,4.135445286271755,0.9843855082056026,A,523,Incorrect
1,relearn,33,313,A,48.198910962694974,64.23581788565778,2.4099455481347487,1.0090138678345715,A,741,Incorrect
1,relearn,33,314,A,29.147440322208432,56.943929077677836,1.4573720161104218,0.8944731462848545,A,993,Correct
1,relearn,33,315,B,53.622850242159785,43.00291309384381,2.681142512107989,0.6754881792929002,B,457,Correct
1,relearn,33,316,B,72.74067391696826,60.268185085807495,3.6370336958484133,0.9466904375538137,B,1297,Correct
1,relearn,33,317,B,66.8811954981143,52.500260120762945,3.3440597749057144,0.8246721575347103,B,1539,Correct
1,relearn,33,318,A,40.405481252768574,47.74865272391788,2.020274062638429,0.7500340830813532,A,750,Incorrect
1,relearn,33,319,B,49.91745903764252,24.002693613873276,2.495872951882126,0.3770334296185546,B,1075,Incorrect
1,relearn,33,320,A,67.87458512439096,82.43432857135622,3.393729256219548,1.2948754052168996,A,811,Incorrect
1,relearn,33,321,B,42.97756234615289,31.708687249030262,2.1488781173076443,0.4980788945826491,B,727,Incorrect
1,relearn,33,322,A,11.703137766151979,33.45386683089849,0.585156888307599,0.5254921113506098,A,860,Incorrect
1,relearn,33,323,A,63.92352985473718,74.33348729953215,3.196176492736859,1.1676276880796022,B,747,Correct
1,relearn,33,324,A,42.98909181091905,56.53273238553233,2.149454590545952,0.8880140837487307,B,1294,Correct
1,relearn,33,325,B,71.41603453918502,48.95153678142859,3.5708017269592514,0.7689289416723329,B,1029,Correct
1,relearn,33,326,A,24.73201586409155,38.236603771710335,1.2366007932045775,0.6006191675371448,B,1018,Correct
1,relearn,33,327,A,65.12991748197868,77.7755954291776,3.256495874098934,1.2216961961443813,B,833,Incorrect
1,relearn,33,328,B,81.41973043194156,62.252725401588656,4.070986521597078,0.9778635239378682,A,632,Correct
1,relearn,33,329,B,41.9347845364009,33.92907044897467,2.096739226820045,0.5329565923281468,B,856,Correct
1,relearn,33,330,B,50.523585842187074,29.977403978072154,2.5261792921093535,0.47088396055602455,A,1474,Correct
1,relearn,33,331,B,56.67244897922561,27.930626569801905,2.8336224489612802,0.43873325620924775,A,801,Incorrect
1,relearn,33,332,A,57.72706144458108,86.23619139308863,2.886353072229054,1.3545949267704531,B,691,Incorrect
1,relearn,33,333,A,40.16499326669893,71.92044842459448,2.0082496633349463,1.1297237620679481,A,495,Correct
1,relearn,33,334,B,82.73610029623264,67.30015939899593,4.136805014811632,1.0571484317665383,A,753,Incorrect
1,relearn,33,335,A,47.75115702550271,54.49284330832526,2.3875578512751354,0.8559715810532718,B,1034,Correct
1,relearn,33,336,A,25.185720885032318,53.53747744004732,1.2592860442516158,0.8409647290869097,B,1679,Incorrect
1,relearn,33,337,A,37.93652257062914,61.97409761059815,1.896826128531457,0.9734868488315597,A,729,Incorrect
1,relearn,33,338,A,16.75135097578118,45.59449542032497,0.8375675487890589,0.7161966592831318,B,634,Correct
1,relearn,33,339,A,60.06677930830439,84.60598068914425,3.003338965415219,1.3289876369138773,B,984,Incorrect
1,relearn,33,340,B,67.07031372314253,56.75398363651392,3.3535156861571265,0.8914894902721373,A,287,Correct
1,relearn,33,341,B,89.00904480284734,67.39139868103658,4.450452240142368,1.058581615057427,A,1791,Incorrect
1,relearn,33,342,A,20.226149992779686,38.736890935127036,1.0113074996389841,0.6084776599235208,B,1677,Correct
1,relearn,33,343,B,55.595521733663205,40.03882366265252,2.7797760866831602,0.6289283713848316,B,791,Correct
1,relearn,33,344,B,59.976563967359695,47.98518845673744,2.9988281983679848,0.7537495776840405,B,1105,Incorrect
1,relearn,33,345,B,74.96552745907219,43.85895318350318,3.7482763729536095,0.6889348255771613,B,817,Incorrect
1,relearn,33,346,A,39.46803364616849,47.693626035892095,1.9734016823084246,0.7491697258870875,A,430,Correct
1,relearn,33,347,B,74.89837517446098,49.89968986787992,3.744918758723049,0.7838224955267029,A,818,Correct
1,relearn,33,348,A,26.875991300615894,56.26521594865472,1.3437995650307948,0.8838119453846847,A,857,Correct
1,relearn,33,349,A,38.1530227135908,53.72601093975305,1.9076511356795403,0.8439262063750653,A,578,Correct
1,relearn,33,350,B,54.255446580085376,38.48147192763789,2.712772329004269,0.6044655475359453,A,793,Incorrect
1,relearn,33,351,B,57.46502485461312,45.965533495254896,2.8732512427306562,0.7220249117351416,B,750,Incorrect
1,relearn,33,352,A,14.221965027909057,32.70437891169333,0.7110982513954528,0.5137191826459636,A,654,Incorrect
1,relearn,33,353,A,34.10541979217862,52.108925277988774,1.705270989608931,0.818525084198945,B,779,Incorrect
1,relearn,33,354,B,45.69652585510606,30.002844926409004,2.2848262927553034,0.47128358603800163,B,461,Correct
1,relearn,33,355,B,71.90722301904984,61.159841696351236,3.5953611509524923,0.9606965468398587,B,557,Incorrect
1,relearn,33,356,A,59.34528179988974,76.70618105820199,2.967264089994487,1.2048978744868795,A,497,Correct
1,relearn,33,357,A,23.334085211544608,52.110836255770856,1.1667042605772304,0.8185551017677519,A,598,Correct
1,relearn,33,358,B,76.34943425971052,63.41319779518453,3.817471712985526,0.996092181669941,A,714,Incorrect
1,relearn,33,359,A,27.552198112674045,47.08154722634777,1.3776099056337023,0.7395552144296753,A,701,Incorrect
1,relearn,33,360,A,23.706411929543854,48.663442562127024,1.185320596477193,0.7644035682578356,B,653,Correct
1,relearn,33,361,A,59.383751690435005,82.70698913207144,2.9691875845217504,1.2991583472892325,B,345,Incorrect
1,relearn,33,362,A,45.78756976070283,70.5270691330688,2.2893784880351418,1.107836611338342,A,590,Correct
1,relearn,33,363,B,34.767046359126184,18.009230712104976,1.7383523179563094,0.28288833450976336,A,1235,Incorrect
1,relearn,33,364,B,52.065689917355265,32.34353959140782,2.6032844958677632,0.5080511318572871,B,711,Incorrect
1,relearn,33,365,A,23.61585580027878,47.51464955893655,1.180792790013939,0.7463583699612428,A,1142,Incorrect
1,relearn,33,366,B,54.445949720544874,23.644776220354363,2.722297486027244,0.37141127634819954,B,5435,Incorrect
1,relearn,33,367,B,59.52204403763931,50.94619030625107,2.9761022018819654,0.8002608859725294,A,1321,Correct
1,relearn,33,368,A,46.326580755104835,75.12532307530226,2.3163290377552417,1.1800658153596468,B,2509,Incorrect
1,relearn,33,369,B,41.49789451243258,20.463812982419892,2.074894725621629,0.3214448226500288,A,851,Incorrect
1,relearn,33,370,A,14.561009867212,31.79814597254302,0.7280504933605999,0.4994841089255851,B,870,Correct
1,relearn,33,371,B,37.49549154029456,15.175239275552485,1.874774577014728,0.2383721011227149,B,507,Incorrect
1,relearn,33,372,A,15.589593842955903,34.50163843584352,0.7794796921477952,0.5419504692342862,B,733,Correct
1,relearn,33,373,A,23.932585853962788,45.08522298028784,1.1966292926981394,0.7081970265016501,A,1114,Correct
1,relearn,33,374,A,16.19316268816953,37.29848531459747,0.8096581344084766,0.5858832372718309,B,631,Correct
1,relearn,33,375,A,33.300439412188105,64.241983935102,1.6650219706094052,1.00911072391275,A,1389,Correct
1,relearn,33,376,A,30.678353432447246,57.782780449995414,1.5339176716223621,0.9076497928284877,A,1086,Incorrect
1,relearn,33,377,A,56.274710029399,69.02791367780107,2.81373550146995,1.0842879325140513,B,1004,Incorrect
1,relearn,33,378,A,44.17079521369821,50.9339056507451,2.2085397606849106,0.8000679190550823,A,1671,Correct
1,relearn,33,379,B,61.84965570446811,45.87267164680789,3.092482785223406,0.7205662412307423,A,1127,Incorrect
1,relearn,33,380,B,39.86682468385596,17.584527306325796,1.9933412341927979,0.2762171090120112,B,787,Incorrect
1,relearn,33,381,B,59.60015870864429,32.16616706418961,2.9800079354322144,0.5052649707150002,A,694,Incorrect
1,relearn,33,382,B,64.23190951464679,31.924883111621682,3.2115954757323393,0.5014748912509177,B,424,Incorrect
1,relearn,33,383,A,53.576149394820774,64.0318932706524,2.678807469741039,1.0058106274726366,A,969,Incorrect
1,relearn,33,384,B,51.169004434303446,28.08542397267869,2.558450221715172,0.4411648081276102,B,347,Correct
1,relearn,33,385,A,63.31117660042472,73.03370932472244,3.165558830021236,1.147210823394802,B,2245,Correct
1,relearn,33,386,A,56.015486349070414,78.131505839122,2.800774317453521,1.2272868237904684,B,855,Incorrect
1,relearn,33,387,B,56.965942470893985,28.5710720201186,2.848297123544699,0.44879334981794744,A,549,Incorrect
1,relearn,33,388,B,76.70071441973772,54.329704168315665,3.835035720986886,0.8534089974344362,B,448,Incorrect
1,relearn,33,389,B,65.35559847513726,43.04731253423032,3.2677799237568625,0.6761856040716089,A,299,Incorrect
1,relearn,33,390,A,24.449831220726484,39.35297130542452,1.222491561036324,0.618155027750258,B,498,Incorrect
1,relearn,33,391,B,78.0875133119928,46.82777085020735,3.9043756655996393,0.7355689044349885,A,366,Incorrect
1,relearn,33,392,B,82.07484287271639,51.23392748953596,4.103742143635819,0.8047806510783916,A,961,Incorrect
1,relearn,33,393,B,55.19684529978696,27.72104908741778,2.7598422649893477,0.43544122081416864,B,497,Incorrect
1,relearn,33,394,B,75.64402302441594,47.46042626518507,3.7822011512207974,0.7455066324547274,B,1597,Incorrect
1,relearn,33,395,A,45.132840817789535,73.46970554475769,2.256642040889477,1.1540594360040801,A,4091,Incorrect
1,relearn,33,396,B,70.15682238089433,55.97299211615507,3.5078411190447163,0.8792217041577609,B,940,Incorrect
1,relearn,33,397,A,52.17959368094089,78.84733938852186,2.6089796840470445,1.238531110890407,B,355,Incorrect
1,relearn,33,398,A,29.606052898074786,57.06533771770811,1.4803026449037393,0.8963802287428616,B,398,Correct
1,relearn,33,399,B,70.4432727134195,44.09037777744238,3.5221636356709753,0.6925700345980582,A,908,Incorrect
1,relearn,33,400,B,42.54312628360579,22.06032608850975,2.127156314180289,0.34652279187728746,B,698,Correct
1,relearn,33,401,A,67.65854215304665,83.18964503144369,3.382927107652333,1.3067398884276307,B,562,Correct
1,relearn,33,402,B,82.9512149939567,63.02663198071525,4.147560749697835,0.9900200200556126,B,514,Correct
1,relearn,33,403,A,24.10669845869556,55.17197439954569,1.205334922934778,0.8666393472882844,B,862,Correct
1,relearn,33,404,B,81.26139091897782,61.772101826500155,4.063069545948891,0.9703139064746676,B,1147,Correct
1,relearn,33,405,A,32.85908928525984,47.213233455266895,1.642954464262992,0.7416237368764316,B,743,Incorrect
1,relearn,33,406,B,40.531873742299396,14.726358149807922,2.02659368711497,0.2313210928878437,B,1489,Correct
1,relearn,33,407,B,78.68299269356015,52.56604040361735,3.9341496346780076,0.8257054318015427,B,2101,Correct
1,relearn,33,408,A,30.226584509071852,44.706506174846496,1.5113292254535926,0.7022481568328224,B,1288,Correct
1,relearn,33,409,B,79.94822827700145,51.28386534598206,3.9974114138500725,0.8055650730931272,B,913,Correct
1,relearn,33,410,A,30.328755591223096,55.88235913613231,1.5164377795611548,0.8777980446366985,B,922,Incorrect
1,relearn,33,411,A,35.11625791743256,50.407821242726314,1.7558128958716281,0.7918042044980825,B,1493,Incorrect
1,relearn,33,412,B,41.799705769582516,16.829874669854195,2.089985288479126,0.2643630531182545,A,420,Incorrect
1,relearn,33,413,B,80.87806574854461,58.8515145186571,4.043903287427231,0.9244374283222309,A,570,Incorrect
1,relearn,33,414,B,49.42516313092605,18.26891884793313,2.4712581565463028,0.2869675062084741,B,417,Incorrect
1,relearn,33,415,B,83.0523714810748,58.12483214284686,4.15261857405374,0.913022728255538,A,1549,Correct
1,relearn,33,416,A,67.06579480096748,80.04307500442731,3.353289740048374,1.2573136820232282,A,447,Correct
1,relearn,33,417,A,40.27161272633859,70.2559764428599,2.0135806363169295,1.1035782973183312,A,456,Incorrect
1,relearn,33,418,A,53.26162429143531,67.20699194530378,2.6630812145717653,1.0556849608261738,B,616,Correct
1,relearn,33,419,B,75.11068828800472,50.520737354647125,3.7555344144002363,0.7935778866364943,B,877,Incorrect
1,relearn,33,420,A,46.558878920164375,61.00303846235415,2.3279439460082187,0.9582334873999369,A,286,Correct
1,relearn,33,421,A,54.826835222482316,71.83959462901021,2.741341761124116,1.1284537136168362,B,1322,Incorrect
1,relearn,33,422,B,56.164526659936264,43.04763933299882,2.8082263329968136,0.6761907374146605,A,499,Correct
1,relearn,33,423,A,45.185771582676374,63.65595408334195,2.259288579133819,0.9999053885273813,A,582,Correct
1,relearn,33,424,B,34.360709249552116,18.11693983960261,1.7180354624776057,0.28458022552811896,A,823,Correct
1,relearn,33,425,A,34.44886901014247,64.58728233088007,1.7224434505071233,1.0145346584301136,A,880,Incorrect
1,relearn,33,426,B,64.86927783058965,36.25887651500372,3.243463891529483,0.5695531004347758,B,487,Correct
1,relearn,33,427,A,62.91852175558967,73.48957608951446,3.145926087779484,1.1543715617912336,B,750,Correct
1,relearn,33,428,B,71.7341125155256,41.444132441457256,3.5867056257762795,0.6510029100624227,B,462,Incorrect
1,relearn,33,429,A,24.188521056280464,51.06284715558432,1.2094260528140233,0.8020933274768108,A,359,Correct
1,relearn,33,430,B,42.078665414834795,21.287607878488537,2.1039332707417397,0.33438496261779893,A,459,Correct
1,relearn,33,431,A,49.10108185283436,74.60935097069365,2.4550540926417184,1.1719609444931685,A,563,Incorrect
1,relearn,33,432,B,65.67502400540053,48.59241486819021,3.2837512002700264,0.763287867850469,B,852,Incorrect
1,relearn,33,433,A,20.4508528248474,44.79066935805797,1.02254264124237,0.7035701890232218,A,695,Correct
1,relearn,33,434,B,47.66948992036347,29.312090937328563,2.3834744960181733,0.4604332477503368,A,1411,Correct
1,relearn,33,435,A,11.202654785109218,37.55664096709591,0.5601327392554609,0.5899383367786898,A,986,Incorrect
1,relearn,33,436,A,25.35465885871468,52.927809473703874,1.267732942935734,0.8313880870659418,B,533,Incorrect
1,relearn,33,437,B,40.45061956372267,15.273313696082766,2.0225309781861336,0.23991265051792995,A,751,Correct
1,relearn,33,438,A,50.877793584639534,58.223554645984514,2.5438896792319765,0.914573457708544,A,479,Correct
1,relearn,33,439,A,69.49300103537217,88.35517966339444,3.4746500517686085,1.3878799166856315,A,634,Correct
1,relearn,33,440,A,46.50966565035464,53.853138120613615,2.325483282517732,0.8459231154623807,A,650,Correct
1,relearn,33,441,A,14.78567015712198,34.93259194324874,0.7392835078560991,0.5487198710988012,B,1192,Correct
1,relearn,33,442,A,43.37145783617504,71.73973340762072,2.168572891808752,1.1268850972193574,B,689,Incorrect
1,relearn,33,443,B,61.06657831222411,36.47441701614578,3.0533289156112056,0.5729388027094706,A,787,Correct
1,relearn,33,444,A,49.45795248642953,58.0201306172244,2.4728976243214764,0.9113780805369621,B,4011,Correct
1,relearn,33,445,B,38.974080393173956,30.400950710837463,1.9487040196586978,0.47753701707656193,B,741,Incorrect
1,relearn,33,446,A,40.34165080503229,50.43160933795831,2.0170825402516144,0.792177867024201,A,528,Incorrect
1,relearn,33,447,B,59.19926421342545,38.494256278013175,2.9599632106712725,0.6046663636420448,A,7506,Incorrect
1,relearn,33,448,B,72.35531588665339,49.71687937104299,3.6177657943326693,0.7809509149573929,B,722,Correct
1,relearn,33,449,B,74.4487165621424,46.95118207947293,3.7224358281071197,0.7375074434911446,B,972,Correct
1,relearn,33,450,A,39.895489710202135,61.10823572978538,1.9947744855101066,0.9598859222126351,B,444,Incorrect
1,relearn,33,451,A,31.469629808010886,64.31794868989681,1.5734814904005443,1.0103039754907255,A,449,Incorrect
1,relearn,33,452,A,31.207804927192985,53.37165167902059,1.5603902463596493,0.8383599441238221,B,412,Correct
1,relearn,33,453,B,53.096526246864954,37.762710814738526,2.654826312343248,0.593175274376092,B,800,Incorrect
1,relearn,33,454,A,49.60629731973376,70.9365048439002,2.480314865986688,1.1142680124446682,A,513,Incorrect
1,relearn,33,455,B,68.7647362212096,50.71365577959774,3.43823681106048,0.796608242169329,B,354,Correct
1,relearn,33,456,B,73.40536385782576,42.805844668987746,3.670268192891288,0.6723926357139886,B,545,Incorrect
1,relearn,33,457,A,43.19435236454654,64.82211064788886,2.159717618227327,1.0182233330079618,A,631,Incorrect
1,relearn,33,458,A,23.849775640495483,49.42810195679586,1.192488782024774,0.7764148099417856,B,371,Incorrect
1,relearn,33,459,B,89.71988247310719,68.19588962374527,4.4859941236553595,1.0712185292348926,B,605,Incorrect
1,relearn,33,460,B,44.88876447365119,21.789516497749794,2.2444382236825593,0.34226892477302173,A,367,Correct
1,relearn,33,461,A,60.52122855741429,71.84511920984188,3.0260614278707147,1.1285404935296108,A,339,Correct
1,relearn,33,462,B,63.992639260687135,46.678297721616666,3.199631963034357,0.7332209860215405,A,438,Incorrect
1,relearn,33,463,B,56.233163146291105,38.89428555527734,2.811658157314555,0.6109500088354145,B,493,Correct
1,relearn,33,464,A,38.35298915495987,53.16165642795678,1.9176494577479934,0.8350613464336681,A,1343,Incorrect
1,relearn,33,465,B,57.11494400160333,28.557114062161496,2.8557472000801662,0.4485740987270616,B,406,Correct
1,relearn,33,466,A,44.68346116223245,61.73409567586558,2.2341730581116224,0.9697169072565436,B,1712,Incorrect
1,relearn,33,467,B,58.50641408212295,25.814115904255473,2.9253207041061478,0.4054871844186222,A,857,Correct
1,relearn,33,468,A,59.5411558490155,70.58244973639094,2.977057792450775,1.108706527821083,B,756,Correct
1,relearn,33,469,B,67.09053673586938,38.87234523791752,3.3545268367934686,0.6106053711362394,A,968,Incorrect
1,relearn,33,470,A,55.744866132256185,76.47144715115738,2.7872433066128095,1.2012106828972808,B,4940,Correct
1,relearn,33,471,B,54.20449319487632,45.171961707459545,2.7102246597438158,0.7095595152419717,B,1145,Correct
1,relearn,33,472,A,42.22162029607954,66.51760993558491,2.111081014803977,1.044856173539925,A,969,Incorrect
1,relearn,33,473,A,45.12128186433907,58.75604958951126,2.2560640932169536,0.9229378687218308,B,1077,Incorrect
1,relearn,33,474,B,81.29917690028752,64.26447336571314,4.0649588450143765,1.0094639870627067,B,741,Correct
1,relearn,33,475,B,32.544431384702875,15.213161306225132,1.6272215692351437,0.23896777898756685,B,774,Incorrect
1,relearn,33,476,B,79.51973112967445,54.12399495820631,3.975986556483723,0.8501777247181597,A,605,Correct
1,relearn,33,477,B,83.49340356736136,66.05658904722968,4.174670178368068,1.0376144743598839,A,595,Incorrect
1,relearn,33,478,A,49.62040300298485,58.030743762284494,2.481020150149243,0.9115447914297233,B,1050,Correct
1,relearn,33,479,B,63.59441737034921,36.20762737012028,3.1797208685174603,0.568748080749433,B,733,Correct
1,relearn,33,480,A,25.20524751297269,52.54112503401353,1.2602623756486344,0.8253140620909983,B,938,Incorrect
1,relearn,33,481,A,34.02070470538597,44.58197821909266,1.7010352352692986,0.7002920762780084,A,1760,Incorrect
1,relearn,33,482,A,51.62493366559514,63.774217535823794,2.5812466832797565,1.0017630664949069,B,619,Correct
1,relearn,33,483,A,67.95031797612135,86.07110156309119,3.397515898806068,1.3520017017849413,B,1261,Incorrect
1,relearn,33,484,A,48.82776964672965,73.81110280493299,2.4413884823364826,1.1594220916266922,B,5113,Correct
1,relearn,33,485,B,67.6095846879169,53.69847139412205,3.3804792343958443,0.8434936162038775,B,5105,Incorrect
1,relearn,33,486,A,28.242613412502905,55.18991527148735,1.4121306706251453,0.866921161845739,A,3721,Incorrect
1,relearn,33,487,B,75.91868268527423,65.19790138772811,3.7959341342637116,1.0241262401457922,B,5146,Incorrect
1,relearn,33,488,A,58.9765654172292,77.12815083405297,2.94882827086146,1.2115261602261316,A,473,Correct
1,relearn,33,489,A,21.276398792698256,36.103292892840955,1.0638199396349128,0.5671091986127487,A,1075,Incorrect
1,relearn,33,490,A,55.773905838385055,73.032539672452,2.7886952919192525,1.1471924505399016,B,664,Incorrect
1,relearn,33,491,B,82.19874706682373,56.43162980240389,4.109937353341186,0.8864259680866543,A,322,Correct
1,relearn,33,492,A,13.587362138150048,38.78929232597954,0.6793681069075024,0.6093007790462213,A,1621,Incorrect
1,relearn,33,493,B,56.21844380026291,44.76049872670648,2.810922190013146,0.7030962698541818,B,877,Correct
1,relearn,33,494,A,46.59200772673724,59.56442747372305,2.329600386336862,0.9356358388336519,B,1032,Correct
1,relearn,33,495,A,65.76068874779652,81.3700367477012,3.288034437389826,1.278157548344548,B,955,Incorrect
1,relearn,33,496,A,27.821728711538064,41.37581783386079,1.3910864355769033,0.6499298267156332,A,822,Incorrect
1,relearn,33,497,A,25.39169106976488,45.128286994283975,1.269584553488244,0.7088734744516718,B,2251,Incorrect
1,relearn,33,498,B,87.93390142342777,64.33060651074348,4.396695071171388,1.0105028040756372,A,620,Incorrect
1,relearn,33,499,A,32.398427240622524,50.940690902821515,1.6199213620311264,0.8001745015454623,B,557,Incorrect
1,relearn,33,500,B,87.82824151672777,61.65034026854041,4.391412075836389,0.9684012803947877,B,365,Incorrect
1,relearn,33,501,A,50.773388128085635,63.65768861115817,2.538669406404282,0.9999326344266056,B,314,Correct
1,relearn,33,502,A,24.751185697060325,45.312045788334586,1.2375592848530161,0.7117599508387814,B,465,Incorrect
1,relearn,33,503,A,36.72777073574595,57.060451710376896,1.8363885367872974,0.896303479519176,B,418,Correct
1,relearn,33,504,B,40.71983638021125,13.880407688587233,2.035991819010562,0.2180329341164847,A,822,Correct
1,relearn,33,505,A,42.69210535868318,73.25743710467916,2.134605267934159,1.1507251311443818,B,585,Correct
1,relearn,33,506,B,74.30698049797032,59.78239580675818,3.7153490248985155,0.9390596774025438,A,464,Incorrect
1,relearn,33,507,A,37.22761600799366,60.647918829173,1.8613808003996832,0.9526552812461999,B,311,Correct
1,relearn,33,508,A,37.03479813166794,54.4607513129145,1.851739906583397,0.8554674811681644,B,320,Correct
1,relearn,33,509,B,84.30390154327762,64.8120592201571,4.215195077163881,1.0180654455503608,A,336,Incorrect
1,relearn,33,510,B,55.870418924940616,31.503625158999135,2.7935209462470305,0.4948577868047913,B,403,Incorrect
1,relearn,33,511,A,35.233215081503616,65.72393728155761,1.7616607540751807,1.0323891926436886,A,324,Incorrect
1,relearn,33,512,B,46.173869469597264,18.458381931114435,2.308693473479863,0.2899435853597184,B,529,Incorrect
1,relearn,33,513,A,59.23894626065666,67.57830432456238,2.9619473130328333,1.0615175220405026,B,590,Correct
1,relearn,33,514,A,40.91310051549605,58.8977123899009,2.0456550257748023,0.925163102786786,B,553,Correct
1,relearn,33,515,A,68.63816260323108,89.37858442489923,3.431908130161554,1.4039555210875925,B,866,Correct
1,relearn,33,516,A,31.18375457254007,52.67312522394837,1.5591877286270037,0.827387516225857,B,1090,Incorrect
1,relearn,33,517,B,79.73544002256733,56.705009813662286,3.9867720011283665,0.8907202112616929,A,471,Incorrect
1,relearn,33,518,B,58.29218394644882,41.51239355160759,2.914609197322441,0.6520751530732934,B,297,Incorrect
1,relearn,33,519,A,17.850887639045663,32.6127755890972,0.8925443819522831,0.5122802810194015,A,844,Incorrect
1,relearn,33,520,A,23.313727833794434,46.206435817894516,1.1656863916897218,0.7258089965703285,B,413,Correct
1,relearn,33,521,B,83.93928940725364,67.89736667578089,4.196964470362682,1.0665293417336283,B,691,Incorrect
1,relearn,33,522,A,18.495363297517397,39.82962454951159,0.9247681648758699,0.6256422793999264,B,1069,Incorrect
1,relearn,33,523,A,39.928470751352634,53.82939781834909,1.9964235375676316,0.8455502036664398,A,438,Incorrect
1,relearn,33,524,A,35.315339284747054,68.57457767334105,1.7657669642373526,1.0771669472079546,B,587,Correct
1,relearn,33,525,B,73.42643123305147,50.87528431820419,3.6713215616525736,0.7991470973168113,B,733,Correct
1,relearn,33,526,B,42.17332088126311,25.59094183773989,2.1086660440631557,0.4019815743794366,B,576,Incorrect
1,relearn,33,527,A,14.825644607331643,30.459556911410527,0.7412822303665821,0.4784576011224376,A,1680,Correct
1,relearn,33,528,A,60.07749543044788,70.76286371489564,3.003874771522394,1.1115404639684594,B,716,Correct
1,relearn,33,529,A,37.27668181826026,66.79606572520055,1.863834090913013,1.0492301468549552,B,369,Correct
1,relearn,33,530,A,37.76029454895672,61.43051441564312,1.888014727447836,0.9649482639721315,B,692,Correct
1,relearn,33,531,B,58.585392970850265,29.99521806353731,2.929269648542513,0.47116378355616334,B,636,Correct
1,relearn,33,532,B,62.10043481464268,34.705260532196405,3.1050217407321337,0.5451489576443401,B,1101,Incorrect
1,relearn,33,533,A,41.99556318879818,68.71319954571524,2.099778159439909,1.0793444144873425,A,594,Incorrect
1,relearn,33,534,B,81.7208275910997,53.680624396371186,4.0860413795549855,0.8432132762187639,B,369,Incorrect
1,relearn,33,535,A,41.95489471446717,68.4361725738097,2.0977447357233587,1.0749928849884194,A,472,Correct
1,relearn,33,536,B,49.21993748524521,37.95924098567857,2.4609968742622605,0.5962623630822618,A,692,Correct
1,relearn,33,537,B,46.09586794435476,26.41569267210749,2.304793397217738,0.41493673019089317,A,967,Incorrect
1,relearn,33,538,A,17.513760067163748,39.8548175624569,0.8756880033581873,0.6260380103218803,B,374,Correct
1,relearn,33,539,B,65.3877235494217,34.66514134399637,3.269386177471085,0.544518766909754,A,1808,Incorrect
1,relearn,33,540,B,64.27988513052873,48.080781225815265,3.213994256526436,0.7552511453893964,B,1092,Incorrect
1,relearn,33,541,B,49.52476098491577,41.22449931971843,2.4762380492457883,0.6475529210537243,B,9991,Correct
1,relearn,33,542,B,50.5791707046824,33.70228352995268,2.5289585352341195,0.5293942317344981,A,1222,Incorrect
1,relearn,33,543,B,39.0857705591195,24.239900490663786,1.9542885279559752,0.38075946652608483,B,756,Correct
1,relearn,33,544,A,30.186443343736535,60.56062931088245,1.5093221671868267,0.9512841406992151,A,1227,Correct
1,relearn,33,545,A,67.83081750510935,84.05804810296902,3.391540875255467,1.3203807319769247,B,1206,Correct
1,relearn,33,546,A,39.38471896266799,50.420460659245784,1.9692359481333994,0.7920027439884987,A,2462,Correct
1,relearn,33,547,A,39.71273268347989,68.31953791864863,1.9856366341739946,1.0731607921093793,B,1298,Correct
1,relearn,33,548,A,40.3284899842392,49.152906507938575,2.0164244992119595,0.7720920499396288,B,850,Correct
1,relearn,33,549,B,65.19077364370938,51.32997855368952,3.2595386821854686,0.8062894176659631,B,1515,Correct
1,relearn,33,550,A,63.79947921142458,77.84402719796591,3.189973960571229,1.2227711198548687,A,1867,Correct
1,relearn,33,551,B,62.349677396735004,35.72617245310444,3.11748386983675,0.5611854045977748,B,804,Incorrect
1,relearn,33,552,A,49.79552309476808,75.17085884282466,2.489776154738404,1.1807810895232664,B,894,Correct
1,relearn,33,553,A,26.15626916612976,49.385952471962185,1.307813458306488,0.7757527273822554,A,432,Correct
1,relearn,33,554,A,14.648667942766,35.504537748353926,0.7324333971382999,0.5577039747966509,B,1397,Correct
1,relearn,33,555,B,43.23000461209861,19.99078654760555,2.1615002306049305,0.31401454078719626,A,1456,Correct
1,relearn,33,556,A,37.76037917589154,65.00780417720445,1.8880189587945773,1.0211402001455467,B,1678,Incorrect
1,relearn,33,557,A,35.586096331020826,49.46151141669549,1.7793048165510412,0.7769396045106911,B,648,Incorrect
1,relearn,33,558,A,43.988154205744316,67.67274792944983,2.1994077102872156,1.0630010387169673,B,562,Incorrect
1,relearn,33,559,A,24.727577693154927,51.19464720360253,1.2363788846577464,0.8041636377897947,A,799,Incorrect
1,relearn,33,560,B,58.653394439836994,51.2328646511421,2.9326697219918496,0.8047639560519413,A,873,Correct
1,relearn,33,561,A,25.560257391557624,47.92510045326071,1.2780128695778812,0.7528057175325836,B,606,Incorrect
1,relearn,33,562,B,72.20303767046346,49.489187093418174,3.610151883523173,0.7773743330240668,A,915,Correct
1,relearn,33,563,B,71.6712257714179,60.56547918696792,3.5835612885708947,0.9513603223746198,B,980,Correct
1,relearn,33,564,B,83.47770094822582,61.37952043937081,4.17388504741129,0.9641472524659593,B,1075,Incorrect
1,relearn,33,565,B,46.04896077432481,38.29998259212875,2.302448038716241,0.6016147197202432,A,1110,Incorrect
1,relearn,33,566,B,41.42839982278261,29.46172485880286,2.0714199911391304,0.46278369189249424,B,679,Incorrect
1,relearn,33,567,A,60.702523265616115,78.32119825132582,3.0351261632808058,1.2302665052335748,B,444,Incorrect
1,relearn,33,568,A,48.759031767692775,62.07475158643621,2.4379515883846388,0.9750679177867967,A,382,Correct
1,relearn,33,569,B,53.61175671543797,27.599435228890236,2.6805878357718984,0.4335309147915445,B,3946,Incorrect
1,relearn,33,570,A,15.595873613559611,34.902277932939505,0.7797936806779805,0.5482436997383595,B,1680,Correct
1,relearn,33,571,B,70.69872257372077,42.51727162242497,3.534936128686039,0.6678597408984603,A,972,Incorrect
1,relearn,33,572,A,26.735838327815152,42.809837118361486,1.3367919163907576,0.6724553489621005,B,1669,Incorrect
1,relearn,33,573,B,38.251337631515455,27.802985894596958,1.9125668815757728,0.4367282811716322,B,389,Correct
1,relearn,33,574,A,53.56161147065078,83.74202987905566,2.678080573532539,1.3154167293236914,B,1163,Correct
1,relearn,33,575,B,83.0334919397149,62.25435580550878,4.151674596985745,0.9778891342627573,B,724,Correct
1,relearn,33,576,A,41.567295630088694,53.523374575140075,2.0783647815044346,0.8407432018029738,B,800,Correct
1,relearn,33,577,B,46.94476578870879,19.862260187565724,2.3472382894354396,0.3119956534447275,B,1130,Correct
1,relearn,33,578,B,75.7067333234162,56.683160425088516,3.78533666617081,0.8903770018685488,B,1867,Correct
1,relearn,33,579,A,37.4650290565203,58.16105657967344,1.8732514528260151,0.9135917403786119,B,477,Incorrect
1,relearn,33,580,B,64.75775946323122,55.59112039234188,3.237887973161561,0.8732232771470348,A,510,Correct
1,relearn,33,581,A,50.440526295634086,77.62121494188827,2.522026314781704,1.219271193120752,A,865,Incorrect
1,relearn,33,582,A,39.089333608592305,70.30493943635696,1.9544666804296154,1.1043474062216716,B,804,Incorrect
1,relearn,33,583,A,19.07764666010377,46.50682246202549,0.9538823330051884,0.7305274589425201,B,1239,Incorrect
1,relearn,33,584,A,40.39174825964189,65.5320935658677,2.0195874129820948,1.0293757186044448,A,950,Incorrect
1,relearn,33,585,B,73.43547350736982,59.82088905469135,3.671773675368491,0.939664327927142,A,318,Correct
1,relearn,33,586,A,53.54231648202869,72.01605855964611,2.6771158241014343,1.1312256025573828,A,665,Incorrect
1,relearn,33,587,A,30.764886413754006,51.335213308244505,1.5382443206877001,0.8063716449982294,B,698,Incorrect
1,relearn,33,588,B,35.328796531122016,13.12296816337642,1.7664398265561008,0.20613510187678052,B,344,Correct
1,relearn,33,589,A,60.73824475838467,76.52708078630856,3.0369122379192333,1.202084573994698,B,854,Incorrect
1,relearn,33,590,A,18.593571615529026,49.37610340519802,0.9296785807764514,0.7755980186033005,A,2614,Correct
1,relearn,33,591,B,74.34318690597571,43.46691441006654,3.7171593452987857,0.6827766949244068,A,1125,Correct
1,relearn,33,592,B,33.5467873001873,17.280988043029986,1.6773393650093649,0.2714491254137803,A,1246,Incorrect
1,relearn,33,593,A,25.0708101400213,42.4544437759958,1.2535405070010652,0.6668728433945466,B,400,Correct
1,relearn,33,594,B,52.63566850078768,34.53323984767983,2.6317834250393837,0.5424468630506263,B,1358,Incorrect
1,relearn,33,595,B,47.606292000650484,23.151895867533298,2.3803146000325244,0.3636691298705925,A,551,Incorrect
1,relearn,33,596,B,70.43437675773693,43.838832540142214,3.521718837886846,0.6886187712503197,B,327,Correct
1,relearn,33,597,A,27.552840065079984,39.221707248998314,1.377642003253999,0.6160931367735133,B,365,Correct
1,relearn,33,598,B,67.19559606667899,49.804538277923626,3.3597798033339497,0.7823278578467826,B,488,Correct
1,relearn,33,599,B,53.26116564521417,23.41448393186133,2.6630582822607085,0.36779385353965904,B,409,Correct
1,relearn,33,600,A,52.33314856920708,75.52692367586313,2.6166574284603543,1.1863741428416432,B,326,Incorrect
1,relearn,33,601,A,60.143024232643285,70.16378185293033,3.007151211632164,1.1021301080862136,B,5685,Incorrect
1,relearn,33,602,A,63.25005081808064,84.89898378689813,3.1625025409040317,1.3335901188107906,A,472,Correct
1,relearn,33,603,B,48.727790285959394,18.32986535176925,2.4363895142979697,0.28792485165204185,A,733,Incorrect
1,relearn,33,604,B,83.15127327953896,62.82827889196671,4.157563663976948,0.9869042970234665,B,538,Correct
1,relearn,33,605,A,54.44756841706288,68.63843042921556,2.7223784208531443,1.0781699439517887,B,454,Incorrect
1,relearn,33,606,B,64.79546607132261,40.26466142288487,3.2397733035661305,0.6324758226270772,A,1641,Incorrect
1,relearn,33,607,B,68.25651634116542,59.98327210916382,3.412825817058271,0.942215034982133,B,424,Correct
1,relearn,33,608,A,41.56751068941962,67.42594361084244,2.078375534470981,1.0591242455459113,A,1365,Correct
1,relearn,33,609,A,34.89669346261339,53.08072460856879,1.7448346731306696,0.8337900723875132,A,757,Correct
1,relearn,33,610,B,59.60562955648087,46.71892905298758,2.9802814778240436,0.7338592214822427,A,1819,Incorrect
1,relearn,33,611,B,54.35413623571273,30.416987364384674,2.7177068117856367,0.4777889202414222,B,1000,Correct
1,relearn,33,612,A,38.246716022134706,67.92593590028656,1.9123358011067353,1.0669781060627572,A,903,Correct
1,relearn,33,613,A,17.864355481086392,33.34883308882082,0.8932177740543196,0.5238422451881585,A,1138,Correct
1,relearn,33,614,B,74.92775007658466,60.37091973176156,3.7463875038292325,0.948304189598806,B,1925,Correct
1,relearn,33,615,A,58.97199233256529,68.91651394366106,2.948599616628264,1.0825380695821207,A,1131,Correct
1,relearn,33,616,B,65.57813869883756,55.15020992959191,3.2789069349418782,0.8662974717937041,B,1499,Correct
1,relearn,33,617,B,55.132684324975536,24.732921924954336,2.7566342162487767,0.3885038291062323,B,1501,Correct
1,relearn,33,618,B,34.28883487399901,11.668001633172711,1.7144417436999504,0.18328054106424546,A,984,Incorrect
1,relearn,33,619,A,47.874219894559324,72.09516264052874,2.3937109947279662,1.1324681665542322,B,772,Incorrect
1,relearn,33,620,A,12.526733467399954,31.219660469481074,0.6263366733699977,0.4903972798924471,B,1009,Incorrect
1,relearn,33,621,B,39.33481429969499,26.901548008347973,1.9667407149847493,0.4225685279660956,A,943,Incorrect
1,relearn,33,622,A,25.484532159895892,50.74291279725667,1.2742266079947946,0.7970678103280452,A,9537,Correct
1,relearn,33,623,A,12.869248818247147,40.068553117916665,0.6434624409123573,0.6293953605760969,A,1937,Correct
1,relearn,33,624,A,21.112725338766776,40.79820652554572,1.0556362669383388,0.640856729501468,A,1588,Correct
1,relearn,33,625,B,73.65945214209825,45.4901229256901,3.6829726071049125,0.7145571799712233,B,900,Correct
1,relearn,33,626,B,59.46208162343617,47.190308975653316,2.973104081171808,0.7412636399927245,B,3836,Correct
1,relearn,33,627,B,65.3818075285948,49.088713518042155,3.26909037642974,0.7710837088122761,B,776,Correct
1,relearn,33,628,B,79.78944028090245,58.408763017298696,3.9894720140451225,0.917482704002064,B,658,Correct
1,relearn,33,629,A,21.738350897477666,50.30142903737056,1.0869175448738833,0.7901329996443582,A,636,Correct
1,relearn,33,630,A,64.96524625913922,81.49283463207033,3.248262312956961,1.2800864530016,B,651,Incorrect
1,relearn,33,631,A,49.57436113136673,62.57162852888017,2.4787180565683364,0.9828728425473974,B,885,Incorrect
1,relearn,33,632,A,45.59263777203464,57.93976690409701,2.279631888601732,0.910115730283081,A,571,Correct
1,relearn,33,633,B,70.44357794143201,47.341692511777566,3.5221788970716004,0.7436415670175366,A,572,Incorrect
1,relearn,33,634,B,36.46307188069625,23.710008242766737,1.8231535940348125,0.3724359385601471,A,972,Incorrect
1,relearn,33,635,B,77.78950750724768,66.50069938122087,3.889475375362384,1.0445905431731337,B,623,Correct
1,relearn,33,636,A,52.13437209377029,80.3173892807378,2.6067186046885142,1.2616226005993874,B,637,Incorrect
1,relearn,33,637,A,30.29585246151518,45.1568474869871,1.5147926230757591,0.7093221016219668,A,747,Correct
1,relearn,33,638,B,59.98296235144364,32.17164801497121,2.999148117572182,0.5053510652885511,B,611,Correct
1,relearn,33,639,B,77.57538708042695,48.79443284025729,3.8787693540213475,0.7664611587351644,B,2484,Correct
1,relearn,33,640,A,41.37104145587327,63.08642760792258,2.0685520727936635,0.9909592875713695,B,2714,Incorrect
1,relearn,33,641,B,63.347468033628914,51.231486449486454,3.1673734016814454,0.8047423073109583,A,694,Incorrect
1,relearn,33,642,B,72.17852094061901,59.47063365700012,3.6089260470309505,0.9341625290058074,B,1102,Correct
1,relearn,33,643,B,38.78531040867203,21.753736701763255,1.9392655204336018,0.3417068970519305,B,960,Correct
1,relearn,33,644,B,41.10062912673659,31.96614244858999,2.0550314563368293,0.5021229914004758,A,1573,Incorrect
1,relearn,33,645,A,29.838655791972414,39.31535997838898,1.4919327895986207,0.617564230406725,A,960,Correct
1,relearn,33,646,A,49.64749251041421,70.79409198193981,2.482374625520711,1.112030996440111,B,2479,Incorrect
1,relearn,33,647,B,65.53217751639039,44.78656504788066,3.2766088758195195,0.7035057186697163,A,2016,Incorrect
1,relearn,33,648,B,67.26603839013478,52.08125306522347,3.363301919506739,0.8180904100972847,B,550,Correct
1,relearn,33,649,A,39.7548234762192,69.38994616191437,1.98774117381096,1.0899747254763072,A,815,Correct
1,relearn,33,650,B,67.96753595272794,50.924551068884135,3.3983767976363968,0.7999209776268232,B,730,Correct
1,relearn,33,651,A,28.85389592494824,38.581699600365724,1.442694796247412,0.6060399201375861,A,956,Correct
1,relearn,33,652,A,15.249666838861234,34.15807738311143,0.7624833419430617,0.5365538248376727,A,1166,Correct
1,relearn,33,653,B,57.7478408684753,37.34282008884899,2.887392043423765,0.5865796462772667,B,526,Correct
1,relearn,33,654,B,84.1900199720543,68.03813463123807,4.209500998602715,1.068740519607254,B,485,Correct
1,relearn,33,655,A,51.80027894746789,60.55069123142286,2.5900139473733943,0.95112803371211,B,501,Incorrect
1,relearn,33,656,A,61.588926502597886,85.62190016382387,3.079446325129894,1.3449456627053387,B,625,Incorrect
1,relearn,33,657,B,63.36401293981122,36.1350784921403,3.1682006469905613,0.5676084856389926,A,736,Incorrect
1,relearn,33,658,B,78.6213775394167,50.40103538540003,3.931068876970835,0.7916976125004596,B,937,Correct
1,relearn,33,659,B,49.31986177381262,32.88534550791661,2.465993088690631,0.5165617992921646,A,1108,Incorrect
1,relearn,33,660,A,52.12753564529217,79.19351208306837,2.6063767822646082,1.2439687788607106,B,399,Incorrect
1,relearn,33,661,B,83.84276479253289,55.036966589625564,4.192138239626645,0.8645186495691729,A,811,Incorrect
1,relearn,33,662,B,70.22312167443806,58.201357826067294,3.511156083721903,0.9142247908766191,B,523,Correct
1,relearn,33,663,A,67.95728461651028,85.79422237360983,3.3978642308255136,1.3476524936469083,B,412,Incorrect
1,relearn,33,664,B,67.59885690121159,47.213905361298465,3.3799428450605795,0.7416342911516951,B,718,Correct
1,relearn,33,665,B,55.98087180991196,44.9047311738873,2.799043590495598,0.7053618678365445,B,640,Correct
1,relearn,33,666,B,38.78691552657521,17.392894803689202,1.9393457763287603,0.27320695269965045,B,375,Correct
1,relearn,33,667,A,46.368072693449804,75.84291363729128,2.31840363467249,1.1913377015487971,B,316,Incorrect
1,relearn,33,668,B,56.2793279097863,38.979255353947295,2.813966395489315,0.6122847113118072,A,525,Incorrect
1,relearn,33,669,B,84.3540198088614,60.626671574210306,4.21770099044307,0.9523215301457011,B,280,Correct
1,relearn,33,670,B,81.95279296366937,51.57810678452131,4.097639648183469,0.81018700680161,B,383,Correct
1,relearn,33,671,B,64.76578677846342,55.06448315952311,3.238289338923171,0.8649508788383833,B,563,Correct
1,relearn,33,672,B,43.49538243034493,30.876031049888212,2.1747691215172464,0.48499956159169577,B,873,Correct
1,relearn,33,673,B,49.1374272508127,22.158251331218064,2.456871362540635,0.3480609979927546,B,490,Correct
1,relearn,33,674,B,36.12451497475374,11.71816928675862,1.806225748737687,0.18406857272401214,A,999,Incorrect
1,relearn,33,675,A,39.66846856846533,63.75371474162068,1.9834234284232664,1.0014410093566741,B,344,Incorrect
1,relearn,33,676,B,83.35195389841556,62.86529143298215,4.167597694920778,0.9874856886581905,B,624,Correct
1,relearn,33,677,B,80.99612227453109,54.487890546679594,4.049806113726555,0.8558937832552668,B,424,Correct
1,relearn,33,678,B,73.90886688526524,62.24130768771259,3.695443344263262,0.9776841749076989,B,467,Correct
1,relearn,33,679,B,59.87255615728799,48.67889362669303,2.9936278078643994,0.7646462730124892,B,412,Correct
1,relearn,33,680,A,20.178517737550166,35.283213728133866,1.0089258868775084,0.5542274252167194,A,653,Correct
1,relearn,33,681,A,28.638028481502587,55.96641348747335,1.4319014240751295,0.879118367300075,A,664,Correct
1,relearn,33,682,A,24.408531140708988,37.599115587210335,1.2204265570354493,0.5906055265512674,A,577,Correct
1,relearn,33,683,B,67.91026950458522,59.03025390463574,3.395513475229261,0.9272450600317191,B,510,Correct
1,relearn,33,684,B,43.012993988803174,16.00520784716499,2.1506496994401587,0.2514092169591562,B,440,Correct
1,relearn,33,685,A,18.05052480316155,48.56364227528838,0.9025262401580776,0.7628359090180434,A,556,Correct
1,relearn,33,686,A,50.13000929313172,62.658503247489236,2.506500464656586,0.9842374674362219,B,450,Incorrect
1,relearn,33,687,A,49.85691721503488,61.86522597333906,2.492845860751744,0.9717766971525723,B,376,Incorrect
1,relearn,33,688,A,47.613069077265095,65.79954372251554,2.3806534538632547,1.033576815841076,A,525,Correct
1,relearn,33,689,A,65.76842815724677,78.46615329851645,3.2884214078623386,1.2325434537903488,A,523,Correct
1,relearn,33,690,B,45.88813657920611,22.679451961489935,2.2944068289603057,0.356247998348297,A,689,Incorrect
1,relearn,33,691,A,22.980363777807554,35.755944636195665,1.1490181888903777,0.5616530649561784,B,332,Incorrect
1,relearn,33,692,B,36.67301322234951,17.521294834991803,1.8336506611174754,0.27522385567495516,B,1139,Correct
1,relearn,33,693,B,48.500131024892276,29.097802443456246,2.4250065512446137,0.45706721195984634,B,495,Correct
1,relearn,33,694,B,38.55560879893923,17.14383115000018,1.9277804399469616,0.2692946699761221,B,599,Correct
1,relearn,33,695,B,63.18459404029326,45.791006487116135,3.1592297020146636,0.7192834479020329,B,462,Correct
1,relearn,33,696,B,40.424391607723976,13.419426210702873,2.021219580386199,0.21079185399467232,B,594,Correct
1,relearn,33,697,B,71.19224910901708,41.32083156397877,3.5596124554508544,0.6490661044080848,B,451,Correct
1,relearn,33,698,B,74.8065722548426,56.10902082010275,3.7403286127421302,0.8813584380427577,B,349,Correct
1,relearn,33,699,B,51.515790094314745,41.63379009747297,2.575789504715737,0.6539820455566028,B,373,Correct
1,relearn,33,700,B,74.17743634908793,42.08037095236321,3.7088718174543964,0.660996921221388,B,392,Correct
1,relearn,33,701,B,36.31278612752861,19.733134861283308,1.8156393063764307,0.3099673575625214,B,381,Correct
1,relearn,33,702,A,50.43372914916672,64.3423799580148,2.521686457458336,1.0106877409529123,B,375,Incorrect
1,relearn,33,703,A,55.18217895287638,73.7820605213574,2.759108947643819,1.1589658965030696,B,1203,Incorrect
1,relearn,33,704,A,52.91729114473607,74.2023385233231,2.6458645572368034,1.1655676079202737,A,414,Correct
1,relearn,33,705,A,31.934000961426573,55.39210761081178,1.5967000480713287,0.8700971916849076,A,573,Correct
1,relearn,33,706,B,51.71912906345242,40.928170583061785,2.585956453172621,0.6428982001430839,A,701,Incorrect
1,relearn,33,707,A,41.602853715170575,53.28760617157621,2.0801426857585286,0.8370397603800497,B,383,Incorrect
1,relearn,33,708,A,52.36961597553763,73.26075643249891,2.618480798776881,1.1507772710238486,B,453,Incorrect
1,relearn,33,709,B,50.755155617901146,31.01476113223608,2.5377577808950575,0.48717872862937567,A,331,Incorrect
1,relearn,33,710,B,32.30576325089498,13.17789128622745,1.6152881625447488,0.20699783227308552,A,1113,Incorrect
1,relearn,33,711,B,55.932487040876815,33.382828860442366,2.7966243520438407,0.5243762495200553,B,434,Correct
1,relearn,33,712,B,61.7495448685945,30.52261675350231,3.087477243429725,0.479448142805698,B,1066,Correct
1,relearn,33,713,B,79.30023214049773,53.65066681875339,3.965011607024886,0.8427427036899467,B,641,Correct
1,relearn,33,714,A,54.254246185909054,76.72015724000977,2.7127123092954526,1.2051174118373424,B,774,Incorrect
1,relearn,33,715,B,61.76939969245012,30.41838432765354,3.088469984622506,0.4778108636891363,B,502,Correct
1,relearn,33,716,B,80.78099817587074,53.98564657669379,4.039049908793537,0.8480045534231809,A,2071,Incorrect
1,relearn,33,717,A,31.456942568271433,56.26489792056123,1.5728471284135717,0.883806949811074,A,942,Correct
1,relearn,33,718,A,53.15719818734481,62.13322431568522,2.6578599093672404,0.9759864052700169,B,771,Incorrect
1,relearn,33,719,A,39.149801943876994,52.645266637596336,1.9574900971938496,0.8269499145747423,B,582,Incorrect
1,relearn,33,720,B,51.30404246765035,27.219236724294348,2.5652021233825173,0.4275587706468231,A,554,Incorrect
1,relearn,33,721,A,42.89191332666108,66.96674739854419,2.1445956663330543,1.051911208310349,B,372,Incorrect
1,relearn,33,722,B,75.67461477910173,48.150124377529515,3.7837307389550863,0.7563403850694076,A,412,Incorrect
1,relearn,33,723,B,44.87347251293523,24.114538331338416,2.2436736256467613,0.3787902823322112,B,394,Correct
1,relearn,33,724,B,51.61990788123204,33.74029394797118,2.580995394061602,0.5299912979845322,B,522,Correct
1,relearn,33,725,B,49.83802950362582,30.7737580713115,2.491901475181291,0.48339306140090904,B,477,Correct
1,relearn,33,726,A,16.919266808420527,41.17258301739652,0.8459633404210264,0.6467374216838438,A,1033,Correct
1,relearn,33,727,B,48.92453328417591,30.65166255920753,2.4462266642087953,0.48147518958159846,A,703,Incorrect
1,relearn,33,728,A,22.424242726237594,39.171468346406364,1.1212121363118797,0.6153039859369768,A,630,Correct
1,relearn,33,729,A,31.569141998387156,46.08793123183341,1.578457099919358,0.7239475308853972,A,544,Correct
1,relearn,33,730,A,50.67633685577029,67.82570994411776,2.5338168427885144,1.0654037604247628,B,979,Incorrect
1,relearn,33,731,A,63.10726214608919,84.395453045844,3.1553631073044595,1.3256806764260292,A,435,Correct
1,relearn,33,732,A,50.41984582873343,67.99834139307696,2.5209922914366714,1.0681154488839064,A,426,Correct
1,relearn,33,733,B,38.60908969871105,23.45566005385583,1.9304544849355525,0.36844064655146525,A,939,Incorrect
1,relearn,33,734,B,87.22586817248498,68.879587096263,4.361293408624249,1.0819580240195905,B,690,Correct
1,relearn,33,735,A,47.10149382798094,60.614003912819854,2.355074691399047,0.952122546985889,B,533,Incorrect
1,relearn,33,736,B,63.85304596468854,47.716393356838154,3.192652298234427,0.7495273541282177,A,435,Incorrect
1,relearn,33,737,B,86.7232847122173,65.60488723756689,4.336164235610865,1.0305191589256344,B,583,Correct
1,relearn,33,738,A,24.25976168883956,44.29237030437834,1.212988084441978,0.6957429257915685,A,1259,Correct
1,relearn,33,739,A,35.22481508569654,53.11433620985347,1.7612407542848272,0.83431804218587,A,608,Correct
1,relearn,33,740,A,49.96896279483126,75.1846018806612,2.4984481397415634,1.180996964656793,A,828,Correct
1,relearn,33,741,A,34.12171241184756,65.77552852169772,1.7060856205923782,1.0331995859487575,A,699,Correct
1,relearn,33,742,B,48.80532052258682,37.84929176558523,2.4402660261293407,0.594535284771696,A,773,Incorrect
1,relearn,33,743,A,37.51685549166671,64.29034561532292,1.8758427745833357,1.0098703874092363,B,470,Incorrect
1,relearn,33,744,A,48.51185799258284,76.50612927194972,2.425592899629142,1.2017554683767413,A,537,Correct
1,relearn,33,745,B,57.31635826169857,31.456712440962377,2.8658179130849284,0.49412088355307027,A,535,Incorrect
1,relearn,33,746,A,51.64815090451619,61.31524222273116,2.5824075452258097,0.9631375726000545,B,934,Incorrect
1,relearn,33,747,A,56.701384343475084,70.65778917524669,2.835069217173754,1.109889956959257,A,679,Correct
1,relearn,33,748,B,62.77948719437221,39.96050410623612,3.1389743597186106,0.6276981306694809,B,1469,Correct
1,relearn,33,749,B,44.16371595254644,23.641684312551323,2.2081857976273223,0.3713627087740014,A,2032,Incorrect
1,relearn,33,750,B,87.30345787436778,60.83533529430668,4.365172893718389,0.9555992121963286,B,1099,Correct
1,relearn,33,751,B,71.37839949447236,43.42604670405752,3.5689199747236184,0.6821347464995718,B,1679,Correct
1,relearn,33,752,A,41.71401608379433,55.43475648998849,2.0857008041897163,0.8707671187124346,B,2058,Incorrect
1,relearn,33,753,B,43.26978477872039,25.713174072299612,2.1634892389360196,0.40390159383006,A,1673,Incorrect
1,relearn,33,754,B,70.74819418849528,42.97173067330935,3.537409709424764,0.6749983669765391,B,1285,Correct
1,relearn,33,755,B,36.29954591928022,13.54080508832519,1.814977295964011,0.21269846894586852,A,852,Incorrect
1,relearn,33,756,A,28.71861986258729,47.49486642061231,1.4359309931293642,0.7460476171511208,B,589,Incorrect
1,relearn,33,757,B,70.00996537958835,57.493902129342686,3.5004982689794177,0.9031121027787679,A,398,Incorrect
1,relearn,33,758,B,36.091280985956004,13.474524618771586,1.8045640492978003,0.2116573377647381,A,744,Incorrect
1,relearn,33,759,A,33.34110999398645,62.226614499448466,1.6670554996993223,0.9774533748461569,B,477,Incorrect
1,relearn,33,760,B,72.35243207794497,41.1926205348921,3.6176216038972484,0.6470521702726454,A,657,Incorrect
1,relearn,33,761,A,42.286837726309706,62.94799528707052,2.114341886315485,0.9887847977603283,B,631,Incorrect
1,relearn,33,762,B,67.53352007935106,53.36817117303833,3.3766760039675536,0.8383052724636989,B,602,Correct
1,relearn,33,763,B,49.42418969910074,39.316641665388424,2.471209484955037,0.6175843630990332,B,705,Correct
1,relearn,33,764,A,67.1849053468139,87.12183514828129,3.3592452673406954,1.3685065863455077,B,608,Incorrect
1,relearn,33,765,B,75.69944495653057,55.77560805851615,3.7849722478265284,0.8761212026306902,B,358,Correct
1,relearn,33,766,B,70.3590334348783,44.50729146552201,3.517951671743915,0.6991188994963182,B,515,Correct
1,relearn,33,767,B,53.8257015293383,31.846903808531117,2.691285076466915,0.5002499952223108,B,380,Correct
1,relearn,33,768,B,75.13788266346177,64.49171340025214,3.7568941331730885,1.0130334651782527,B,378,Correct
1,relearn,33,769,B,70.56855707468596,42.69050293988036,3.5284278537342977,0.670580852069908,B,488,Correct
1,relearn,33,770,B,55.55679095011679,47.3159337680047,2.77783954750584,0.7432369496165238,B,724,Correct
1,relearn,33,771,A,64.45154177958881,75.04204627717574,3.2225770889794405,1.178757706473603,B,521,Incorrect
1,relearn,33,772,A,36.67418271058893,52.995027781009156,1.8337091355294464,0.8324439497680267,B,530,Incorrect
1,relearn,33,773,A,47.8471134386113,56.8424014832335,2.392355671930565,0.8928783545606396,A,462,Correct
1,relearn,33,774,B,87.97677219954326,62.975438973460385,4.398838609977163,0.9892158821780774,A,776,Incorrect
1,relearn,33,775,B,36.20647882224909,22.98605373206248,1.8103239411124545,0.3610640876983387,B,1082,Correct
1,relearn,33,776,A,31.818662396888882,52.51340209971547,1.5909331198444443,0.8248785912573647,A,2508,Correct
1,relearn,33,777,B,87.05666591803615,62.6501998126475,4.3528332959018075,0.9841070373867301,B,556,Correct
1,relearn,33,778,A,51.706929925003706,75.08041229877843,2.5853464962501853,1.1793603585316752,B,767,Incorrect
1,relearn,33,779,A,37.96413477631036,46.65157707046273,1.898206738815518,0.7328012590147187,A,1342,Correct
1,relearn,33,780,B,57.12245677338236,42.14702580481402,2.856122838669118,0.6620439331953158,A,1225,Incorrect
1,relearn,33,781,A,36.74203138376635,67.85708906929403,1.8371015691883175,1.065896662570412,A,975,Correct
1,relearn,33,782,B,51.81526064700162,20.679882331058433,2.590763032350081,0.3248388320417727,B,1511,Correct
1,relearn,33,783,A,38.615488335268125,58.1608855544805,1.9307744167634064,0.9135890539211633,B,898,Incorrect
1,relearn,33,784,A,52.424121198161444,64.90946060415699,2.621206059908072,1.0195954229124784,A,456,Correct
1,relearn,33,785,B,57.160843626453705,48.27082426701952,2.8580421813226855,0.7582363344999622,B,884,Correct
1,relearn,33,786,B,34.85827262870703,15.216812656493477,1.7429136314353513,0.23902513426346045,B,475,Correct
1,relearn,33,787,A,38.293636295465284,63.34445291999276,1.9146818147732643,0.9950123396955688,B,989,Incorrect
1,relearn,33,788,B,65.38256618058782,50.766013175214674,3.2691283090293903,0.7974306702164853,A,503,Incorrect
1,relearn,33,789,B,55.197284117739855,25.447943160673578,2.7598642058869927,0.3997353564127137,B,346,Correct
1,relearn,33,790,B,49.67351772842339,20.195589575355,2.4836758864211697,0.31723157922424944,B,503,Correct
1,relearn,33,791,B,74.88295597124825,43.43079753887825,3.7441477985624125,0.6822093724384278,B,903,Correct
1,relearn,33,792,A,36.79118817886075,69.83998691009593,1.8395594089430376,1.0970439490178234,B,383,Incorrect
1,relearn,33,793,B,64.72675573115147,33.18581631218396,3.2363377865575735,0.5212815836486873,A,498,Incorrect
1,relearn,33,794,A,33.90630481570048,45.195945837344276,1.695315240785024,0.7099362570732148,B,453,Incorrect
1,relearn,33,795,A,34.92542650093749,58.558649253153604,1.7462713250468744,0.919837111489244,A,484,Correct
1,relearn,33,796,A,28.312429211072995,50.54620264317039,1.4156214605536497,0.7939778944532253,A,484,Correct
1,relearn,33,797,B,85.99362837855865,59.22649564000871,4.299681418927933,0.9303276180025963,B,559,Correct
1,relearn,33,798,B,47.3233022146888,20.60572566607278,2.36616511073444,0.32367398187210444,A,634,Incorrect
1,relearn,33,799,A,60.93102833347564,72.17468827405621,3.0465514166737817,1.1337173522845418,B,398,Incorrect
1,relearn,33,800,A,44.176427256744006,59.10476121794116,2.2088213628372,0.9284154181723142,A,612,Correct
1,relearn,33,801,B,33.91220215718536,18.247565081511194,1.695610107859268,0.28663208202988605,A,421,Incorrect
1,relearn,33,802,B,32.932530953214794,18.674991792409067,1.6466265476607396,0.29334608510441007,B,1227,Correct
1,relearn,33,803,A,37.58147679254811,63.54327045744373,1.8790738396274054,0.9981353582708727,B,1056,Incorrect
1,relearn,33,804,B,53.930834958213126,23.8020603391072,2.6965417479106564,0.3738818895082007,B,700,Correct
1,relearn,33,805,A,38.85162379528849,68.24925246236126,1.9425811897644245,1.072056750743746,B,603,Incorrect
1,relearn,33,806,B,61.1863091674499,31.09207732016678,3.059315458372495,0.48839320846940887,A,439,Incorrect
1,relearn,33,807,B,43.01677543826463,29.69501659114566,2.1508387719132314,0.4664482298548511,B,43,Correct
1,relearn,33,808,A,15.618248683784405,45.07706852727101,0.7809124341892202,0.7080689366531914,A,2605,Correct
1,relearn,33,809,B,58.77343751665921,32.9266264042311,2.93867187583296,0.5172102380951407,B,1047,Correct
1,relearn,33,810,A,15.494087075850342,31.751708230524347,0.7747043537925171,0.4987546665797093,B,782,Incorrect
1,relearn,33,811,B,80.28214241544059,55.76814702248315,4.01410712077203,0.8760040049507428,A,318,Incorrect
1,relearn,33,812,B,72.83034989850724,62.06786773254632,3.6415174949253615,0.9749597864627524,B,320,Correct
1,relearn,33,813,A,46.23064947868744,70.04250755548615,2.311532473934372,1.1002251358766144,B,688,Incorrect
1,relearn,33,814,B,57.26687758789079,25.75820589388746,2.86334387939454,0.4046089520294508,A,250,Incorrect
1,relearn,33,815,B,41.94175628814203,22.683999684212186,2.0970878144071015,0.356319433809771,B,312,Correct
1,relearn,33,816,A,40.19549072318469,58.02115545956908,2.0097745361592345,0.9113941787228677,B,668,Incorrect
1,relearn,33,817,B,42.587362611261085,24.643963530970044,2.129368130563054,0.3871064739211514,A,408,Incorrect
1,relearn,33,818,A,23.152506035899613,42.73687658400642,1.1576253017949807,0.6713092875684411,B,371,Incorrect
1,relearn,33,819,B,40.2194230742933,14.945035061815666,2.010971153714665,0.2347560617892099,A,436,Incorrect
1,relearn,33,820,B,59.63762505124475,37.07392540647484,2.9818812525622373,0.5823558584835867,A,315,Incorrect
1,relearn,33,821,B,39.73921754104439,27.207180383814176,1.9869608770522194,0.42736939009341474,B,461,Correct
1,relearn,33,822,B,58.914303939848374,33.788986314834126,2.9457151969924187,0.5307561558946448,B,358,Correct
1,relearn,33,823,B,58.21856969437004,34.886444442675675,2.910928484718502,0.5479949878548918,B,308,Correct
1,relearn,33,824,B,73.44087451432759,50.72169861790174,3.6720437257163794,0.7967345787779784,B,279,Correct
1,relearn,33,825,B,43.91447427162983,28.615468917709883,2.1957237135814918,0.44949073465452216,B,307,Correct
1,relearn,33,826,B,41.82331068550893,28.494504634577005,2.0911655342754467,0.44759063213833716,B,279,Correct
1,relearn,33,827,B,46.62286652829118,17.901844946694684,2.3311433264145593,0.2812015228511979,B,280,Correct
1,relearn,33,828,A,56.87109457622418,66.47235732296652,2.8435547288112093,1.0441453471631366,B,234,Incorrect
1,relearn,33,829,B,43.31274141129117,32.77145044727165,2.1656370705645585,0.5147727398631528,B,370,Correct
1,relearn,33,830,B,35.5005097929277,15.307664644335308,1.7750254896463848,0.24045223395130008,B,337,Correct
1,relearn,33,831,B,41.53039201662965,13.798743855123238,2.0765196008314826,0.2167501616201123,B,316,Correct
1,relearn,33,832,B,74.8329273886337,46.240039393576666,3.7416463694316855,0.7263368403028154,B,660,Correct
1,relearn,33,833,A,57.110071331329976,79.53626180489164,2.855503566566499,1.24935267890121,B,398,Incorrect
1,relearn,33,834,A,41.23815380676645,62.76191920944356,2.061907690338322,0.98586192156792,A,320,Correct
1,relearn,33,835,B,45.176926676849504,24.272548752317164,2.2588463338424756,0.38127230422089853,A,397,Incorrect
1,relearn,33,836,A,15.346024865550032,39.605742471466115,0.7673012432775016,0.6221255479416361,B,330,Incorrect
1,relearn,33,837,B,45.6521951010683,27.77567232570624,2.282609755053415,0.43629924063478015,A,554,Incorrect
1,relearn,33,838,B,81.38937385821438,51.96025941949935,4.0694686929107196,0.8161898463545951,B,564,Correct
1,relearn,33,839,A,12.724855187400436,32.24580989146015,0.6362427593700218,0.5065159973203214,A,827,Correct
1,relearn,33,840,B,65.3030293349927,33.11403820470906,3.265151466749635,0.5201540957730286,B,515,Correct
1,relearn,33,841,A,51.06280806328541,64.02247783328723,2.5531404031642704,1.0056627301283525,A,609,Correct
1,relearn,33,842,A,27.586299204355278,58.836995743800166,1.379314960217764,0.9242093679400826,B,597,Incorrect
1,relearn,33,843,B,73.48632724544488,63.10569339914349,3.6743163622722443,0.9912619139121954,A,427,Incorrect
1,relearn,33,844,B,76.47427940503817,45.14809141898791,3.8237139702519083,0.709184561627464,B,301,Correct
1,relearn,33,845,B,61.57465648473663,42.78536179834728,3.0787328242368313,0.672070891534346,B,292,Correct
1,relearn,33,846,B,46.37246682978489,18.225630121680354,2.3186233414892445,0.28628752848657923,B,317,Correct
1,relearn,33,847,A,36.62838606097968,49.61688413887331,1.8314193030489838,0.7793801935235016,B,372,Incorrect
1,relearn,33,848,A,46.23353298879698,58.71229225689496,2.311676649439849,0.9222505301483904,A,377,Correct
1,relearn,33,849,B,40.43504047756216,30.767284508165737,2.021752023878108,0.48329137490880264,A,449,Incorrect
1,relearn,33,850,A,53.12509363011129,61.44139500592013,2.6562546815055645,0.9651191758845363,B,356,Incorrect
1,relearn,33,851,A,41.48162456847102,50.24960026701335,2.0740812284235512,0.7893188752233643,A,373,Correct
1,relearn,33,852,A,16.389523571594996,35.62188003051503,0.8194761785797497,0.5595471830546148,A,976,Correct
1,relearn,33,853,A,46.4143460991097,53.62658798867486,2.320717304955485,0.8423644743115379,B,625,Incorrect
1,relearn,33,854,B,68.90762671728572,50.33899727167514,3.445381335864286,0.7907231200888564,A,376,Incorrect
1,relearn,33,855,B,57.63716843500463,39.19338566535379,2.8818584217502314,0.6156482623779348,B,307,Correct
1,relearn,33,856,B,84.86047096584326,64.32848260383611,4.243023548292163,1.0104694418239515,B,1073,Correct
1,relearn,33,857,A,54.25239742882887,82.79564146587273,2.7126198714414436,1.300550894892201,B,792,Incorrect
1,relearn,33,858,B,82.85253782275946,63.99046770252556,4.142626891137973,1.005159916170146,A,313,Incorrect
1,relearn,33,859,B,86.63806791092753,61.57993172856433,4.331903395546377,0.9672953056350936,B,278,Correct
1,relearn,33,860,B,62.13855674656671,35.043252014503736,3.106927837328335,0.5504581154333033,B,407,Correct
1,relearn,33,861,A,26.03126182407107,39.59289837596674,1.3015630912035536,0.6219237933613219,B,538,Incorrect
1,relearn,33,862,B,88.65797224690542,62.809718248297365,4.43289861234527,0.9866127471144789,A,475,Incorrect
1,relearn,33,863,B,48.96409508648167,31.97476602271525,2.4482047543240837,0.5022584501860737,B,729,Correct
1,relearn,33,864,A,44.419967250030076,53.936216316921715,2.2209983625015037,0.8472281047183561,B,381,Incorrect
1,relearn,33,865,B,56.385703284202236,39.7569991389733,2.819285164210112,0.6245014821188712,A,377,Incorrect
1,relearn,33,866,A,23.136516199278578,51.89069963386811,1.1568258099639288,0.815097203796973,B,604,Incorrect
1,relearn,33,867,A,51.45485065039447,72.96825155973329,2.5727425325197237,1.1461826152267505,A,825,Correct
1,relearn,33,868,B,65.87148434790251,54.41377126459464,3.293574217395126,0.8547295202948294,A,461,Incorrect
1,relearn,33,869,A,23.110761342924732,47.85354719075614,1.1555380671462365,0.7516817615134599,A,715,Correct
1,relearn,33,870,B,65.48264516726583,32.823887813557135,3.2741322583632915,0.5155964240866331,B,756,Correct
1,relearn,33,871,A,54.92564464849589,83.9696073717022,2.746282232424795,1.3189915082187949,B,381,Incorrect
1,relearn,33,872,A,56.27633471884768,70.25774416969692,2.813816735942384,1.1036060647065549,A,329,Correct
1,relearn,33,873,B,84.24069435119397,58.16484328542262,4.212034717559698,0.9136512218134265,A,530,Incorrect
1,relearn,33,874,A,47.86742621871741,61.864565174669984,2.3933713109358705,0.9717663173513509,B,281,Incorrect
1,relearn,33,875,A,33.68283569792299,59.60175980614252,1.6841417848961495,0.9362222537400039,A,612,Correct
1,relearn,33,876,B,34.76261487551652,14.413170412410398,1.738130743775826,0.2264015514128314,A,407,Incorrect
1,relearn,33,877,B,73.81621539001904,55.886674826165894,3.6908107695009518,0.8778658353372221,B,321,Correct
1,relearn,33,878,B,80.83942858188914,60.160653739048655,4.041971429094457,0.9450013391087728,B,353,Correct
1,relearn,33,879,A,41.572906890573954,70.14577433894355,2.078645344528698,1.1018472467179625,B,402,Incorrect
1,relearn,33,880,A,36.43276436693917,56.03206911024587,1.8216382183469586,0.88014968341092,A,340,Correct
1,relearn,33,881,B,44.10515095102969,35.768316649782314,2.2052575475514846,0.5618474040911481,A,477,Incorrect
1,relearn,33,882,B,49.79604425199733,34.459770962146756,2.4898022125998667,0.5412928164953356,B,278,Correct
1,relearn,33,883,A,35.90084301590812,54.70414618048037,1.7950421507954062,0.8592907188074963,B,377,Incorrect
1,relearn,33,884,A,12.41221223383333,32.98176400634211,0.6206106116916665,0.5180763375237831,A,350,Correct
1,relearn,33,885,B,54.25609243636072,33.56399862161714,2.712804621818036,0.5272220574738516,A,477,Incorrect
1,relearn,33,886,A,14.063144599096098,36.570223499802815,0.7031572299548049,0.5744437274355867,B,307,Incorrect
1,relearn,33,887,B,76.00402326070335,46.138844721714655,3.800201163035167,0.724747278114295,A,342,Incorrect
1,relearn,33,888,A,41.95734096529836,64.69633516875405,2.0978670482649178,1.0162476564017036,B,303,Incorrect
1,relearn,33,889,A,65.63906387474641,85.76811751896679,3.2819531937373205,1.3472424395490603,B,258,Incorrect
1,relearn,33,890,A,27.498299720490927,46.8975111655638,1.3749149860245464,0.7366643827469026,B,390,Incorrect
1,relearn,33,891,B,54.89633357101651,31.518969222658463,2.7448166785508255,0.495098810793133,A,286,Incorrect
1,relearn,33,892,A,48.76149004937377,76.80718885324893,2.4380745024686887,1.2064845012212535,B,44,Incorrect
1,relearn,33,893,A,31.044611307364576,43.45917258021463,1.5522305653682287,0.6826550865454662,B,514,Incorrect
1,relearn,33,894,B,79.76819670411513,51.90936932988332,3.988409835205756,0.8153904666962037,B,540,Correct
1,relearn,33,895,A,31.86705408720657,41.66737334518299,1.5933527043603284,0.6545095699780502,A,845,Correct
1,relearn,33,896,B,36.209082676795404,18.344026104709574,1.8104541338397702,0.28814728823907493,A,331,Incorrect
1,relearn,33,897,A,66.10768611435718,84.85567412887238,3.305384305717859,1.332909812293375,B,253,Incorrect
1,relearn,33,898,A,28.379122708791023,58.68477297901063,1.418956135439551,0.9218182583422229,A,310,Correct
