experiment,condition,subject,trial,cat,x,y,xt,yt,resp,rt,fb
1,relearn,35,0,A,54.91278071590611,77.87129194374913,2.7456390357953055,1.2231993934801415,B,932,Incorrect
1,relearn,35,1,A,36.05420628583035,62.06867006829008,1.8027103142915173,0.974972389523144,A,1110,Correct
1,relearn,35,2,B,83.73970277672969,60.38477456376006,4.1869851388364845,0.9485218207909221,A,742,Incorrect
1,relearn,35,3,B,46.39754924109998,16.12816569482828,2.3198774620549987,0.25334063431375725,B,1885,Correct
1,relearn,35,4,B,78.16104764302577,51.99055771401687,3.9080523821512885,0.8166657708519578,A,906,Incorrect
1,relearn,35,5,B,70.61279207246054,49.19755968134777,3.530639603623027,0.7727934603473376,B,1550,Correct
1,relearn,35,6,A,26.178234600577834,48.74437653466572,1.3089117300288917,0.7656748761256026,A,1159,Correct
1,relearn,35,7,B,51.31660190664091,25.45076300536875,2.565830095332046,0.39977965042960667,B,2475,Correct
1,relearn,35,8,A,19.316741395655097,48.25409242313383,0.9658370697827549,0.7579735113108007,A,676,Correct
1,relearn,35,9,A,64.40485679765928,77.18790738800374,3.2202428398829634,1.2124648139806091,B,936,Incorrect
1,relearn,35,10,A,49.03291268555563,67.40257457178059,2.4516456342777815,1.0587571655387205,A,738,Correct
1,relearn,35,11,B,49.872104666276314,43.06150308109323,2.4936052333138155,0.6764085086604836,B,782,Correct
1,relearn,35,12,B,82.65221551057752,62.06837438350331,4.132610775528876,0.9749677449173746,A,1172,Incorrect
1,relearn,35,13,A,39.983525738965575,71.9299232168692,1.9991762869482788,1.129872591756971,A,1841,Correct
1,relearn,35,14,B,83.78559052451703,67.65029101936062,4.189279526225851,1.0626482863981745,A,2067,Incorrect
1,relearn,35,15,B,31.626211041705062,13.766584324182396,1.581310552085253,0.21624500088937915,A,1379,Incorrect
1,relearn,35,16,B,44.93059202747158,27.36818023736437,2.246529601373579,0.42989836987912633,B,798,Correct
1,relearn,35,17,A,23.34692084222171,51.726369273944314,1.1673460421110855,0.8125159085394813,A,825,Correct
1,relearn,35,18,A,47.9967978939205,61.37515008676698,2.399839894696025,0.9640786031277904,B,831,Incorrect
1,relearn,35,19,B,83.7152070165406,68.83138202593007,4.18576035082703,1.0812008205454722,B,1047,Correct
1,relearn,35,20,A,25.897431760959215,38.77889784038319,1.2948715880479609,0.6091375028482845,A,789,Correct
1,relearn,35,21,B,51.983949533042555,25.4655138520799,2.5991974766521277,0.4000113561879167,B,824,Correct
1,relearn,35,22,B,61.134732843625365,42.54069938787137,3.056736642181268,0.6682277433775426,B,1129,Correct
1,relearn,35,23,A,27.090517282344024,42.11079891310464,1.354525864117201,0.6614748825110329,A,639,Correct
1,relearn,35,24,B,70.63822268744649,61.69112905847038,3.5319111343723244,0.9690419892087518,B,971,Correct
1,relearn,35,25,A,55.547739745941435,84.28045910107087,2.7773869872970716,1.3238743557654964,A,1183,Correct
1,relearn,35,26,B,76.07036062487951,48.49014180024434,3.803518031243976,0.7616813662558749,B,801,Correct
1,relearn,35,27,A,39.06381629849423,59.2432350134186,1.9531908149247115,0.9305905594652474,A,515,Correct
1,relearn,35,28,A,36.33041397495321,59.355963941846454,1.8165206987476605,0.9323613013322275,A,739,Correct
1,relearn,35,29,B,35.93641486770228,16.533413746619836,1.7968207433851142,0.25970625582570683,B,928,Correct
1,relearn,35,30,A,22.853777051967054,48.25819363424492,1.1426888525983527,0.7580379329842878,A,1725,Correct
1,relearn,35,31,B,72.80742762587087,46.81495626440376,3.640371381293544,0.7353676133918916,B,771,Correct
1,relearn,35,32,B,72.95509182571337,48.24201186480623,3.647754591285668,0.7577837503443343,B,691,Correct
1,relearn,35,33,A,37.9367758936353,47.87797938933821,1.8968387946817649,0.7520655415913423,A,1166,Correct
1,relearn,35,34,B,72.09584393641626,53.37084725023098,3.6047921968208128,0.8383473081859434,B,791,Correct
1,relearn,35,35,A,25.59838705244556,53.185672903610836,1.279919352622278,0.8354385963510675,A,609,Correct
1,relearn,35,36,B,63.467523811636916,38.39509959122914,3.173376190581846,0.6031088140482697,B,597,Correct
1,relearn,35,37,B,43.717056599697344,35.72886725344254,2.185852829984867,0.5612277344225001,A,1612,Incorrect
1,relearn,35,38,A,25.544054305900808,42.396680261957314,1.2772027152950403,0.6659654962378024,A,691,Correct
1,relearn,35,39,A,63.534791070453934,82.05513869121513,3.1767395535226965,1.2889191045080652,B,864,Incorrect
1,relearn,35,40,B,77.91964551375649,47.8016543388859,3.8959822756878246,0.7508666305024131,B,995,Correct
1,relearn,35,41,A,59.586248218648976,71.27584929328314,2.9793124109324487,1.119598422590758,B,2079,Incorrect
1,relearn,35,42,A,51.90642084156154,72.65645719497046,2.5953210420780772,1.1412849607979023,B,1108,Incorrect
1,relearn,35,43,B,60.58011821450906,40.37230609405447,3.029005910725453,0.6341667011677998,B,534,Correct
1,relearn,35,44,A,45.81608631193339,63.781645887992525,2.2908043155966693,1.001879750777915,A,553,Correct
1,relearn,35,45,A,50.06040908433672,71.31562970134542,2.503020454216836,1.1202232917793842,B,1618,Incorrect
1,relearn,35,46,A,30.659436943357235,46.80060080101716,1.5329718471678617,0.7351421183003205,A,485,Correct
1,relearn,35,47,B,80.05860415686436,51.708742917959384,4.002930207843218,0.8122390343871222,B,961,Correct
1,relearn,35,48,A,38.49287746641636,53.325079202134226,1.924643873320818,0.8376283853675937,A,1026,Correct
1,relearn,35,49,B,67.18396553846863,50.77400688745948,3.359198276923431,0.7975562351548013,B,876,Correct
1,relearn,35,50,A,45.03016159249647,62.7460713043984,2.2515080796248235,0.9856129832575967,A,493,Correct
1,relearn,35,51,B,85.97709921339026,64.5744397317784,4.298854960669513,1.0143329273551593,B,741,Correct
1,relearn,35,52,A,49.29259505054276,72.87750018476385,2.464629752527138,1.1447570959622144,A,968,Correct
1,relearn,35,53,A,39.02191530608019,52.03702272919694,1.9510957653040095,0.817395641603651,A,1562,Correct
1,relearn,35,54,B,53.307388563992134,21.788371249397247,2.665369428199607,0.34225093525396727,B,1495,Correct
1,relearn,35,55,B,39.00048773703533,14.612538771197311,1.9500243868517664,0.22953322226944747,A,1256,Incorrect
1,relearn,35,56,A,14.37682998899194,35.805639732421994,0.7188414994495971,0.5624336737022987,A,883,Correct
1,relearn,35,57,A,61.659042289030324,70.47525981230783,3.082952114451516,1.1070227924308913,B,613,Incorrect
1,relearn,35,58,A,31.683615203167705,54.279332617773846,1.5841807601583853,0.8526177629687758,A,1264,Correct
1,relearn,35,59,A,42.569406329912034,58.61536373094232,2.128470316495602,0.92072798042311,A,692,Correct
1,relearn,35,60,B,84.23688501191566,67.987852201679,4.211844250595783,1.067950685050717,B,943,Correct
1,relearn,35,61,A,22.015451187708152,44.883321402880675,1.1007725593854076,0.7050255639399974,A,1163,Correct
1,relearn,35,62,B,57.219545247187064,44.46699657413952,2.8609772623593535,0.6984859488225961,A,1427,Incorrect
1,relearn,35,63,A,57.34815021063133,73.74129498949871,2.8674075105315664,1.1583255530260348,B,1145,Incorrect
1,relearn,35,64,A,44.562729333049695,74.60265425292707,2.2281364666524848,1.171855752696475,A,535,Correct
1,relearn,35,65,A,58.81283232597703,82.96633903505229,2.9406416162988513,1.3032322060388017,B,748,Incorrect
1,relearn,35,66,B,63.73961884964351,50.409121997722906,3.1869809424821756,0.7918246367097895,B,690,Correct
1,relearn,35,67,B,62.26506382824249,39.009490643425885,3.1132531914121246,0.6127596461283327,A,1546,Incorrect
1,relearn,35,68,A,40.24290814613108,72.58513304395505,2.0121454073065537,1.1401646036536346,A,908,Correct
1,relearn,35,69,B,83.88346926911663,57.66382277403615,4.194173463455831,0.905781210024079,B,858,Correct
1,relearn,35,70,B,71.14626119097268,60.83416481311424,3.5573130595486337,0.9555808263207519,B,916,Correct
1,relearn,35,71,A,25.061685750604855,57.089751929401544,1.2530842875302428,0.896763726283358,A,477,Correct
1,relearn,35,72,A,18.445508802356876,43.239102400274604,0.9222754401178438,0.6791982322425975,A,663,Correct
1,relearn,35,73,B,52.97316367603625,46.19756926254721,2.6486581838018126,0.7256697210446197,B,659,Correct
1,relearn,35,74,B,69.32610755631117,37.286650317998344,3.4663053778155586,0.5856973335799757,B,747,Correct
1,relearn,35,75,A,44.86788657860128,66.23096715086596,2.243394328930064,1.0403535992065371,A,647,Correct
1,relearn,35,76,A,43.21514573206095,61.69228037199146,2.1607572866030473,0.9690600739992508,A,641,Correct
1,relearn,35,77,B,80.37039114970985,54.91229694662228,4.018519557485493,0.8625603433962488,B,796,Correct
1,relearn,35,78,A,54.14275690856507,64.5513411721897,2.7071378454282535,1.0139700960295974,A,688,Correct
1,relearn,35,79,B,55.67084964519445,43.00291142629641,2.7835424822597226,0.6754881530991268,A,945,Incorrect
1,relearn,35,80,B,64.27486956999174,55.82937587789793,3.2137434784995866,0.8769657855625367,B,416,Correct
1,relearn,35,81,A,47.04643153890321,61.85460819061812,2.3523215769451604,0.9716099134116046,A,560,Correct
1,relearn,35,82,A,42.98048717715608,53.02783708511696,2.1490243588578037,0.8329593171117992,A,528,Correct
1,relearn,35,83,B,89.00299961790506,66.56258304583403,4.450149980895253,1.0455626095037636,B,865,Correct
1,relearn,35,84,B,44.70640220268668,25.050557648548896,2.2353201101343343,0.39349323938504405,A,890,Incorrect
1,relearn,35,85,A,59.38398690774045,76.27325682241786,2.9691993453870227,1.1980975164933776,A,808,Correct
1,relearn,35,86,B,51.24525599050049,31.38660371422238,2.5622627995250244,0.4930196182486758,B,678,Correct
1,relearn,35,87,A,61.33283882020629,86.77899912521801,3.0666419410103147,1.3631213306882999,A,1349,Correct
1,relearn,35,88,B,54.29846809868066,38.462812423526564,2.7149234049340327,0.6041724447307665,B,1227,Correct
1,relearn,35,89,A,37.38133918475149,51.40519618892381,1.8690669592375744,0.8074709335173254,A,1280,Correct
1,relearn,35,90,B,48.03336289380472,20.48500715544475,2.401668144690236,0.3217777399413979,B,1503,Correct
1,relearn,35,91,B,48.037147540076546,30.13104870976754,2.4018573770038274,0.47329740635780965,A,1099,Incorrect
1,relearn,35,92,A,34.93135230881042,56.144506429579955,1.7465676154405207,0.8819158446929665,A,382,Correct
1,relearn,35,93,B,36.027314771859146,20.72822628997813,1.8013657385929573,0.3255982171727106,A,569,Incorrect
1,relearn,35,94,A,45.616747023447054,54.47352757102778,2.280837351172353,0.8556681701613095,A,722,Correct
1,relearn,35,95,B,41.77250800995856,26.457398562131946,2.0886254004979277,0.4155918447794544,B,1052,Correct
1,relearn,35,96,A,42.16624979064617,54.18054909937587,2.108312489532308,0.8510660750903015,A,958,Correct
1,relearn,35,97,A,36.15240100883665,57.175606868634404,1.8076200504418325,0.8981123325151998,A,586,Correct
1,relearn,35,98,A,44.412175847484065,62.89772613957457,2.220608792374203,0.9879951718379508,A,658,Correct
1,relearn,35,99,A,50.78831205525572,81.52000994611808,2.539415602762786,1.280513321836457,B,857,Incorrect
1,relearn,35,100,A,54.951662083406404,81.6278863471459,2.74758310417032,1.2822078403812807,A,770,Correct
1,relearn,35,101,A,59.03284249272218,76.72034031094978,2.951642124636109,1.2051202875089433,A,632,Correct
1,relearn,35,102,A,28.098174465479484,57.15475184691302,1.4049087232739743,0.897784742600048,A,640,Correct
1,relearn,35,103,B,65.67362687212989,47.98721953310092,3.2836813436064944,0.7537814817569523,B,1059,Correct
1,relearn,35,104,A,66.01460148910982,89.36529964038752,3.3007300744554913,1.40374684418046,B,856,Incorrect
1,relearn,35,105,B,74.55095805473142,56.139185710026936,3.727547902736571,0.8818322670256686,A,749,Incorrect
1,relearn,35,106,B,52.191237860489466,24.47575011189393,2.6095618930244733,0.3844641837131277,A,638,Incorrect
1,relearn,35,107,A,10.946535469267282,31.934921016358004,0.5473267734633641,0.501632566289803,A,696,Correct
1,relearn,35,108,B,47.498778448996234,35.019468345192635,2.374938922449812,0.5500845224293875,B,2588,Correct
1,relearn,35,109,A,19.56766656840148,47.81926749186329,0.978383328420074,0.7511432972624146,A,715,Correct
1,relearn,35,110,A,54.66604122192649,62.86909743851812,2.7333020610963246,0.987545473253347,B,1612,Incorrect
1,relearn,35,111,A,36.64330216684759,65.11936303225085,1.8321651083423796,1.0228925625428302,A,586,Correct
1,relearn,35,112,B,81.3699730141936,59.64349433341695,4.06849865070968,0.9368778181614358,B,889,Correct
1,relearn,35,113,A,59.27703028540921,70.50278782113992,2.9638515142704605,1.1074552013824657,A,881,Correct
1,relearn,35,114,B,69.28981876998562,54.96408287463579,3.464490938499281,0.8633737948512819,B,649,Correct
1,relearn,35,115,A,44.33883006672096,73.64557238477012,2.216941503336048,1.156821945867046,A,667,Correct
1,relearn,35,116,B,39.58509977314302,14.695581392859125,1.9792549886571509,0.23083765272018542,A,690,Incorrect
1,relearn,35,117,A,25.24860622569755,49.95022028659821,1.2624303112848776,0.7846162254878439,A,644,Correct
1,relearn,35,118,A,50.95318647664402,63.2378142137928,2.547659323832201,0.9933372628156382,B,448,Incorrect
1,relearn,35,119,B,64.06194398419886,51.81561923110913,3.2030971992099433,0.8139178435882922,B,1538,Correct
1,relearn,35,120,A,44.95906516839629,73.11088419909208,2.2479532584198147,1.148423083486609,A,667,Correct
1,relearn,35,121,A,49.645872771299025,60.257167652274184,2.4822936385649514,0.9465173761125655,B,942,Incorrect
1,relearn,35,122,A,21.21726766962039,33.8688173626588,1.0608633834810195,0.5320101390615167,A,647,Correct
1,relearn,35,123,B,58.040124162529885,35.64492761989198,2.9020062081264943,0.5599092137419627,B,786,Correct
1,relearn,35,124,B,49.608509720345275,19.53054824948169,2.4804254860172636,0.3067851345057634,B,1852,Correct
1,relearn,35,125,B,41.34585036837785,14.600088077557082,2.067292518418893,0.2293376472310863,B,703,Correct
1,relearn,35,126,A,33.92683980222287,47.66073690730505,1.6963419901111436,0.7486531046633272,A,493,Correct
1,relearn,35,127,B,87.02399006783527,65.88439594358114,4.351199503391763,1.0349096714127783,B,1077,Correct
1,relearn,35,128,B,71.47226756834152,44.50339865893452,3.5736133784170763,0.6990577514334327,B,973,Correct
1,relearn,35,129,B,78.57531291844992,57.415818425786696,3.928765645922496,0.9018855668314848,B,597,Correct
1,relearn,35,130,A,55.1463286249182,66.41339527821171,2.7573164312459095,1.0432191735299248,A,1209,Correct
1,relearn,35,131,A,53.21227220111029,63.359798803067015,2.6606136100555142,0.9952533922632134,A,539,Correct
1,relearn,35,132,B,64.09934107267219,36.97210608388582,3.2049670536336095,0.5807564843043909,B,684,Correct
1,relearn,35,133,B,80.89257142250312,52.26781671273119,4.044628571125156,0.8210209450194706,B,741,Correct
1,relearn,35,134,A,33.43510210726556,54.03315492238436,1.6717551053632778,0.8487508127722094,A,711,Correct
1,relearn,35,135,A,24.74730430306009,36.56005259217087,1.2373652151530046,0.5742839631921024,A,612,Correct
1,relearn,35,136,B,50.05109208920509,30.427984914366924,2.5025546044602547,0.47796166935258094,B,1085,Correct
1,relearn,35,137,B,33.80997774480174,10.57806801013411,1.6904988872400872,0.16615990374905262,A,716,Incorrect
1,relearn,35,138,B,50.14953088711439,23.30821402240793,2.5074765443557196,0.36612456970547674,B,853,Correct
1,relearn,35,139,A,24.32185372784508,54.641250710589965,1.216092686392254,0.8583027590767376,A,725,Correct
1,relearn,35,140,B,61.228957143631916,38.92183800217672,3.061447857181596,0.6113828016592521,B,795,Correct
1,relearn,35,141,B,61.64948611632301,47.869153393711244,3.0824743058161506,0.7519269031762309,B,627,Correct
1,relearn,35,142,A,29.98958212043935,52.428480897648456,1.4994791060219677,0.823544652134626,A,562,Correct
1,relearn,35,143,A,59.63529764902498,68.58590962089852,2.981764882451249,1.0773449490239417,B,835,Incorrect
1,relearn,35,144,A,67.81770878595512,88.9982989235341,3.390885439297756,1.3979820104008156,B,1031,Incorrect
1,relearn,35,145,B,76.66272299161835,52.256956912951864,3.8331361495809175,0.8208503596834397,B,667,Correct
1,relearn,35,146,A,30.505917184328066,47.68695218123631,1.5252958592164032,0.7490648932232987,A,777,Correct
1,relearn,35,147,B,43.577453983145816,32.82574430271803,2.1788726991572904,0.5156255857501798,A,1028,Incorrect
1,relearn,35,148,B,46.214723554106705,16.510536468477603,2.3107361777053352,0.259346900380978,B,661,Correct
1,relearn,35,149,B,51.41461690171297,26.453476207750178,2.5707308450856483,0.4155302325809016,B,599,Correct
1,relearn,35,150,A,33.32164278455923,64.19120008620155,1.6660821392279614,1.0083130130796163,A,605,Correct
1,relearn,35,151,B,66.07566837048783,37.35632080223779,3.3037834185243917,0.586791714987269,B,664,Correct
1,relearn,35,152,B,63.846855328144144,38.906514795912294,3.1923427664072075,0.6111421052981033,B,569,Correct
1,relearn,35,153,A,45.16705739756409,52.570062616759394,2.2583528698782045,0.8257686125778336,B,557,Incorrect
1,relearn,35,154,B,57.088069990859076,36.95837087796532,2.8544034995429537,0.580540732194314,B,648,Correct
1,relearn,35,155,A,41.70644903278395,62.20179304043269,2.0853224516391977,0.9770634802796803,A,472,Correct
1,relearn,35,156,B,56.35195131205842,26.46504671645372,2.817597565602921,0.41571198170660845,B,562,Correct
1,relearn,35,157,A,50.684730738885726,57.453761953866334,2.5342365369442863,0.9024815823768162,A,661,Correct
1,relearn,35,158,A,10.999789938011567,32.118315873253266,0.5499894969005783,0.5045133259654446,A,629,Correct
1,relearn,35,159,B,75.45403485349317,45.31739394183859,3.7727017426746583,0.7118439594375736,B,716,Correct
1,relearn,35,160,B,77.92851236068125,61.723332885918936,3.8964256180340624,0.969547845747401,A,576,Incorrect
1,relearn,35,161,A,33.71579057912891,56.11418742018169,1.6857895289564453,0.881439594807018,A,665,Correct
1,relearn,35,162,B,62.41439712112253,38.88603680135352,3.1207198560561267,0.6108204377117727,B,598,Correct
1,relearn,35,163,B,88.97758419812976,64.07219002409931,4.448879209906488,1.0064436073955982,B,824,Correct
1,relearn,35,164,A,13.48272669823643,41.61114098660295,0.6741363349118216,0.6536262741550048,A,500,Correct
1,relearn,35,165,B,44.834573532001784,36.405847221304185,2.2417286766000895,0.5718617108908081,B,720,Correct
1,relearn,35,166,B,67.72303150023583,41.14443548377857,3.386151575011792,0.6462952812596898,B,731,Correct
1,relearn,35,167,A,17.514798056733916,46.581498316400726,0.8757399028366959,0.7317004645200492,A,561,Correct
1,relearn,35,168,B,36.47092461172895,23.204866942114744,1.8235462305864474,0.3645011975643816,B,977,Correct
1,relearn,35,169,B,51.58032236855183,21.916288261152157,2.5790161184275915,0.3442602509759592,A,694,Incorrect
1,relearn,35,170,A,30.96645707130383,46.325824086926865,1.5483228535651916,0.7276843431149127,A,492,Correct
1,relearn,35,171,A,61.64752691506539,86.57448649980881,3.0823763457532696,1.3599088538805406,B,789,Incorrect
1,relearn,35,172,B,45.82132855985445,26.533413191661047,2.291066427992723,0.41678587978792425,B,531,Correct
1,relearn,35,173,B,60.4019107382588,43.28928168143021,3.02009553691294,0.6799864465478017,B,566,Correct
1,relearn,35,174,B,40.97856037790203,27.03664983371038,2.0489280188951016,0.4246907024763212,B,753,Correct
1,relearn,35,175,B,68.01839594367388,36.757968182665074,3.400919797183694,0.5773928140177398,B,625,Correct
1,relearn,35,176,A,45.58740085123981,71.37140432571232,2.2793700425619905,1.121099397530223,A,675,Correct
1,relearn,35,177,A,42.232668795447225,61.02597524104804,2.1116334397723615,0.9585937774771457,A,780,Correct
1,relearn,35,178,B,63.26023273322474,50.69365888286628,3.1630116366612366,0.7962941316499984,B,711,Correct
1,relearn,35,179,A,53.604996313517915,78.18331900178316,2.6802498156758956,1.2281007030463464,A,782,Correct
1,relearn,35,180,B,72.8775747602407,56.075975355896745,3.643878738012035,0.8808393611048375,B,733,Correct
1,relearn,35,181,A,42.21254318838375,66.56755809862027,2.110627159419187,1.0456407574501858,A,681,Correct
1,relearn,35,182,B,36.57685011622138,13.790019021793764,1.8288425058110689,0.21661311225865396,B,730,Correct
1,relearn,35,183,B,79.2138160917699,63.431642186682595,3.960690804588495,0.9963819054940921,A,788,Incorrect
1,relearn,35,184,B,70.42128804464345,51.20742810242097,3.5210644022321724,0.8043643996789661,B,585,Correct
1,relearn,35,185,B,58.92619008850134,36.435161652016326,2.9463095044250673,0.5723221808916552,B,694,Correct
1,relearn,35,186,B,40.6599861011987,23.944733064591244,2.032999305059935,0.3761229874394424,B,675,Correct
1,relearn,35,187,A,31.479193083908626,61.60859095156502,1.5739596541954313,0.9677454836572764,A,675,Correct
1,relearn,35,188,B,37.94008502642737,18.286613656291497,1.8970042513213685,0.2872454556082008,B,1160,Correct
1,relearn,35,189,A,68.87030303969662,88.03715035648187,3.4435151519848315,1.3828843240145177,B,1126,Incorrect
1,relearn,35,190,B,38.446607724430216,20.273591004811763,1.9223303862215106,0.3184568228130037,B,808,Correct
1,relearn,35,191,A,46.09935263197326,62.450755806837705,2.304967631598663,0.9809741782694573,A,725,Correct
1,relearn,35,192,B,72.65086947925033,43.442250587481624,3.6325434739625164,0.6823892765051957,B,665,Correct
1,relearn,35,193,A,33.305726061496074,52.10739329067171,1.6652863030748037,0.8185010197984416,A,593,Correct
1,relearn,35,194,A,38.06616048580352,68.86619885149973,1.903308024290176,1.081747721962627,A,666,Correct
1,relearn,35,195,B,43.705415786090114,22.432803680779376,2.1852707893045054,0.35237365621479283,B,748,Correct
1,relearn,35,196,A,41.692916625121384,63.16253147058331,2.084645831256069,0.9921547242505931,A,775,Correct
1,relearn,35,197,A,56.04610263899606,84.26103831514276,2.8023051319498027,1.3235692947735027,B,1683,Incorrect
1,relearn,35,198,A,42.09564216913497,62.45513774726337,2.1047821084567486,0.981043009628706,A,786,Correct
1,relearn,35,199,A,50.42893142081125,58.67555534234655,2.5214465710405625,0.9216734680440862,A,702,Correct
1,relearn,35,200,B,39.43841665626161,12.326739526900223,1.9719208328130804,0.1936279717021233,B,516,Correct
1,relearn,35,201,B,52.00035493060768,43.91518217676276,2.600017746530384,0.6898180685378765,B,1215,Correct
1,relearn,35,202,A,40.51622657691873,69.42502187050178,2.0258113288459367,1.0905256934183956,A,630,Correct
1,relearn,35,203,B,64.31162236962442,56.06334555155583,3.2155811184812206,0.8806409726021689,B,537,Correct
1,relearn,35,204,A,21.785708928771278,36.86472625065327,1.0892854464385637,0.5790697658282555,A,512,Correct
1,relearn,35,205,B,37.435322127906886,13.840690994614189,1.8717661063953444,0.21740906574643176,B,588,Correct
1,relearn,35,206,B,43.42259413619205,22.730095700826375,2.171129706809603,0.3570435083455453,B,566,Correct
1,relearn,35,207,B,43.328104912876555,21.47048856417903,2.1664052456438276,0.3372576457110425,B,811,Correct
1,relearn,35,208,B,44.507440364530915,17.66555648076893,2.2253720182265457,0.2774899123077962,B,832,Correct
1,relearn,35,209,B,79.30098620343477,51.31115982602688,3.9650493101717386,0.805993813783089,B,775,Correct
1,relearn,35,210,B,71.74460753599317,49.10162356596908,3.5872303767996585,0.7712864993708997,B,632,Correct
1,relearn,35,211,B,43.63253969107673,19.262204892974193,2.1816269845538363,0.3025700069185454,B,796,Correct
1,relearn,35,212,A,27.802454971731137,58.87080709973892,1.390122748586557,0.9247404754772081,A,861,Correct
1,relearn,35,213,A,45.397285203860044,62.068768177583465,2.269864260193002,0.9749739306203209,A,1051,Correct
1,relearn,35,214,B,52.82598339841947,31.38797833999616,2.6412991699209734,0.49304121081983737,B,607,Correct
1,relearn,35,215,A,32.163975668400205,64.3399432049168,1.6081987834200104,1.0106494645247557,A,702,Correct
1,relearn,35,216,A,21.653068277981006,52.589084140787186,1.0826534138990502,0.8260674019785625,A,621,Correct
1,relearn,35,217,B,37.523017446111616,15.5490664160518,1.8761508723055809,0.24424416411424055,B,675,Correct
1,relearn,35,218,A,24.612994415079477,45.5665846168031,1.2306497207539737,0.7157582374066315,A,724,Correct
1,relearn,35,219,B,70.90366104597592,50.11980928995006,3.545183052298796,0.7872801233231428,B,2126,Correct
1,relearn,35,220,B,81.44631178879452,55.20363785895857,4.072315589439726,0.8671367157456781,B,739,Correct
1,relearn,35,221,B,62.22412641628897,32.680805941558454,3.1112063208144485,0.5133488992969685,B,615,Correct
1,relearn,35,222,A,30.31020457313469,49.66776814661575,1.5155102286567343,0.7801794776480458,A,544,Correct
1,relearn,35,223,A,15.488010454562811,43.43566594718516,0.7744005227281405,0.6822858452172862,A,591,Correct
1,relearn,35,224,B,35.97854621796806,14.588724624959934,1.7989273108984032,0.2291591505350932,B,573,Correct
1,relearn,35,225,B,58.09001916010233,28.83473850231194,2.904500958005116,0.4529350132352297,B,517,Correct
1,relearn,35,226,B,52.394083994577095,42.38795205151021,2.6197041997288544,0.6658283938287044,B,586,Correct
1,relearn,35,227,A,43.012685368842355,53.143780256378164,2.150634268442118,0.8347805481871396,B,861,Incorrect
1,relearn,35,228,A,46.09501440771791,52.70647104614686,2.3047507203858957,0.8279113111760905,B,503,Incorrect
1,relearn,35,229,B,41.156953704036816,28.926976159933766,2.057847685201841,0.4543838789730751,B,1262,Correct
1,relearn,35,230,A,55.614783489829556,80.99302744152847,2.780739174491478,1.2722355000115118,B,589,Incorrect
1,relearn,35,231,A,31.695846530275084,54.3709192322849,1.584792326513754,0.8540564021453511,A,456,Correct
1,relearn,35,232,B,35.109274670085696,17.078403801924775,1.7554637335042849,0.26826693959583436,B,464,Correct
1,relearn,35,233,B,56.54411832124498,34.94679606839455,2.827205916062249,0.5489429889748448,B,697,Correct
1,relearn,35,234,A,25.498857689714804,54.39532066118475,1.2749428844857402,0.8544396988941954,A,471,Correct
1,relearn,35,235,A,20.136210929631755,35.26236762797329,1.0068105464815877,0.553899975441117,A,432,Correct
1,relearn,35,236,A,45.69425758371584,62.525634825388835,2.284712879185792,0.9821503751423984,A,771,Correct
1,relearn,35,237,B,48.70628078871365,25.816022651765948,2.4353140394356827,0.40551713553847796,B,493,Correct
1,relearn,35,238,B,57.013018469778096,29.508402671729804,2.850650923488905,0.46351690526337896,B,681,Correct
1,relearn,35,239,B,75.54439173653853,43.356847507154406,3.7772195868269263,0.6810477680564462,B,667,Correct
1,relearn,35,240,A,30.61811300390462,53.78859547503727,1.530905650195231,0.8449092819564512,A,607,Correct
1,relearn,35,241,B,39.60134481782092,30.573338121137127,1.980067240891046,0.4802448721854059,B,628,Correct
1,relearn,35,242,A,43.764817260330666,61.28745498693439,2.1882408630165333,0.9627010917208412,A,636,Correct
1,relearn,35,243,A,39.29608361009089,62.16810297063905,1.9648041805045444,0.9765342779008672,A,531,Correct
1,relearn,35,244,B,62.45630045296222,37.71122656126962,3.1228150226481106,0.5923665616137246,B,697,Correct
1,relearn,35,245,A,48.196487596915496,71.34052801653607,2.409824379845775,1.1206143935998325,A,674,Correct
1,relearn,35,246,B,33.210580421037164,20.05816811956706,1.6605290210518582,0.3150729680445044,A,516,Incorrect
1,relearn,35,247,A,43.08347759338304,55.4050500990455,2.154173879669152,0.8703004918146791,B,554,Incorrect
1,relearn,35,248,B,48.02620015317647,27.73440234810731,2.4013100076588234,0.4356509733425871,B,611,Correct
1,relearn,35,249,B,56.21571881257123,34.15046436482098,2.8107859406285614,0.536434239826008,B,517,Correct
1,relearn,35,250,B,65.26232226514625,51.519609799549826,3.263116113257313,0.8092681383103922,B,1000,Correct
1,relearn,35,251,B,36.83107681602227,12.275147288181174,1.8415538408011134,0.19281756271141323,A,635,Incorrect
1,relearn,35,252,A,10.244909399368481,32.41852158678904,0.512245469968424,0.5092289462864928,A,546,Correct
1,relearn,35,253,B,54.10967168223119,35.036337731552706,2.7054835841115596,0.5503495061306843,B,429,Correct
1,relearn,35,254,A,33.96850269947859,61.21470953632569,1.6984251349739297,0.9615584088547692,A,463,Correct
1,relearn,35,255,B,67.05795392702086,38.13216410940277,3.3528976963510435,0.5989786331579007,B,479,Correct
1,relearn,35,256,A,23.546763759792768,38.59763670473767,1.1773381879896383,0.606290259587658,A,829,Correct
1,relearn,35,257,B,41.880716906073374,31.078357488337367,2.0940358453036687,0.48817769785499004,B,620,Correct
1,relearn,35,258,B,67.79248436496562,37.715223793542364,3.3896242182482808,0.5924293499914383,B,612,Correct
1,relearn,35,259,A,57.23962271063609,82.10421914825051,2.8619811355318046,1.2896900585243511,A,649,Correct
1,relearn,35,260,B,33.102895088514344,15.687120975175006,1.6551447544257172,0.24641272005792073,A,927,Incorrect
1,relearn,35,261,B,58.213404303419445,42.43702723543877,2.9106702151709722,0.666599265015222,B,522,Correct
1,relearn,35,262,B,46.91545062454799,26.61447695354606,2.345772531227399,0.41805922638197573,A,613,Incorrect
1,relearn,35,263,B,63.87164514407738,45.46144683823088,3.193582257203869,0.7141067370427453,B,441,Correct
1,relearn,35,264,B,44.254005694442434,17.266814615542202,2.2127002847221218,0.27122648973542124,B,663,Correct
1,relearn,35,265,A,58.51398756778191,72.0791642434074,2.9256993783890954,1.1322168643199042,A,576,Correct
1,relearn,35,266,B,64.39190389402334,52.04523405848357,3.219595194701167,0.8175246248624665,B,492,Correct
1,relearn,35,267,A,56.68475488381581,67.52258146608429,2.8342377441907907,1.0606422294263438,A,838,Correct
1,relearn,35,268,A,52.716676313210485,71.65265924328054,2.6358338156605243,1.1255173394443145,A,515,Correct
1,relearn,35,269,B,78.4318187857658,51.98366262456457,3.92159093928829,0.816557463040112,B,688,Correct
1,relearn,35,270,B,58.91980867620271,31.836000857916847,2.945990433810136,0.5000787320745496,B,733,Correct
1,relearn,35,271,A,49.854918706894466,63.38868268957679,2.492745935344723,0.9957070992915448,A,809,Correct
1,relearn,35,272,A,37.48833966214699,60.468002139989494,1.8744169831073494,0.9498291565012145,A,498,Correct
1,relearn,35,273,B,65.57896802085804,49.395055055221604,3.278948401042902,0.7758957104257378,B,733,Correct
1,relearn,35,274,A,28.8290242356621,55.15365731541004,1.4414512117831049,0.8663516232035057,A,678,Correct
1,relearn,35,275,B,71.53808774808212,43.074524773497245,3.5769043874041064,0.6766130529264524,B,520,Correct
1,relearn,35,276,A,31.856698843533486,64.41924956031852,1.5928349421766743,1.011895205842321,A,578,Correct
1,relearn,35,277,A,15.303962538482306,40.75609294571271,0.7651981269241154,0.6401952109363692,A,804,Correct
1,relearn,35,278,B,42.50425382220074,26.32961163469662,2.1252126911100366,0.4135845724171763,B,623,Correct
1,relearn,35,279,B,34.99990781437273,16.318163133343255,1.7499953907186367,0.25632510709895484,B,991,Correct
1,relearn,35,280,B,50.55522386950137,40.87084053656384,2.5277611934750683,0.6419976618785443,A,744,Incorrect
1,relearn,35,281,B,51.89805347530497,31.653021444066816,2.5949026737652487,0.4972044981630025,B,697,Correct
1,relearn,35,282,B,63.41798395089167,43.229172908738384,3.1708991975445833,0.679042260154277,B,451,Correct
1,relearn,35,283,A,20.59147304900773,37.65687959833792,1.0295736524503865,0.5915128815162689,A,623,Correct
1,relearn,35,284,A,19.931752133915797,37.08783725982447,0.9965876066957898,0.5825743853649917,A,514,Correct
1,relearn,35,285,B,50.2879279927821,41.78907512739711,2.514396399639105,0.6564212571027135,B,732,Correct
1,relearn,35,286,B,80.31615126230841,54.037798475778,4.01580756311542,0.8488237535383495,B,464,Correct
1,relearn,35,287,A,24.060735355797938,55.615831045851664,1.2030367677898968,0.8736114311846936,A,503,Correct
1,relearn,35,288,B,68.5728251681164,36.91537668498248,3.42864125840582,0.5798653809902045,B,447,Correct
1,relearn,35,289,A,30.239843102789393,40.51145056877961,1.5119921551394697,0.6363523774657203,A,727,Correct
1,relearn,35,290,B,71.26828001896588,45.411006591848455,3.5634140009482937,0.7133144235053439,B,406,Correct
1,relearn,35,291,B,78.79228397907747,65.77536072628155,3.9396141989538735,1.0331969502245237,B,2904,Correct
1,relearn,35,292,A,27.120818226176468,37.10040929545524,1.3560409113088234,0.5827718664388832,A,569,Correct
1,relearn,35,293,B,86.45747887169165,69.05489229115433,4.322873943584582,1.0847117115816245,B,1215,Correct
1,relearn,35,294,A,42.21596932380815,50.77238037908903,2.110798466190408,0.7975306860210633,A,574,Correct
1,relearn,35,295,B,60.649147225405954,29.35360584019524,3.0324573612702976,0.46108536231963904,B,1155,Correct
1,relearn,35,296,A,58.402555438750426,75.22615350802397,2.9201277719375214,1.1816496560931309,A,800,Correct
1,relearn,35,297,B,52.24413063924348,30.806505823196296,2.6122065319621743,0.48390746188462336,B,733,Correct
1,relearn,35,298,A,62.32203778775531,81.40490539682527,3.1161018893877657,1.278705263804192,A,634,Correct
1,relearn,35,299,B,56.27688447192429,41.46906671667613,2.8138442235962144,0.6513945767416737,B,680,Correct
1,relearn,35,300,B,40.06750377239994,14.755647797315667,2.0033751886199966,0.23178117359502654,B,828,Correct
1,relearn,35,301,A,34.22231173631647,50.68418732597431,1.7111155868158234,0.796145352782249,A,2610,Correct
1,relearn,35,302,A,60.86063420171159,79.88138184794926,3.0430317100855797,1.2547738118605924,B,860,Incorrect
1,relearn,35,303,B,67.44488626369392,35.507094242787545,3.3722443131846958,0.5577441321173089,B,745,Correct
1,relearn,35,304,B,57.19716263080666,43.57002295790218,2.859858131540333,0.6843963202064206,B,652,Incorrect
1,relearn,35,305,B,85.66322008835377,60.07565016243437,4.283161004417689,0.9436661060496713,B,388,Correct
1,relearn,35,306,A,51.52532204770447,79.12070244376912,2.5762661023852234,1.2428250877210452,A,836,Correct
1,relearn,35,307,A,61.27477123481218,80.93555868770707,3.063738561740609,1.2713327829374304,B,496,Correct
1,relearn,35,308,B,60.40900046657854,41.73602610602977,3.020450023328927,0.6555879650236747,B,495,Incorrect
1,relearn,35,309,A,57.12099515164561,72.29282031382924,2.85604975758228,1.1355729660260645,B,4367,Correct
1,relearn,35,310,B,55.31939017305666,26.78921124878038,2.765969508652833,0.4208039462731675,A,879,Incorrect
1,relearn,35,311,B,54.295375365034175,43.61004551535249,2.7147687682517083,0.6850249930687394,A,632,Incorrect
1,relearn,35,312,B,50.773398036839936,41.79691750224372,2.5386699018419967,0.6565444448387376,B,389,Incorrect
1,relearn,35,313,A,29.05721270055457,50.78370269404593,1.4528606350277284,0.7977085365285146,A,559,Correct
1,relearn,35,314,A,35.4876801073507,63.64961240702053,1.7743840053675348,0.9998057737086672,A,439,Correct
1,relearn,35,315,B,80.74380942664959,64.85117808292338,4.0371904713324795,1.0186799232097776,B,649,Correct
1,relearn,35,316,A,22.76083527372613,54.15801653801004,1.1380417636863065,0.8507121344440344,A,483,Incorrect
1,relearn,35,317,A,51.35096434945213,61.47901653347002,2.567548217472606,0.9657101334573743,B,700,Incorrect
1,relearn,35,318,A,44.880953160698105,62.42283542135446,2.2440476580349054,0.9805356058798596,A,360,Correct
1,relearn,35,319,A,56.04065516573004,65.82989791361123,2.802032758286502,1.0340536183598354,A,444,Incorrect
1,relearn,35,320,A,15.113137973533924,34.433123278072785,0.7556568986766962,0.5408742356527257,A,551,Incorrect
1,relearn,35,321,B,78.14815417047558,57.226476732196275,3.907407708523779,0.8989113944634751,B,538,Incorrect
1,relearn,35,322,B,57.78420835843664,33.421651007652294,2.8892104179218325,0.5249860663824119,A,652,Correct
1,relearn,35,323,A,57.631317054097394,71.44109322540369,2.8815658527048695,1.1221940682067588,A,425,Incorrect
1,relearn,35,324,B,74.39708827411839,54.82526931789469,3.7198544137059195,0.8611933166008993,A,463,Incorrect
1,relearn,35,325,B,50.47440686545558,20.89741487806989,2.523720343272779,0.328255825299812,B,722,Correct
1,relearn,35,326,A,54.47152563589458,76.15339037586267,2.723576281794729,1.1962146587538292,A,944,Incorrect
1,relearn,35,327,A,52.943490932971095,81.78228620721355,2.647174546648555,1.2846331477117996,B,796,Correct
1,relearn,35,328,A,28.391154964904857,55.15363941298502,1.4195577482452426,0.866351341992871,B,640,Incorrect
1,relearn,35,329,B,31.969894095115116,13.235018840908602,1.5984947047557556,0.2078951898036048,B,691,Incorrect
1,relearn,35,330,A,17.27289619066404,31.053736026215045,0.863644809533202,0.4877909448323694,A,458,Incorrect
1,relearn,35,331,B,74.46270853366107,45.751733902913486,3.7231354266830534,0.7186665555919405,B,802,Correct
1,relearn,35,332,B,36.98852560817018,23.13045527230512,1.8494262804085089,0.36333234178830537,A,513,Correct
1,relearn,35,333,B,60.222982403314575,27.35196985410075,3.0111491201657286,0.429643737774262,A,526,Correct
1,relearn,35,334,A,25.569900184280023,40.49615670797168,1.278495009214001,0.6361121420619242,A,498,Correct
1,relearn,35,335,B,37.352284999085,26.401898174813915,1.8676142499542498,0.4147200467341058,B,1557,Incorrect
1,relearn,35,336,B,45.790460225020404,16.365464747712856,2.28952301125102,0.2570681191199873,B,967,Incorrect
1,relearn,35,337,B,72.97437539929263,61.6462924186948,3.6487187699646313,0.9683376969180988,B,572,Correct
1,relearn,35,338,A,43.97428247411123,52.01265515032472,2.198714123705561,0.8170128765697972,A,627,Correct
1,relearn,35,339,B,46.85258208430052,27.243505344128742,2.3426291042150265,0.4279399812357456,A,832,Correct
1,relearn,35,340,B,64.10152511875388,45.40797410665441,3.205076255937694,0.7132667893393051,A,1063,Correct
1,relearn,35,341,A,53.539938837338504,62.506689717110454,2.6769969418669253,0.9818527860774544,A,1066,Incorrect
1,relearn,35,342,A,44.91368308198261,74.2560205244832,2.2456841540991306,1.1664108428226465,B,692,Correct
1,relearn,35,343,A,69.27463768650205,85.20079103839277,3.463731884325102,1.338330896031269,B,838,Incorrect
1,relearn,35,344,A,21.972924499250084,34.20771665091847,1.0986462249625042,0.5373335566330335,A,678,Correct
1,relearn,35,345,A,36.2741594409492,67.590244214793,1.81370797204746,1.0617050733976685,B,652,Correct
1,relearn,35,346,A,43.45524993937587,59.07507796061749,2.1727624969687933,0.9279491546566011,A,665,Incorrect
1,relearn,35,347,A,34.432345818715504,53.25829357020311,1.7216172909357752,0.8365793191143929,B,524,Incorrect
1,relearn,35,348,A,56.462380635127246,74.31621036578636,2.8231190317563626,1.1673563026389404,B,678,Correct
1,relearn,35,349,A,42.50853107905211,63.629302990144325,2.1254265539526056,0.9994867541343823,A,644,Incorrect
1,relearn,35,350,A,61.49293984424527,87.71135798935157,3.0746469922122635,1.3777667894786567,B,654,Incorrect
1,relearn,35,351,A,19.240504743583923,47.20027676760226,0.9620252371791962,0.7414202137025212,A,625,Incorrect
1,relearn,35,352,B,41.85321957373267,13.27879951335856,2.0926609786866335,0.20858289499829488,A,624,Incorrect
1,relearn,35,353,B,32.07537726292955,13.43301967760203,1.6037688631464775,0.21100537967340835,A,719,Correct
1,relearn,35,354,A,60.24257807981174,74.97645604367088,3.0121289039905874,1.1777274174949723,B,457,Correct
1,relearn,35,355,A,23.391270270640586,46.26541795977279,1.1695635135320293,0.7267354858884174,A,590,Incorrect
1,relearn,35,356,B,43.42648769603738,20.90700704176745,2.171324384801869,0.32840649865483346,B,418,Correct
1,relearn,35,357,B,43.532257297282044,15.676606468286938,2.1766128648641025,0.24624755856994238,B,515,Incorrect
1,relearn,35,358,A,16.140635250948115,31.23621638479468,0.8070317625474058,0.4906573396020605,B,788,Correct
1,relearn,35,359,B,76.6356484454681,49.292681985227645,3.8317824222734056,0.7742876380026454,A,747,Correct
1,relearn,35,360,B,59.022676441924176,39.80462838383277,2.951133822096209,0.625249640547604,B,1052,Correct
1,relearn,35,361,B,55.57957171631649,40.89354091612741,2.7789785858158247,0.6423542386068973,B,619,Incorrect
1,relearn,35,362,A,40.37538178296295,60.62909727376466,2.0187690891481473,0.9523596329452,A,1624,Incorrect
1,relearn,35,363,A,48.1804158986463,61.44160460085414,2.409020794932315,0.9651224681940611,B,579,Correct
1,relearn,35,364,B,42.55970937933606,18.437086741468555,2.127985468966803,0.2896090813029769,B,1148,Correct
1,relearn,35,365,A,26.33509400687663,47.03452246465675,1.3167547003438316,0.7388165512003487,A,661,Incorrect
1,relearn,35,366,B,38.29511883907962,19.01457468567907,1.9147559419539812,0.29868024071831906,B,707,Incorrect
1,relearn,35,367,A,47.61517733173774,73.3193926493635,2.3807588665868873,1.151698326564529,B,785,Correct
1,relearn,35,368,A,42.699365369090444,53.81255829142752,2.1349682684545224,0.8452856889961061,A,831,Incorrect
1,relearn,35,369,A,43.296592444611015,69.42000470331959,2.1648296222305508,1.0904468839405885,B,508,Correct
1,relearn,35,370,A,59.362290866709586,72.89220648482879,2.9681145433354796,1.144988101983442,B,715,Incorrect
1,relearn,35,371,A,51.029162258471786,68.3503085888761,2.5514581129235894,1.0736441366670424,A,510,Correct
1,relearn,35,372,A,53.91266896357233,83.39390562080368,2.695633448178617,1.309948406262387,A,539,Incorrect
1,relearn,35,373,B,74.61252476549035,51.82594503782917,3.730626238274517,0.8140800409809626,A,629,Correct
1,relearn,35,374,B,67.90249693076885,57.554097014854015,3.3951248465384425,0.9040576418292982,A,571,Correct
1,relearn,35,375,B,40.929745978332136,31.760989643850678,2.046487298916607,0.49890045867931404,B,756,Incorrect
1,relearn,35,376,A,31.41480591135636,58.0089519143237,1.570740295567818,0.9112024858824146,A,505,Correct
1,relearn,35,377,B,73.11670983963522,53.12515556398465,3.6558354919817613,0.8344879922031456,A,633,Correct
1,relearn,35,378,B,57.26994155155907,34.43345786908652,2.863497077577954,0.5408794913960793,A,462,Incorrect
1,relearn,35,379,A,18.439588679268123,40.83459709943017,0.9219794339634062,0.6414283512993445,A,607,Correct
1,relearn,35,380,B,58.822189664777014,37.34705517115398,2.9411094832388507,0.5866461707945502,B,600,Incorrect
1,relearn,35,381,B,56.52032296950653,48.407145542890355,2.8260161484753263,0.7603776640939813,A,583,Incorrect
1,relearn,35,382,B,39.56334735528658,13.724254357738353,1.978167367764329,0.21558008333134257,B,741,Correct
1,relearn,35,383,B,83.66412834131788,55.754959500971154,4.183206417065894,0.8757968558472371,B,587,Incorrect
1,relearn,35,384,A,32.54638129840664,40.91525478801727,1.6273190649203317,0.6426953193089483,B,428,Correct
1,relearn,35,385,A,65.47820149577791,83.69778714151703,3.2739100747888954,1.3147217660275605,A,404,Correct
1,relearn,35,386,A,14.716479287075007,40.57599421345368,0.7358239643537503,0.6373662266654403,A,849,Correct
1,relearn,35,387,B,77.50843179637626,58.43210092955983,3.875421589818813,0.9178492950706124,A,836,Incorrect
1,relearn,35,388,B,48.62417799935422,32.18280192215612,2.431208899967711,0.5055262704529058,B,523,Incorrect
1,relearn,35,389,B,46.825702876129284,26.505858879610365,2.3412851438064646,0.4163530576663585,A,537,Correct
1,relearn,35,390,B,48.028570755778055,36.21934248089995,2.401428537788903,0.56893210127924,A,453,Incorrect
1,relearn,35,391,A,63.695878635464695,85.14846159875695,3.1847939317732346,1.3375089071156374,B,619,Correct
1,relearn,35,392,B,54.212953770558585,43.76350871048209,2.710647688527929,0.6874355873008173,B,494,Incorrect
1,relearn,35,393,A,38.0216905352858,48.33291734965278,1.9010845267642902,0.7592116903611592,A,464,Correct
1,relearn,35,394,B,77.1305876346163,58.66111094126626,3.856529381730815,0.9214465759224897,A,464,Incorrect
1,relearn,35,395,A,61.566277113118446,82.69798345188065,3.078313855655922,1.2990168863955927,B,711,Incorrect
1,relearn,35,396,B,72.4331799584408,46.067569676533495,3.62165899792204,0.7236276923226678,B,913,Incorrect
1,relearn,35,397,A,10.930034990624229,35.31152696283522,0.5465017495312114,0.554672168467405,B,481,Incorrect
1,relearn,35,398,A,21.211650228708827,51.8977622574825,1.0605825114354415,0.8152081432292831,A,486,Correct
1,relearn,35,399,A,48.75488628464389,69.25275344855095,2.4377443142321944,1.0878197073741642,A,525,Correct
1,relearn,35,400,A,27.79292794293836,39.23133140905699,1.389646397146918,0.6162443127261997,A,562,Correct
1,relearn,35,401,A,58.83677457211314,78.29483726699797,2.9418387286056573,1.2298524278600458,A,697,Correct
1,relearn,35,402,B,82.42126149606904,53.212468871029344,4.121063074803452,0.8358595064230067,A,650,Correct
1,relearn,35,403,A,42.17953700362726,51.90917373842908,2.1089768501813633,0.815387394352825,A,576,Incorrect
1,relearn,35,404,B,88.70328739745851,62.101274638769794,4.4351643698729255,0.9754845409186065,B,424,Incorrect
1,relearn,35,405,A,28.390465697088153,53.66197252956672,1.4195232848544077,0.8429202933801204,A,783,Correct
1,relearn,35,406,A,49.19793055451702,80.5507620712049,2.459896527725851,1.2652884118197831,A,732,Incorrect
1,relearn,35,407,B,43.20253711167906,21.362848343692605,2.1601268555839526,0.3355668370814878,B,2031,Incorrect
1,relearn,35,408,A,26.171601621199006,57.75959280028215,1.3085800810599502,0.9072855620785215,A,472,Correct
1,relearn,35,409,A,28.219225744734523,46.600936609671166,1.4109612872367263,0.7320058005167329,A,3251,Incorrect
1,relearn,35,410,A,51.31725826964384,76.25725151620982,2.5658629134821918,1.1978461057313694,B,5559,Correct
1,relearn,35,411,B,60.47835635766715,50.800931552883554,3.023917817883358,0.7979791668102845,B,1005,Correct
1,relearn,35,412,A,31.66426500693639,42.77063262481812,1.5832132503468193,0.6718395262175827,B,5998,Incorrect
1,relearn,35,413,A,53.62390425142205,70.436090903418,2.6811952125711027,1.1064075286488042,A,697,Correct
1,relearn,35,414,A,42.69093866561097,71.2678067806767,2.1345469332805487,1.1194720910981537,A,557,Incorrect
1,relearn,35,415,B,68.07921410229117,38.70845572175897,3.403960705114559,0.6080310006364188,B,480,Incorrect
1,relearn,35,416,B,86.92192592042085,62.60538111158363,4.3460962960210425,0.9834030268767017,B,512,Correct
1,relearn,35,417,B,56.003995989162135,43.96370134005251,2.800199799458107,0.6905802057726235,A,873,Correct
1,relearn,35,418,A,40.37151577686491,72.64464059364772,2.018575788843245,1.141099346058373,A,572,Incorrect
1,relearn,35,419,A,64.05044605793293,84.71611223948963,3.202522302896647,1.330717579261345,B,830,Incorrect
1,relearn,35,420,A,33.661712203898986,53.54826439276004,1.6830856101949494,0.8411341701438942,A,909,Incorrect
1,relearn,35,421,B,66.24809560293336,53.826909394010016,3.312404780146668,0.8455111155883265,B,425,Incorrect
1,relearn,35,422,A,39.969438898294676,51.33900691484798,1.9984719449147337,0.8064312348314101,A,539,Correct
1,relearn,35,423,B,85.07942254607481,68.88272472965582,4.25397112730374,1.0820073098496734,A,725,Incorrect
1,relearn,35,424,A,24.496024294030505,36.18848887275476,1.2248012147015253,0.5684474539358116,A,555,Correct
1,relearn,35,425,A,41.92207292423848,56.413789269466086,2.096103646211924,0.8861457296505868,A,999,Correct
1,relearn,35,426,A,35.55562712032977,55.24900666997702,1.7777813560164883,0.8678493673626663,A,939,Incorrect
1,relearn,35,427,A,44.222454691990116,68.07220683867045,2.2111227345995057,1.06927572459006,B,635,Correct
1,relearn,35,428,A,59.04263023985742,74.48119094678488,2.952131511992871,1.16994781154519,B,580,Correct
1,relearn,35,429,A,61.17895274430416,85.41493467690745,3.058947637215208,1.3416946564391226,B,773,Incorrect
1,relearn,35,430,A,39.46139788168275,67.21635828853742,1.9730698940841376,1.0558320870016427,A,553,Incorrect
1,relearn,35,431,B,56.24065743791222,29.24159401396839,2.8120328718956107,0.4593258846676918,B,540,Incorrect
1,relearn,35,432,A,50.21897663376177,62.17496798201506,2.5109488316880886,0.9766421132473957,B,532,Incorrect
1,relearn,35,433,B,40.13895520093602,26.617085424716954,2.006947760046801,0.4181002001513137,A,1016,Correct
1,relearn,35,434,B,38.9180284312926,24.59916547950077,1.94590142156463,0.38640278777419623,A,492,Correct
1,relearn,35,435,A,62.969697004878505,88.5972767936488,3.1484848502439253,1.3916827695149427,B,517,Incorrect
1,relearn,35,436,A,18.69191695591867,35.66211451056677,0.9345958477959335,0.5601791847893726,A,490,Correct
1,relearn,35,437,A,39.91586164180359,48.73258998693701,1.9957930820901795,0.765489733466824,A,515,Incorrect
1,relearn,35,438,A,22.979053295277765,36.39682321927314,1.1489526647638884,0.5717199621983745,A,442,Correct
1,relearn,35,439,B,43.71524130323681,17.706899226581402,2.1857620651618404,0.27813932264041463,B,482,Correct
1,relearn,35,440,B,77.79039526378715,52.51945434988298,3.8895197631893574,0.8249736597806843,A,694,Correct
1,relearn,35,441,B,43.04763054826374,29.127266241703133,2.152381527413187,0.4575300282204427,A,721,Incorrect
1,relearn,35,442,A,50.47473656806161,69.28000796772523,2.5237368284030803,1.0882478203602395,B,468,Incorrect
1,relearn,35,443,A,37.71674390075296,52.12534556595678,1.885837195037648,0.8187830134791955,A,411,Correct
1,relearn,35,444,B,45.38357313699399,25.325510541918124,2.269178656849699,0.3978121893345042,A,462,Incorrect
1,relearn,35,445,A,12.506069086259416,35.623474702710254,0.6253034543129707,0.559572232106882,B,328,Incorrect
1,relearn,35,446,B,78.04827405294883,61.2922561326186,3.9024137026474417,0.9627765079408926,B,638,Correct
1,relearn,35,447,A,57.07850525036959,81.14543455863763,2.8539252625184792,1.2746295054088363,B,505,Incorrect
1,relearn,35,448,A,42.871647404555546,65.27222383058687,2.143582370227777,1.0252936943482018,B,372,Incorrect
1,relearn,35,449,B,68.0327112678227,35.87241353659651,3.4016355633911353,0.5634825541655333,B,521,Correct
1,relearn,35,450,A,40.46660732028476,63.040346531101804,2.023330366014238,0.990235447709321,A,618,Incorrect
1,relearn,35,451,A,18.575225350032905,49.64804942857328,0.9287612675016453,0.7798697367493437,A,422,Correct
1,relearn,35,452,A,30.059495095672432,42.68577313083499,1.5029747547836216,0.6705065564031589,A,459,Correct
1,relearn,35,453,A,16.196900316067786,36.867984805822616,0.8098450158033893,0.5791209510931623,A,566,Incorrect
1,relearn,35,454,A,60.174556735928945,69.53058362965447,3.008727836796447,1.0921838536536663,B,526,Incorrect
1,relearn,35,455,A,25.054969097391165,47.26690303009401,1.2527484548695582,0.7424667765864224,A,581,Incorrect
1,relearn,35,456,A,61.53135682478329,74.5280871606063,3.0765678412391644,1.1706844555493028,B,1043,Correct
1,relearn,35,457,A,17.511834989426113,46.17098049341257,0.8755917494713057,0.7252520656357129,A,671,Incorrect
1,relearn,35,458,A,40.31891643509188,61.059019376081054,2.0159458217545936,0.9591128335364654,B,1381,Correct
1,relearn,35,459,B,81.52372781049894,52.15456868134361,4.076186390524947,0.8192420491022668,B,672,Incorrect
1,relearn,35,460,B,54.40464077462782,46.06556689345231,2.7202320387313907,0.7235962326795948,B,509,Correct
1,relearn,35,461,B,48.464352809153056,22.445223979732962,2.423217640457653,0.3525687538145327,A,209,Incorrect
1,relearn,35,462,B,35.65370335248087,10.853780614120652,1.7826851676240434,0.17049078720498376,B,249,Correct
1,relearn,35,463,B,57.43179728467803,36.548876904595176,2.8715898642339015,0.5741084159021693,B,640,Correct
1,relearn,35,464,B,37.022463710536094,26.80263196078848,1.8511231855268049,0.42101475832442037,B,464,Incorrect
1,relearn,35,465,A,62.14062636747042,86.36081206869846,3.107031318373521,1.3565524637653592,B,504,Incorrect
1,relearn,35,466,B,32.36150204493775,15.609270108411668,1.6180751022468878,0.24518984150242423,B,305,Correct
1,relearn,35,467,B,52.93677460182565,25.705462426060688,2.646838730091282,0.4037804595742036,A,364,Incorrect
1,relearn,35,468,B,89.00765206415362,63.24509854084879,4.4503826032076805,0.9934516847574655,B,533,Correct
1,relearn,35,469,B,72.95421364271694,58.57605945822564,3.6477106821358465,0.920110590351003,B,685,Incorrect
1,relearn,35,470,B,56.28943568875542,25.212286235158196,2.814471784437771,0.39603366608288026,A,565,Correct
1,relearn,35,471,A,41.006400897868595,49.8332469083025,2.0503200448934296,0.782778811958247,B,516,Incorrect
1,relearn,35,472,A,48.917326525411625,71.57596916720205,2.4458663262705813,1.1243126945462574,A,745,Correct
1,relearn,35,473,A,46.59362333913268,60.04344869697455,2.3296811669566337,0.9431602866130544,A,650,Correct
1,relearn,35,474,B,55.24944590164514,27.593513254325504,2.762472295082257,0.43343789263260796,B,775,Correct
1,relearn,35,475,A,48.98355764010847,69.84457939051093,2.4491778820054235,1.097116087531491,B,618,Correct
1,relearn,35,476,A,16.52444866853032,45.950992836718086,0.8262224334265159,0.7217965076049537,A,686,Incorrect
1,relearn,35,477,A,15.50242034591221,41.2605400064253,0.7751210172956106,0.6481190468366675,A,969,Incorrect
1,relearn,35,478,B,37.71786210603983,22.822976804378456,1.8858931053019916,0.35850248130842804,B,1351,Incorrect
1,relearn,35,479,B,34.92316764139858,15.158559896864052,1.746158382069929,0.2381101020549448,A,503,Incorrect
1,relearn,35,480,A,12.011836109808598,39.30845444809596,0.6005918054904299,0.6174557585905364,A,451,Correct
1,relearn,35,481,A,57.59859061487403,77.61651805382807,2.879929530743701,1.219197414575629,B,672,Incorrect
1,relearn,35,482,B,46.72593411860811,20.847293686298304,2.3362967059304056,0.32746852346051813,B,611,Correct
1,relearn,35,483,B,45.61743175462304,29.800677234345276,2.280871587731152,0.4681079433570986,A,416,Incorrect
1,relearn,35,484,A,31.013665305752227,61.58452901580862,1.5506832652876112,0.9673675196542592,A,313,Incorrect
1,relearn,35,485,A,40.1143292986707,70.94901696400669,2.005716464933535,1.114464552367705,B,319,Incorrect
1,relearn,35,486,A,40.567482065035954,66.90047217304858,2.0283741032517977,1.050870159502689,B,137,Incorrect
1,relearn,35,487,B,61.587104213317666,48.26938814658524,3.079355210665883,0.7582137759729323,A,510,Correct
1,relearn,35,488,B,79.09919160055772,47.137438136201915,3.954959580027886,0.7404331467886764,A,411,Incorrect
1,relearn,35,489,A,52.70915318009828,71.05048488673877,2.635457659004914,1.1160584067708557,B,688,Correct
1,relearn,35,490,A,40.18082148654966,57.07878271243208,2.009041074327483,0.8965914222261234,B,408,Correct
1,relearn,35,491,B,62.276175993193625,47.46694140332381,3.1138087996596813,0.7456089720052961,A,880,Correct
1,relearn,35,492,B,71.5162828629386,48.29975777977489,3.57581414314693,0.7586908210555363,A,464,Incorrect
1,relearn,35,493,B,59.00840955897289,37.616748693502664,2.9504204779486445,0.5908825067372071,A,9364,Correct
1,relearn,35,494,B,51.214854289973296,38.38643400390205,2.560742714498665,0.6029726953208406,A,1098,Incorrect
1,relearn,35,495,B,42.04899576723423,17.578806669134774,2.1024497883617115,0.2761272494531454,B,710,Correct
1,relearn,35,496,A,27.849538353081392,56.90464600014878,1.3924769176540694,0.8938560891459761,B,434,Incorrect
1,relearn,35,497,A,55.32899726622602,78.61690560791274,2.766449863311301,1.2349114655289044,B,496,Incorrect
1,relearn,35,498,A,49.784468414401765,65.24259711026833,2.4892234207200885,1.0248283189136882,A,449,Incorrect
1,relearn,35,499,B,57.48954739950824,33.47138299207892,2.874477369975412,0.5257672545670274,B,662,Correct
1,relearn,35,500,A,60.75009657387143,76.15594556249982,3.0375048286935713,1.1962547955316682,B,593,Correct
1,relearn,35,501,A,39.206430441229394,58.673614950419065,1.9603215220614698,0.9216429884389639,B,463,Correct
1,relearn,35,502,A,53.81469124950418,79.74824093710652,2.6907345624752086,1.2526824393236131,B,412,Incorrect
1,relearn,35,503,B,63.02170074464066,41.69081426560989,3.1510850372320327,0.6548777790950828,A,692,Incorrect
1,relearn,35,504,B,33.9563844070512,16.011685610524243,1.69781922035256,0.25151096942806184,B,563,Correct
1,relearn,35,505,B,54.15298789573905,28.04069294738251,2.707649394786953,0.4404621748253201,B,388,Correct
1,relearn,35,506,B,41.579442112824026,20.887236932003198,2.0789721056412014,0.32809595049685325,B,247,Incorrect
1,relearn,35,507,B,43.5401995073114,22.92431715972001,2.17700997536557,0.36009433188769413,B,3370,Incorrect
1,relearn,35,508,A,53.9129251378236,66.33250207378472,2.69564625689118,1.041948506046159,B,214,Incorrect
1,relearn,35,509,B,47.543023320617095,23.23307843183669,2.377151166030855,0.3649443426086681,A,469,Correct
1,relearn,35,510,A,48.289522118564435,73.35067564281954,2.414476105928222,1.1521897186766483,B,515,Correct
1,relearn,35,511,A,29.926202710068026,61.7265182345973,1.4963101355034012,0.9695978810874364,B,478,Correct
1,relearn,35,512,A,15.21989529999573,33.09370994787733,0.7609947649997865,0.5198347802614143,A,464,Incorrect
1,relearn,35,513,B,77.42604462536262,50.43031694145204,3.8713022312681313,0.7921575661073531,B,542,Correct
1,relearn,35,514,A,34.44067674404992,55.92143413105312,1.7220338372024957,0.8784118332216099,B,613,Incorrect
1,relearn,35,515,A,28.824730390854228,46.60583679386706,1.4412365195427115,0.7320827724300882,A,531,Correct
1,relearn,35,516,A,42.45088721467721,51.62650213950269,2.1225443607338605,0.810947199259997,A,464,Incorrect
1,relearn,35,517,A,16.104797490099852,38.0980843994448,0.8052398745049927,0.5984433103256984,A,737,Correct
1,relearn,35,518,A,59.15765247551582,80.4259364561926,2.9578826237757907,1.263327655644271,B,545,Correct
1,relearn,35,519,A,64.10552666428913,82.92524860123868,3.2052763332144565,1.3025867590137936,B,524,Correct
1,relearn,35,520,A,24.32477695132571,37.068602786792766,1.2162388475662853,0.5822722509691314,A,482,Correct
1,relearn,35,521,B,45.9681174634251,20.77776152772932,2.298405873171255,0.3263763148677753,B,538,Correct
1,relearn,35,522,B,60.72214477512707,49.65242439221242,3.0361072387563537,0.7799384585174859,B,718,Correct
1,relearn,35,523,B,48.84625959423887,27.609417288513825,2.4423129797119434,0.43368771261745026,A,836,Correct
1,relearn,35,524,B,73.54258765879294,58.56311667620061,3.6771293829396474,0.9199072856063688,B,765,Correct
1,relearn,35,525,A,16.39330978469441,40.00894848750111,0.8196654892347205,0.6284590932309299,A,679,Correct
1,relearn,35,526,B,78.64874517764657,64.52892690197199,3.9324372588823286,1.0136180134963397,B,728,Correct
1,relearn,35,527,B,53.36834232571523,43.822577995850104,2.6684171162857613,0.688363445465642,B,728,Incorrect
1,relearn,35,528,B,68.0681472388909,59.52318225024814,3.403407361944545,0.9349879603783297,A,619,Correct
1,relearn,35,529,A,19.54255189488503,42.877734848678884,0.9771275947442516,0.6735218840159032,A,492,Incorrect
1,relearn,35,530,A,46.84246712007069,63.15550553933275,2.3421233560035346,0.9920443611805863,B,505,Incorrect
1,relearn,35,531,B,82.24835988694582,57.972073714175494,4.112417994347291,0.9106232044690984,A,423,Correct
1,relearn,35,532,B,82.29335904387887,60.13483663403423,4.114667952193943,0.9445958049715214,A,436,Incorrect
1,relearn,35,533,B,53.32272208521322,22.128884826716376,2.666136104260661,0.347599710018734,A,632,Incorrect
1,relearn,35,534,A,13.241102111764981,31.71687346071601,0.662055105588249,0.49820748329511244,A,369,Correct
1,relearn,35,535,B,75.73932951694039,56.81985919379176,3.7869664758470196,0.8925242611061132,B,390,Incorrect
1,relearn,35,536,A,21.86234224934914,49.325355435929936,1.093117112467457,0.7748008713661142,A,2498,Correct
1,relearn,35,537,A,21.58823922169417,51.0375014684221,1.0794119610847084,0.8016951983538658,A,526,Correct
1,relearn,35,538,B,86.94976476090967,59.71197871330809,4.347488238045483,0.937953568285194,B,510,Correct
1,relearn,35,539,B,80.42160600411373,53.772140099992356,4.0210803002056865,0.8446508015296855,A,751,Correct
1,relearn,35,540,A,51.698854180965554,80.2011453655842,2.5849427090482777,1.2597966454500318,B,689,Correct
1,relearn,35,541,B,88.11034708616519,63.55790296501776,4.40551735430826,0.9983652051623636,B,669,Incorrect
1,relearn,35,542,B,65.993692451296,56.152102037587746,3.2996846225647998,0.8820351562245505,B,937,Incorrect
1,relearn,35,543,B,39.67618317418371,22.525529819391977,1.9838091587091855,0.3538301949940983,B,479,Correct
1,relearn,35,544,B,52.027736717698076,28.49910351643905,2.6013868358849037,0.44766287120569975,B,789,Incorrect
1,relearn,35,545,A,64.1074306106118,81.31071426554333,3.20537153053059,1.2772257129738485,A,624,Incorrect
1,relearn,35,546,B,58.09306767612104,31.806865630271226,2.904653383806052,0.49962107698888886,B,3073,Correct
1,relearn,35,547,A,38.448003254437964,50.14751073231247,1.9224001627218983,0.7877152565622408,A,576,Correct
1,relearn,35,548,A,31.567200979847023,46.84484119124051,1.5783600489923513,0.7358370447249085,A,456,Incorrect
1,relearn,35,549,A,44.93032740042608,52.38006612904949,2.246516370021304,0.8227841547278469,B,803,Correct
1,relearn,35,550,B,86.6572715844362,58.89777232237638,4.332863579221811,0.9251640442039096,A,703,Correct
1,relearn,35,551,A,63.34719898701238,86.27649331940748,3.1673599493506193,1.355227987948697,A,673,Correct
1,relearn,35,552,B,68.0210165949631,56.15081548594179,3.401050829748155,0.8820149471185537,B,727,Incorrect
1,relearn,35,553,A,67.94904042203575,82.0380919953478,3.3974520211017873,1.2886513356355411,B,1080,Incorrect
1,relearn,35,554,A,18.15484058512785,42.54804112842907,0.9077420292563926,0.6683430671685457,A,680,Incorrect
1,relearn,35,555,A,24.333850543245866,41.8423210380841,1.2166925271622933,0.6572576419119533,A,385,Incorrect
1,relearn,35,556,A,41.84218116024534,48.800009436981725,2.0921090580122668,0.7665487557116717,B,461,Incorrect
1,relearn,35,557,A,61.44620356091613,70.65787962557962,3.072310178045807,1.1098913777497645,A,53124,Correct
1,relearn,35,558,B,65.9133063380683,44.14042704366486,3.295665316903415,0.6933562066334688,B,560,Correct
1,relearn,35,559,B,83.92523333296829,64.83430106079584,4.1962616666484145,1.0184148195661258,A,395,Incorrect
1,relearn,35,560,B,46.75070139897527,32.19861682215846,2.3375350699487636,0.5057746903212288,B,660,Incorrect
1,relearn,35,561,A,40.96830786879592,71.35918037033647,2.048415393439796,1.1209073840881902,A,555,Incorrect
1,relearn,35,562,A,16.402396104632356,44.23095332824435,0.8201198052316179,0.6947781901864273,A,2654,Incorrect
1,relearn,35,563,B,51.824780368101806,34.70008000975978,2.59123901840509,0.5450675821881968,B,595,Correct
1,relearn,35,564,B,68.09193211729298,45.20863334015513,3.404596605864649,0.7101355519013297,B,456,Incorrect
1,relearn,35,565,B,40.233065523119606,24.32966750897967,2.01165327615598,0.3821695235524641,B,638,Correct
1,relearn,35,566,A,37.720263795164854,63.18744294178153,1.8860131897582426,0.9925460327251255,A,787,Correct
1,relearn,35,567,B,76.9602858108946,48.49054943777404,3.8480142905447305,0.7616877694112181,B,607,Correct
1,relearn,35,568,A,36.41067858202612,67.7698797974461,1.820533929101306,1.0645267825315998,A,1054,Incorrect
1,relearn,35,569,A,16.44520616028889,39.815407076241186,0.8222603080144445,0.6254189518520319,B,630,Incorrect
1,relearn,35,570,A,13.040930857302818,37.9376039965157,0.6520465428651409,0.5959224900512623,B,427,Correct
1,relearn,35,571,A,30.113104953266486,57.71518468084696,1.5056552476633243,0.906588000969635,A,595,Incorrect
1,relearn,35,572,B,76.39037290262499,64.77179150097568,3.8195186451312497,1.017432921696575,B,534,Correct
1,relearn,35,573,B,63.678520613265455,48.5231281892736,3.183926030663273,0.7621995152430886,B,730,Correct
1,relearn,35,574,B,76.08730598530688,61.10067056412608,3.8043652992653443,0.9597670888683429,B,608,Correct
1,relearn,35,575,B,52.5950059935829,33.74933421101125,2.629750299679145,0.5301333021042981,B,621,Incorrect
1,relearn,35,576,A,43.210758199905555,52.444103926749634,2.160537909995278,0.8237900581018812,B,482,Correct
1,relearn,35,577,B,44.81521248816024,32.88938305834494,2.240760624408012,0.5166252209859853,A,552,Correct
1,relearn,35,578,B,59.27837294792352,49.447303658211425,2.9639186473961763,0.7767164295623036,B,483,Incorrect
1,relearn,35,579,A,17.566326216231236,33.11079122148054,0.8783163108115617,0.5201030922797435,A,1608,Incorrect
1,relearn,35,580,A,55.448701752626306,83.69531775449828,2.7724350876313157,1.314682976986976,B,1107,Incorrect
1,relearn,35,581,A,59.031518993214135,79.1431542207891,2.951575949660707,1.2431777594097755,A,477,Correct
1,relearn,35,582,A,40.61299177408151,57.4242793796865,2.030649588704075,0.9020184711845548,A,481,Incorrect
1,relearn,35,583,A,25.120896471608837,36.74086995139248,1.2560448235804418,0.577124235628963,B,615,Correct
1,relearn,35,584,B,55.84486505702508,48.088653423770914,2.792243252851254,0.7553748015857219,A,617,Incorrect
1,relearn,35,585,A,55.7868160510751,66.40672472432334,2.7893408025537547,1.0431143927144693,A,941,Incorrect
1,relearn,35,586,A,44.40372834918023,63.838786399522085,2.2201864174590114,1.002777311834133,A,596,Incorrect
1,relearn,35,587,B,73.66677285403496,49.67195257204453,3.683338642701748,0.7802452064489787,B,684,Correct
1,relearn,35,588,A,43.876905519316445,71.37236721940985,2.1938452759658222,1.1211145226290549,A,770,Correct
1,relearn,35,589,A,19.559916991325288,34.752646839419114,0.9779958495662643,0.5458933000175981,B,717,Correct
1,relearn,35,590,B,74.67411400172683,51.34669163870613,3.7337057000863414,0.8065519461914982,B,515,Correct
1,relearn,35,591,A,15.084393843344355,33.71755883799648,0.7542196921672177,0.5296341757121567,B,612,Incorrect
1,relearn,35,592,B,86.18795278072791,63.51785650896632,4.309397639036396,0.997736156901696,B,485,Incorrect
1,relearn,35,593,A,57.34893647357644,81.55668159605682,2.867446823678822,1.2810893587666699,A,524,Incorrect
1,relearn,35,594,B,76.23338259903991,47.83288593550945,3.811669129951996,0.7513572152749751,B,282,Incorrect
1,relearn,35,595,B,55.80895989846627,46.95180961053097,2.7904479949233134,0.7375173007259538,A,910,Incorrect
1,relearn,35,596,A,27.109018192571092,37.95103220016213,1.3554509096285545,0.5961334197808952,B,1632,Incorrect
1,relearn,35,597,A,47.95681741862188,73.53305671524322,2.397840870931094,1.1550545538630483,A,607,Correct
1,relearn,35,598,B,51.3728877774504,22.317964658705797,2.56864438887252,0.35056976907433385,A,792,Correct
1,relearn,35,599,B,84.83240276666355,63.82828147094452,4.241620138333178,1.002612300801904,A,683,Correct
1,relearn,35,600,A,19.16649645806686,46.325596109843644,0.958324822903343,0.7276807620592635,A,876,Correct
1,relearn,35,601,B,51.02812941215778,34.45505631187208,2.551406470607889,0.5412187589419998,A,5890,Incorrect
1,relearn,35,602,A,45.9658310731421,75.92252134162608,2.298291553657105,1.1925881764443338,A,674,Correct
1,relearn,35,603,B,60.87773642827538,41.033883581313724,3.0438868214137687,0.6445587360365702,B,723,Correct
1,relearn,35,604,A,42.85286079472993,51.7781747859097,2.1426430397364964,0.8133296676185108,B,645,Incorrect
1,relearn,35,605,B,79.51779658819986,55.308595773960285,3.975889829409993,0.8687853908192055,B,646,Correct
1,relearn,35,606,B,61.977717363063036,36.65961547835185,3.098885868153152,0.5758478933510842,B,885,Correct
1,relearn,35,607,B,50.897215127206586,41.923303796008376,2.5448607563603294,0.658529716098765,B,872,Correct
1,relearn,35,608,B,38.33669234317047,27.879863678756355,1.9168346171585233,0.4379358745813293,B,804,Correct
1,relearn,35,609,B,48.61687664135134,39.46123187215866,2.4308438320675667,0.6198555807558853,B,1428,Correct
1,relearn,35,610,B,55.34449062906913,28.385619788715715,2.7672245314534565,0.44588027297911176,A,568,Incorrect
1,relearn,35,611,B,54.75845523306461,32.47991847359998,2.737922761653231,0.5101933663292855,B,636,Correct
1,relearn,35,612,B,55.920988390611974,46.497152977035796,2.7960494195305987,0.7303755710274822,B,660,Correct
1,relearn,35,613,A,38.84479963034905,57.027565069019474,1.9422399815174527,0.8957868973647274,B,658,Incorrect
1,relearn,35,614,A,24.353073307096174,56.39194697521602,1.2176536653548087,0.885802631694819,A,623,Correct
1,relearn,35,615,B,64.13936666541888,45.17319780792832,3.206968333270944,0.7095789318627307,B,1215,Correct
1,relearn,35,616,A,32.126425255546465,48.30831263825271,1.6063212627773231,0.7588252004582682,A,388,Correct
1,relearn,35,617,B,58.69262782338064,48.20686458242372,2.9346313911690323,0.7572316581237019,B,959,Correct
1,relearn,35,618,A,42.21264705436773,65.6449239000968,2.1106323527183863,1.0311480533500255,A,589,Correct
1,relearn,35,619,B,44.033524625890394,20.280691551171078,2.2016762312945195,0.31856835793439825,A,1032,Incorrect
1,relearn,35,620,B,44.082363600276366,33.24817716190301,2.2041181800138183,0.5222611455854321,B,650,Correct
1,relearn,35,621,B,30.33697637739092,12.612123677473846,1.516848818869546,0.19811077545658862,A,602,Incorrect
1,relearn,35,622,A,40.490773085772375,63.74465567192243,2.024538654288619,1.0012987098226123,B,669,Incorrect
1,relearn,35,623,A,42.0077649708425,57.405438805772036,2.1003882485421252,0.9017225241415593,A,754,Correct
1,relearn,35,624,A,25.822855675500225,57.95026597032391,1.2911427837750113,0.910280649229721,A,458,Correct
1,relearn,35,625,A,21.95122047598007,40.3705199364842,1.0975610237990034,0.6341386442702953,A,616,Correct
1,relearn,35,626,B,44.14405775397681,20.721714112526325,2.2072028876988408,0.3254959241285032,B,569,Correct
1,relearn,35,627,A,37.78828684558521,61.43216182549331,1.8894143422792606,0.9649741414255456,A,683,Correct
1,relearn,35,628,A,57.87565326149581,83.6752890510389,2.8937826630747905,1.3143683668487314,B,844,Incorrect
1,relearn,35,629,B,57.48329658602051,43.919006748869236,2.874164829301025,0.6898781447760406,B,948,Correct
1,relearn,35,630,A,38.45632918183792,54.25616137683451,1.9228164590918961,0.8522537899672279,B,928,Incorrect
1,relearn,35,631,B,34.67822546596389,13.37231864485517,1.7339112732981945,0.21005189008069405,B,1000,Correct
1,relearn,35,632,A,43.045443656256616,65.86313161632587,2.152272182812831,1.034575652141335,A,953,Correct
1,relearn,35,633,A,32.742811428035935,61.50733294996263,1.6371405714017968,0.9661549266875201,B,603,Incorrect
1,relearn,35,634,A,55.92189605203339,64.25191928262547,2.7960948026016696,1.0092667879867028,A,564,Correct
1,relearn,35,635,A,30.412003641790747,60.90813148321597,1.5206001820895374,0.9567426920577625,A,554,Correct
1,relearn,35,636,B,83.63055952404278,56.516884089106526,4.181527976202139,0.8877651392906146,A,564,Incorrect
1,relearn,35,637,A,22.954426355807858,52.28178277831675,1.1477213177903929,0.8212403234646865,A,530,Correct
1,relearn,35,638,B,75.85384896633305,57.4574718258644,3.792692448316652,0.9025398569098907,B,490,Correct
1,relearn,35,639,A,56.34413593650676,82.2595595406286,2.817206796825338,1.292130139701855,A,758,Correct
1,relearn,35,640,B,44.25948989602486,33.425781643039045,2.212974494801243,0.5250509502513401,B,600,Correct
1,relearn,35,641,A,47.54553122229304,72.98584130481625,2.3772765611146522,1.1464589142964061,A,998,Correct
1,relearn,35,642,B,77.96092910332534,63.98542803550555,3.898046455166267,1.0050807532657131,B,553,Correct
1,relearn,35,643,A,50.97887337829791,66.98939059501667,2.548943668914896,1.0522668868088076,A,697,Correct
1,relearn,35,644,B,64.97272142517963,45.339819600266914,3.2486360712589817,0.7121962208564254,B,815,Correct
1,relearn,35,645,A,52.47303388368531,81.03784466657243,2.6236516941842654,1.2729394873362736,A,563,Correct
1,relearn,35,646,A,44.626351437158405,58.315781897068746,2.2313175718579203,0.916022159980879,B,672,Incorrect
1,relearn,35,647,B,39.85299751011579,18.346498369337894,1.9926498755057895,0.28818612248104525,B,690,Correct
1,relearn,35,648,B,43.75687442766322,22.56701446135249,2.1878437213831607,0.354481834226198,B,1130,Correct
1,relearn,35,649,A,31.449710423254174,63.72800389896164,1.5724855211627087,1.0010371443845978,A,5308,Correct
1,relearn,35,650,B,48.299028845927815,38.07640082543569,2.4149514422963905,0.5981027055416455,B,3645,Correct
1,relearn,35,651,A,51.45463043922631,77.847907495159,2.5727315219613156,1.2228320714206466,A,551,Correct
1,relearn,35,652,A,49.710349935689266,59.108913384000054,2.485517496784463,0.9284806402442498,B,780,Incorrect
1,relearn,35,653,B,71.53860830532419,59.70592383986573,3.57693041526621,0.9378584585555694,B,1145,Correct
1,relearn,35,654,B,58.265944090213026,26.830960066215074,2.913297204510651,0.42145973516391194,B,656,Correct
1,relearn,35,655,B,69.94217733630995,52.442330609345326,3.4971088668154975,0.8237622028972322,B,618,Correct
1,relearn,35,656,A,60.808931656088845,72.3901767238005,3.040446582804442,1.1371022369377923,A,665,Correct
1,relearn,35,657,A,63.30092938912331,88.29340107138653,3.1650464694561657,1.3869095008316255,A,618,Correct
1,relearn,35,658,B,68.17596795265158,45.188866059377794,3.408798397632579,0.7098250481809721,B,563,Correct
1,relearn,35,659,A,43.37316076517555,65.98626435025622,2.1686580382587777,1.0365098166029951,A,569,Correct
1,relearn,35,660,A,25.671683087578323,52.962155299124774,1.2835841543789162,0.8319275900300607,B,551,Incorrect
1,relearn,35,661,B,65.98748803158551,47.338327355835354,3.2993744015792754,0.7435887072716053,B,630,Correct
1,relearn,35,662,B,69.80641795638194,37.44947282666632,3.490320897819097,0.5882549435653275,B,577,Correct
1,relearn,35,663,A,49.56210723178642,64.39034982969746,2.478105361589321,1.0114412499352716,A,787,Correct
1,relearn,35,664,B,78.99896269884582,64.20821319574193,3.949948134942291,1.0085802543793503,B,661,Correct
1,relearn,35,665,B,73.14457596969321,55.84029694505901,3.6572287984846605,0.8771373332843497,B,616,Correct
1,relearn,35,666,B,60.78989929190002,34.3248773893849,3.039494964595001,0.5391739132093101,A,1315,Incorrect
1,relearn,35,667,B,69.62038229485306,56.92129784939014,3.481019114742653,0.8941176557822028,A,672,Incorrect
1,relearn,35,668,B,44.55498758976425,36.06279596199207,2.2277493794882126,0.5664730743105097,B,645,Correct
1,relearn,35,669,A,30.591453764869364,48.12287924824474,1.5295726882434681,0.7559124195793719,A,626,Correct
1,relearn,35,670,B,84.58350370650449,58.39899647921517,4.229175185325224,0.917329291580593,B,612,Correct
1,relearn,35,671,A,27.111418456215787,50.40808253365618,1.3555709228107895,0.7918083088464111,A,638,Correct
1,relearn,35,672,A,38.37921773577198,70.46792219530664,1.9189608867885992,1.1069075334125624,B,1602,Incorrect
1,relearn,35,673,B,40.100675400901565,21.969346576850388,2.0050337700450784,0.34509368905000626,B,596,Correct
1,relearn,35,674,B,57.472195760581386,45.04083104775402,2.873609788029069,0.7074997196560155,B,521,Correct
1,relearn,35,675,B,79.32452662662365,49.82180957621006,3.9662263313311827,0.7825991547658556,B,701,Correct
1,relearn,35,676,A,16.37192676724661,44.57195008972595,0.8185963383623305,0.7001345547902699,A,651,Correct
1,relearn,35,677,A,34.91273778980171,54.312333125118016,1.7456368894900856,0.8531361337259618,A,1170,Correct
1,relearn,35,678,B,36.22533246531672,18.94864964601006,1.8112666232658359,0.2976446926167602,B,972,Correct
1,relearn,35,679,B,47.95712912192964,19.63163214520375,2.3978564560964823,0.30837295662674663,B,643,Correct
1,relearn,35,680,A,49.9451055083151,65.15479284498575,2.497255275415755,1.0234490927398603,A,710,Correct
1,relearn,35,681,A,39.91277894146062,68.36847293569679,1.9956389470730311,1.0739294615596882,B,863,Incorrect
1,relearn,35,682,B,76.27304469290279,53.15658478171674,3.813652234645139,0.8349816812008216,B,638,Correct
1,relearn,35,683,A,57.92771714643844,83.38565635699962,2.8963858573219223,1.3098188271295652,A,934,Correct
1,relearn,35,684,B,63.747622214538175,48.095153287767545,3.1873811107269088,0.7554769012106276,B,465,Correct
1,relearn,35,685,B,82.0486403296299,68.49195613504375,4.102432016481496,1.075869131119239,A,670,Incorrect
1,relearn,35,686,B,60.251595055196965,36.55300975689414,3.0125797527598484,0.5741733345942733,B,467,Correct
1,relearn,35,687,B,34.59792755836134,20.685826709337775,1.729896377918067,0.32493220611743534,B,559,Correct
1,relearn,35,688,A,35.77983467002885,58.59380384019944,1.7889917335014422,0.9203893184512599,A,797,Correct
1,relearn,35,689,A,37.02073681673439,65.2686816826531,1.8510368408367197,1.0252380544185684,B,381,Incorrect
1,relearn,35,690,A,41.366767977584935,68.14634868562925,2.0683383988792468,1.0704403419987065,A,473,Correct
1,relearn,35,691,B,81.05713917217672,59.52561081939706,4.052856958608836,0.9350261082533146,A,944,Incorrect
1,relearn,35,692,A,36.01631562649555,43.4777874982062,1.8008157813247774,0.6829474889935138,A,623,Correct
1,relearn,35,693,A,34.69088179977262,58.46529052222367,1.734544089988631,0.9183706359730542,A,619,Correct
1,relearn,35,694,B,45.57104628782674,26.14797275689564,2.278552314391337,0.41073139559664695,B,1045,Correct
1,relearn,35,695,A,22.94135277793038,39.046245005164906,1.1470676388965189,0.6133369822924661,A,639,Correct
1,relearn,35,696,B,47.0763863738557,25.524090513539065,2.353819318692785,0.4009314762344763,B,403,Correct
1,relearn,35,697,A,18.169804621769767,43.06622532631795,0.9084902310884884,0.6764826855150159,A,639,Correct
1,relearn,35,698,A,64.74542453993976,78.65308838292853,3.2372712269969885,1.235479823229785,B,582,Incorrect
1,relearn,35,699,A,50.24445946546917,57.84956092973417,2.5122229732734582,0.9086987781512401,B,594,Incorrect
1,relearn,35,700,A,51.61913635489236,74.06657429734484,2.5809568177446183,1.1634350284455055,A,611,Correct
1,relearn,35,701,A,42.36684887320682,51.48322826103177,2.118342443660341,0.8086966584397192,A,438,Correct
1,relearn,35,702,B,87.57645368541296,67.0717508615235,4.378822684270648,1.0535605988498356,A,863,Incorrect
1,relearn,35,703,B,58.560388834383524,50.413192541093665,2.9280194417191763,0.7918885766555381,B,549,Correct
1,relearn,35,704,A,35.08322362721851,49.5788506464602,1.7541611813609252,0.7787827648217247,A,717,Correct
1,relearn,35,705,B,83.41627972379437,61.73403551631117,4.170813986189719,0.9697159622724726,B,661,Correct
1,relearn,35,706,A,15.026980471986285,34.23190362817771,0.7513490235993143,0.5377134847833844,B,1759,Incorrect
1,relearn,35,707,A,51.70097545462919,62.489923063727964,2.5850487727314597,0.9815894161019958,A,587,Correct
1,relearn,35,708,B,60.643854699850664,46.32728016804246,3.032192734992533,0.7277072151835916,B,1060,Correct
1,relearn,35,709,B,65.30055000433553,50.306514644298495,3.265027500216777,0.7902128841711776,B,627,Correct
1,relearn,35,710,B,45.683553679588755,29.76406662309354,2.2841776839794377,0.4675328652203391,B,522,Correct
1,relearn,35,711,B,70.85393536692742,59.072773971431175,3.542696768346371,0.9279129636790927,B,1618,Correct
1,relearn,35,712,A,56.6739648419567,83.9759279776782,2.833698242097835,1.319090792065297,A,568,Correct
1,relearn,35,713,A,32.07907894826289,63.32357365360647,1.6039539474131446,0.9946843689461112,A,655,Correct
1,relearn,35,714,B,45.248855842894216,21.564658812656457,2.262442792144711,0.3387368685150596,B,433,Correct
1,relearn,35,715,B,68.47282737209619,57.92777831771968,3.4236413686048093,0.9099274140086313,A,518,Incorrect
1,relearn,35,716,B,46.38952703289865,30.47233580152746,2.3194763516449326,0.47865833145899955,B,578,Correct
1,relearn,35,717,A,63.56860303294832,77.1042900956241,3.178430151647416,1.2111513566233445,B,748,Incorrect
1,relearn,35,718,B,63.66108850753654,36.33821819895235,3.1830544253768274,0.570799396691858,B,567,Correct
1,relearn,35,719,B,42.296768437198004,31.790281924954364,2.1148384218599,0.4993605807549251,A,736,Incorrect
1,relearn,35,720,B,67.03614453158782,39.4163695599163,3.351807226579391,0.6191508852030668,B,504,Correct
1,relearn,35,721,A,57.59117533343104,82.84835841380162,2.879558766671552,1.3013789707738666,A,827,Correct
1,relearn,35,722,A,29.08990438688844,38.475144153515544,1.454495219344422,0.6043661510924635,B,573,Incorrect
1,relearn,35,723,A,42.26926287463504,60.66386506055421,2.113463143731752,0.9529057640629982,A,750,Correct
1,relearn,35,724,A,22.67765324681919,49.86372386040372,1.1338826623409595,0.7832575428023718,A,482,Correct
1,relearn,35,725,B,35.28923392171632,20.55327549389481,1.764461696085816,0.32285009649413526,B,583,Correct
1,relearn,35,726,B,48.41569797783528,20.973077630264356,2.420784898891764,0.3294443330320347,A,578,Incorrect
1,relearn,35,727,B,49.79047095070876,32.5073027374954,2.489523547535438,0.5106235173406747,B,567,Correct
1,relearn,35,728,B,59.06207643481243,38.37336227978323,2.953103821740622,0.6027673651585334,B,675,Correct
1,relearn,35,729,B,73.10210009116444,43.397720828748525,3.6551050045582225,0.6816898046906855,B,548,Correct
1,relearn,35,730,A,58.615750510459634,69.8887682849602,2.9307875255229816,1.0978102050623513,A,701,Correct
1,relearn,35,731,B,47.41752482326125,24.431691655409274,2.370876241163063,0.3837721150970241,B,503,Correct
1,relearn,35,732,B,68.88957471329887,37.97192934442928,3.444478735664944,0.5964616713554486,B,552,Correct
1,relearn,35,733,A,19.614429167712842,42.33991537353776,0.9807214583856421,0.6650738354555987,A,586,Correct
1,relearn,35,734,B,78.99199446884015,55.343855302396705,3.9495997234420077,0.86933924619673,B,501,Correct
1,relearn,35,735,B,68.75999107177027,59.504818522035876,3.4379995535885137,0.9346995036101089,A,659,Incorrect
1,relearn,35,736,B,57.80634459647045,30.869170637634355,2.890317229823523,0.4848917984880092,B,492,Correct
1,relearn,35,737,B,42.22849512990155,30.984475923466874,2.1114247564950777,0.48670300968246677,B,624,Correct
1,relearn,35,738,B,41.159735065096754,17.448975108075953,2.0579867532548377,0.27408786006101293,B,402,Correct
1,relearn,35,739,A,16.882809324427164,46.46852608049373,0.8441404662213583,0.7299259007881239,A,576,Correct
1,relearn,35,740,A,66.43904488508805,86.04790387302133,3.3219522442544025,1.3516373133214226,B,299,Incorrect
1,relearn,35,741,B,74.71055467122713,64.47720743881666,3.7355277335613564,1.012805606068858,B,652,Correct
1,relearn,35,742,A,52.2466350693111,77.77446443988183,2.6123317534655546,1.2216784306060668,A,539,Correct
1,relearn,35,743,B,44.524893079067624,35.058298219778976,2.226244653953381,0.5506944606730887,B,502,Correct
1,relearn,35,744,A,27.048055755652484,56.25471183015417,1.3524027877826241,0.8836469470771159,A,331,Correct
1,relearn,35,745,A,41.91499681661704,56.09512186853855,2.095749840830852,0.8811401138221242,A,858,Correct
1,relearn,35,746,A,26.56255509525919,40.28090343590671,1.3281277547629593,0.6327309515710219,A,390,Correct
1,relearn,35,747,A,59.443277909690764,79.65245303858617,2.972163895484538,1.2511778065321415,B,580,Incorrect
1,relearn,35,748,B,54.60927241077966,24.992481630340343,2.7304636205389827,0.39258098342427533,B,616,Correct
1,relearn,35,749,A,38.852984995035655,58.961034994817346,1.9426492497517827,0.9261577719388444,A,886,Correct
1,relearn,35,750,B,46.73312675785821,20.515856562906343,2.33665633789291,0.3222623213006426,B,620,Correct
1,relearn,35,751,B,50.18575159748836,38.73401596335067,2.5092875798744183,0.6084324999724612,A,682,Incorrect
1,relearn,35,752,A,30.48446990937365,41.217085672065814,1.5242234954686824,0.6474364677487153,A,649,Correct
1,relearn,35,753,A,47.21163739003185,68.76004969370014,2.3605818695015923,1.0800803348909873,A,803,Correct
1,relearn,35,754,A,47.77403864552636,77.1758434856348,2.388701932276318,1.21227531464533,A,583,Correct
1,relearn,35,755,A,22.444093188576275,53.865191394097494,1.1222046594288138,0.8461124478395242,A,768,Correct
1,relearn,35,756,A,57.10719323636307,81.90276406340146,2.8553596618181536,1.2865256094514008,A,868,Correct
1,relearn,35,757,B,41.90467031080108,15.59052673365402,2.0952335155400537,0.2448954212602137,B,556,Correct
1,relearn,35,758,B,85.7252470306224,65.93717859918014,4.2862623515311205,1.0357387794281123,A,504,Incorrect
1,relearn,35,759,A,41.92242390656493,64.78767797906396,2.096121195328246,1.0176824659108428,A,680,Correct
1,relearn,35,760,B,40.33371602142839,20.292791976585082,2.0166858010714193,0.318758430972328,A,912,Incorrect
1,relearn,35,761,B,45.620429577171755,18.20795868755927,2.281021478858588,0.2860099462485133,B,455,Correct
1,relearn,35,762,A,22.16208488495737,44.233779984902924,1.1081042442478684,0.6948225912053912,A,595,Correct
1,relearn,35,763,B,35.617232881366405,12.316349002508794,1.7808616440683205,0.193464757726648,B,671,Correct
1,relearn,35,764,B,75.55629294206511,48.37100209384945,3.7778146471032557,0.7598099241240697,B,681,Correct
1,relearn,35,765,A,50.77687003277022,67.40690203555839,2.5388435016385107,1.0588251411807854,A,591,Correct
1,relearn,35,766,A,22.230868836296654,53.7637585612478,1.1115434418148327,0.8445191446269571,A,640,Correct
1,relearn,35,767,A,55.18546296662407,64.13377084295503,2.7592731483312036,1.007410916636194,B,908,Incorrect
1,relearn,35,768,B,79.42235032241123,59.99740451876741,3.971117516120562,0.9424370263530736,B,417,Correct
1,relearn,35,769,B,61.7905659023119,39.38744954094522,3.0895282951155947,0.6186966106073609,A,345,Incorrect
1,relearn,35,770,A,16.34503590559461,41.34383239144428,0.8172517952797306,0.6494274005610454,A,625,Correct
1,relearn,35,771,A,66.97908865294482,85.38556236242616,3.348954432647241,1.3412332772021558,B,538,Incorrect
1,relearn,35,772,A,24.955153899227586,37.76773936222072,1.2477576949613793,0.5932542626152334,A,545,Correct
1,relearn,35,773,B,63.79613979267116,32.23233783705716,3.189806989633558,0.5063043787846155,B,734,Correct
1,relearn,35,774,A,25.391301749042857,52.528831049781985,1.2695650874521427,0.8251209486382725,A,630,Correct
1,relearn,35,775,A,23.7071819877323,47.07623568503825,1.185359099386615,0.739471780933889,A,674,Correct
1,relearn,35,776,A,42.48624641560728,67.25698422847238,2.1243123207803642,1.0564702377738668,B,611,Incorrect
1,relearn,35,777,A,51.469455362413996,76.3108763259,2.5734727681207,1.1986884422722335,A,603,Correct
1,relearn,35,778,A,52.60677886585269,69.57542857666685,2.6303389432926343,1.0928882764340897,B,389,Incorrect
1,relearn,35,779,B,44.67278193932947,33.67733536703928,2.2336390969664732,0.5290023469078515,B,543,Correct
1,relearn,35,780,B,48.58726004479455,39.67061884512276,2.4293630022397275,0.6231446236359923,A,589,Incorrect
1,relearn,35,781,A,33.21825639264483,43.04998506899693,1.6609128196322416,0.6762275841495552,A,662,Correct
1,relearn,35,782,A,29.665542269073093,43.832074134209144,1.4832771134536546,0.6885126104581732,B,307,Incorrect
1,relearn,35,783,B,68.18433529347374,55.02521064638938,3.409216764673687,0.8643339876446389,B,369,Correct
1,relearn,35,784,A,32.66555573514827,63.924596234551565,1.6332777867574135,1.0041252095708049,A,440,Correct
1,relearn,35,785,A,58.864895054935516,66.91443521706569,2.943244752746776,1.0510894904852184,A,738,Correct
1,relearn,35,786,A,57.15906135513346,77.93392177048565,2.8579530677566733,1.2241831804979966,A,512,Correct
1,relearn,35,787,A,64.81556234561063,81.48179856270497,3.2407781172805312,1.2799130988293865,A,468,Correct
1,relearn,35,788,B,52.346946782678295,34.20067360380664,2.617347339133915,0.5372229247077065,B,437,Correct
1,relearn,35,789,B,83.0113978490197,58.435056068100124,4.150569892450985,0.9178957142782549,B,1005,Correct
1,relearn,35,790,B,43.755574686798965,21.519181401370037,2.1877787343399486,0.3380225110090511,A,582,Incorrect
1,relearn,35,791,A,53.064865421595634,71.4898491806533,2.6532432710797815,1.1229599249609135,A,492,Correct
1,relearn,35,792,A,35.88337888801226,68.7375271680906,1.794168944400613,1.0797265518860113,A,658,Correct
1,relearn,35,793,A,11.688042958492481,37.16751851443158,0.5844021479246241,0.5838260155855044,A,573,Correct
1,relearn,35,794,B,52.24782964317544,43.47144876579764,2.612391482158772,0.6828479204176747,B,487,Correct
1,relearn,35,795,B,49.438686986663534,29.556436563045057,2.4719343493331767,0.4642714198637755,B,618,Correct
1,relearn,35,796,B,48.73005676227383,28.934983521847315,2.4365028381136913,0.45450965831988616,B,464,Correct
1,relearn,35,797,A,33.14734813702813,50.42432026892919,1.6573674068514066,0.7920633705956344,A,573,Correct
1,relearn,35,798,A,20.744102912821674,38.57859917898184,1.0372051456410838,0.6059912188323728,A,485,Correct
1,relearn,35,799,B,83.01024331850994,55.61427838291481,4.150512165925496,0.8735870420123141,B,527,Correct
1,relearn,35,800,A,34.24655980970309,48.95771661255444,1.7123279904851545,0.7690260142326601,B,659,Incorrect
1,relearn,35,801,A,55.1725179915893,81.82760848201013,2.758625899579465,1.2853450683395244,B,605,Incorrect
1,relearn,35,802,A,59.179745013957486,85.55721549714463,2.958987250697874,1.3439295983371418,A,570,Correct
1,relearn,35,803,A,44.44652259881806,53.67317262927688,2.222326129940903,0.8430962241349649,B,650,Incorrect
1,relearn,35,804,A,58.390625115787216,79.77148308432851,2.9195312557893605,1.2530475261184446,B,973,Incorrect
1,relearn,35,805,A,34.55382409407832,43.25084575415814,1.7276912047039161,0.6793826964140426,A,506,Correct
1,relearn,35,806,A,30.530450893588082,51.800082720525594,1.526522544679404,0.813673796650734,A,522,Correct
1,relearn,35,807,B,64.89826250166536,50.91035236065985,3.244913125083268,0.7996979448395839,A,643,Incorrect
1,relearn,35,808,B,79.65566654341556,53.13639040361521,3.9827833271707784,0.8346644686513838,B,356,Correct
1,relearn,35,809,B,49.190138664030435,22.107750528099317,2.4595069332015216,0.3472677332323634,B,1127,Correct
1,relearn,35,810,A,35.24910892553853,66.63625477066677,1.7624554462769266,1.0467198422513226,A,689,Correct
1,relearn,35,811,B,55.05134972914369,43.660958383889,2.7525674864571847,0.6858247305375769,B,840,Correct
1,relearn,35,812,A,47.68565798361131,73.56512672172926,2.3842828991805654,1.155558308346934,A,1006,Correct
1,relearn,35,813,B,56.56608710306894,28.232299621537926,2.828304355153447,0.4434719254248473,B,643,Correct
1,relearn,35,814,A,13.945326549430977,40.47818171019216,0.6972663274715488,0.6358297914570621,A,645,Correct
1,relearn,35,815,A,57.00933400892657,68.22361603166337,2.8504667004463284,1.0716540546320223,B,2388,Incorrect
1,relearn,35,816,A,30.874766867556886,43.25307537183545,1.5437383433778444,0.6794177191666193,A,503,Correct
1,relearn,35,817,B,51.31815733689932,44.42957812817196,2.565907866844966,0.697898181247794,B,683,Correct
1,relearn,35,818,B,66.54950944933526,55.27058922249074,3.327475472466763,0.8681883853047806,B,458,Correct
1,relearn,35,819,A,23.831520886805027,47.32159281772139,1.1915760443402512,0.7433258417616051,A,535,Correct
1,relearn,35,820,A,52.086245817816575,62.235987199577444,2.604312290890829,0.9776006008755046,B,689,Incorrect
1,relearn,35,821,B,50.011686681102276,38.83616934763051,2.5005843340551137,0.6100371215804254,B,664,Correct
1,relearn,35,822,A,22.5821105433751,52.60529934446316,1.1291055271687551,0.826322109802287,A,433,Correct
1,relearn,35,823,B,34.37480242401844,10.216418380221938,1.7187401212009221,0.1604791246465249,B,846,Correct
1,relearn,35,824,A,35.18739893327229,61.261639030475976,1.7593699466636143,0.9622955756250653,A,563,Correct
1,relearn,35,825,A,33.84434116576623,47.540144416052044,1.6922170582883114,0.7467588422403346,B,1079,Incorrect
1,relearn,35,826,B,88.51511755500582,62.10478741633012,4.425755877750291,0.9755397194994926,B,729,Correct
1,relearn,35,827,B,46.91719406913935,21.88581379667341,2.3458597034569677,0.3437815592073166,A,683,Incorrect
1,relearn,35,828,A,18.62789471875588,43.10883452349951,0.931394735937794,0.6771519892192206,A,898,Correct
1,relearn,35,829,B,57.813647044828045,42.16964444830731,2.8906823522414022,0.6623992260164793,B,669,Correct
1,relearn,35,830,A,49.38374615868503,56.3100204529091,2.4691873079342512,0.884515732891751,B,975,Incorrect
1,relearn,35,831,A,45.43518424179283,52.52740202305917,2.2717592120896417,0.8250985015390017,B,693,Incorrect
1,relearn,35,832,A,16.46040847871138,33.65357945486263,0.8230204239355688,0.5286291899119842,A,449,Correct
1,relearn,35,833,B,42.73888655810664,20.374766299989584,2.136944327905332,0.3200460806332808,B,519,Correct
1,relearn,35,834,A,23.69412642119449,51.68159529632967,1.1847063210597244,0.8118126005437505,A,530,Correct
1,relearn,35,835,B,52.23292839673172,24.3595652698317,2.6116464198365863,0.3826391564817217,B,528,Correct
1,relearn,35,836,A,53.86498384655041,64.53351179120442,2.6932491923275204,1.0136900327679905,A,790,Correct
1,relearn,35,837,B,52.77073452851722,27.683480265388276,2.638536726425861,0.43485109113770903,B,594,Correct
1,relearn,35,838,B,35.86523712227317,18.67537619759653,1.7932618561136586,0.29335212332697475,B,715,Correct
1,relearn,35,839,B,40.651392500489386,27.153520592529937,2.032569625024469,0.4265265040629561,B,560,Correct
1,relearn,35,840,B,70.70571267096031,49.635155482692106,3.535285633548016,0.7796671991210633,A,646,Incorrect
1,relearn,35,841,A,53.14697936808307,65.7421188327537,2.657348968404154,1.032674787782031,A,501,Correct
1,relearn,35,842,B,71.51881513659983,44.39159289881079,3.5759407568299912,0.6973015106602641,B,2960,Correct
1,relearn,35,843,B,40.94336509536399,31.147048326810943,2.0471682547681995,0.4892566910225776,A,633,Incorrect
1,relearn,35,844,A,50.372636873196434,76.23651192826439,2.5186318436598216,1.1975203290457301,B,1130,Incorrect
1,relearn,35,845,A,17.103811765926775,46.402787193196225,0.8551905882963388,0.7288932767611791,A,695,Correct
1,relearn,35,846,B,75.80879792735446,53.097017434511464,3.7904398963677233,0.8340459994989519,B,581,Correct
1,relearn,35,847,A,25.477648396313622,47.19000306594215,1.273882419815681,0.7412588347742185,A,533,Correct
1,relearn,35,848,B,74.33005788075548,59.31060367253058,3.716502894037774,0.9316487838879894,B,311,Correct
1,relearn,35,849,B,39.747201004038004,24.624274439800597,1.9873600502019002,0.3867971984002824,A,387,Incorrect
1,relearn,35,850,A,28.280094925050733,56.145945266102174,1.4140047462525365,0.881938445884206,A,589,Correct
1,relearn,35,851,B,72.18683959598198,50.86184578652881,3.609341979799099,0.7989360053548793,B,396,Correct
1,relearn,35,852,A,23.693851087257165,46.499039134116785,1.1846925543628584,0.7304051987136277,A,830,Correct
1,relearn,35,853,B,34.72056096537781,23.068160364584152,1.7360280482688903,0.3623538156660441,B,495,Correct
1,relearn,35,854,A,12.895731684504103,34.39298869837137,0.6447865842252051,0.5402438031490014,A,602,Correct
1,relearn,35,855,B,62.316856856771196,51.42683279332575,3.11584284283856,0.8078108005045143,B,634,Correct
1,relearn,35,856,B,80.8814004336443,63.32109571492276,4.044070021682216,0.9946454455762872,A,742,Incorrect
1,relearn,35,857,B,52.956818986594506,33.95227874083337,2.6478409493297255,0.5333211473241751,B,538,Correct
1,relearn,35,858,B,40.98799783351984,31.583782627673134,2.049399891675992,0.4961168973783742,B,634,Correct
1,relearn,35,859,B,42.724890862094675,28.23740889834326,2.1362445431047337,0.4435521817572312,B,458,Correct
1,relearn,35,860,B,69.37814680239647,38.40924572704158,3.4689073401198236,0.6033310210299949,B,462,Correct
1,relearn,35,861,B,66.22782657270348,50.10102270601818,3.3113913286351737,0.7869850243528106,B,539,Correct
1,relearn,35,862,A,32.5140972456378,50.9148710603375,1.62570486228189,0.7997689244081392,A,601,Correct
1,relearn,35,863,A,28.254308958322575,49.11620114336186,1.4127154479161288,0.7715154834211211,A,453,Correct
1,relearn,35,864,B,79.34604090803509,58.449187920468816,3.9673020454017545,0.9181176968961706,B,613,Correct
1,relearn,35,865,B,40.88474315418277,14.935150000850516,2.044237157709139,0.23460078761466785,B,474,Correct
1,relearn,35,866,B,44.23384952095532,30.166526552103523,2.211692476047766,0.47385469100204936,A,614,Incorrect
1,relearn,35,867,B,71.03130153365495,61.06900863187573,3.551565076682748,0.9592697443995623,A,731,Incorrect
1,relearn,35,868,A,47.79186804650082,59.35640135431548,2.389593402325041,0.9323681721912239,A,530,Correct
1,relearn,35,869,B,79.98628259096662,67.47883651050387,3.9993141295483317,1.0599550852709283,B,465,Correct
1,relearn,35,870,A,35.81996793200399,68.04730084703625,1.7909983966001994,1.068884502188318,A,741,Correct
1,relearn,35,871,A,15.060188072999626,43.871483622686924,0.7530094036499813,0.6891316532555908,A,638,Correct
1,relearn,35,872,A,14.582454921979483,30.893626295443852,0.7291227460989742,0.48527594706257426,A,470,Correct
1,relearn,35,873,A,58.29975880680082,80.186472919945,2.914987940340041,1.2595661712128807,B,897,Incorrect
1,relearn,35,874,B,43.195279251034925,17.816347763747558,2.159763962551746,0.27985853624195134,B,654,Correct
1,relearn,35,875,B,53.13615779549731,37.681144958230625,2.6568078897748655,0.591894040898147,B,979,Correct
1,relearn,35,876,B,85.35740338769317,59.26784548143593,4.267870169384659,0.9309771397928708,A,538,Incorrect
1,relearn,35,877,B,85.39561791454,57.95374347537067,4.269780895727,0.9103352737512594,B,518,Correct
1,relearn,35,878,B,32.15754284025884,14.874563322961077,1.6078771420129419,0.2336490943038535,A,825,Incorrect
1,relearn,35,879,B,39.93291363247002,22.653991734171203,1.996645681623501,0.35584807003278074,B,892,Correct
1,relearn,35,880,A,39.525977084106685,70.27123567245738,1.9762988542053341,1.1038179887363455,A,525,Correct
1,relearn,35,881,B,60.952669011740696,39.557589848592855,3.0476334505870346,0.6213691683102874,B,646,Correct
1,relearn,35,882,A,32.84595626940469,43.66756594218717,1.6422978134702344,0.6859285218206154,A,671,Correct
1,relearn,35,883,A,32.00765642947417,45.92577721950052,1.6003828214737084,0.7214004216159215,B,1238,Incorrect
1,relearn,35,884,B,73.10008743095,62.26985801611616,3.6550043715475,0.97813264241755,B,908,Correct
1,relearn,35,885,B,84.53282493712763,54.61192521928778,4.226641246856381,0.8578421153365481,B,662,Correct
1,relearn,35,886,A,27.4477264096079,42.98927747181372,1.372386320480395,0.6752739914429159,A,797,Correct
1,relearn,35,887,B,61.68073706567268,49.543514582395574,3.0840368532836338,0.7782277072253638,B,467,Correct
1,relearn,35,888,A,43.01223106595659,57.473093722293626,2.15061155329783,0.9027852450851764,A,818,Correct
1,relearn,35,889,B,50.68725704413907,32.945753646007034,2.5343628522069537,0.5175106881063742,B,346,Correct
1,relearn,35,890,B,64.61413629573832,44.6743615724427,3.230706814786916,0.7017432305990007,B,567,Correct
1,relearn,35,891,A,25.95099105857447,50.10284782964325,1.2975495529287235,0.7870136933276727,A,489,Correct
1,relearn,35,892,B,73.07068531397444,47.58067922571702,3.6535342656987218,0.7473955615416253,B,476,Correct
1,relearn,35,893,B,52.53773279950473,39.31419647219029,2.626886639975236,0.6175459540940939,B,1010,Correct
1,relearn,35,894,B,75.81320043091458,51.90673183043337,3.7906600215457287,0.8153490369517248,B,546,Correct
1,relearn,35,895,B,86.25003189515336,68.02663275547312,4.312501594757668,1.0685598485652257,B,504,Correct
1,relearn,35,896,A,33.5929231718848,65.88023710976941,1.67964615859424,1.0348443446040263,A,492,Correct
1,relearn,35,897,B,51.98446999675249,37.16065979799464,2.5992234998376245,0.5837182791196476,B,508,Correct
1,relearn,35,898,A,41.06081074131164,68.15353715527098,2.053040537065582,1.0705532582157917,A,773,Correct
