experiment,condition,subject,trial,cat,x,y,xt,yt,resp,rt,fb
1,new_learn,30,0,B,74.42811558056643,51.81937246535614,3.7214057790283217,0.8139767992539803,B,2415,Correct
1,new_learn,30,1,A,18.730825863595292,42.31782382145452,0.9365412931797646,0.6647268221669432,A,2496,Correct
1,new_learn,30,2,B,62.39353803908487,39.632436197880814,3.119676901954244,0.6225448520156428,B,806,Correct
1,new_learn,30,3,B,34.38492739276565,19.25498239759999,1.7192463696382823,0.3024565562265045,A,1470,Incorrect
1,new_learn,30,4,A,48.70767809992678,58.42890003860533,2.435383904996339,0.9177990155930743,B,1358,Incorrect
1,new_learn,30,5,B,46.34207068158971,32.460249291884175,2.3171035340794854,0.5098844035453831,A,1650,Incorrect
1,new_learn,30,6,A,13.088252727735007,38.70035907955943,0.6544126363867504,0.6079038188781548,A,1137,Correct
1,new_learn,30,7,B,48.867531464620384,26.68722002672071,2.4433765732310193,0.4192018719034009,B,947,Correct
1,new_learn,30,8,B,61.560390384630225,29.881287047765785,3.0780195192315114,0.4693741593453441,B,1284,Correct
1,new_learn,30,9,A,54.144606574598114,72.90015022560326,2.707230328729906,1.1451128819717376,B,1268,Incorrect
1,new_learn,30,10,B,76.23672806177701,46.71415831257985,3.8118364030888507,0.7337842828671572,B,1013,Correct
1,new_learn,30,11,B,78.29719418324427,59.55548263908433,3.9148597091622137,0.9354953336997089,A,1595,Incorrect
1,new_learn,30,12,A,56.69883108418145,80.99504263146592,2.8349415542090726,1.2722671545410273,B,1205,Incorrect
1,new_learn,30,13,A,43.45231719645017,72.86161731314996,2.1726158598225083,1.1445076083983141,A,2395,Correct
1,new_learn,30,14,A,13.994819002369987,40.78106328079556,0.6997409501184992,0.6405874440426389,A,3379,Correct
1,new_learn,30,15,B,44.891962592679505,23.960958189611805,2.2445981296339754,0.37637785110728317,B,824,Correct
1,new_learn,30,16,A,50.33675965807086,74.07048716181026,2.516837982903543,1.1634964915768011,A,803,Correct
1,new_learn,30,17,B,78.53095336738491,60.36285135155849,3.926547668369245,0.9481774517789445,B,1122,Correct
1,new_learn,30,18,B,50.633868490108185,28.96471762126106,2.5316934245054092,0.4549767204612829,B,1665,Correct
1,new_learn,30,19,A,50.91335461322362,60.54684486083367,2.545667730661181,0.9510676150641798,A,1168,Correct
1,new_learn,30,20,A,30.184413326314207,48.9389921547272,1.5092206663157102,0.7687318911368974,A,2420,Correct
1,new_learn,30,21,B,62.622143453075395,52.86579884853934,3.13110717265377,0.8304140264436346,B,1711,Correct
1,new_learn,30,22,B,60.84007296130092,41.96286050491825,3.042003648065046,0.6591510714293223,B,1087,Correct
1,new_learn,30,23,B,70.8091175744076,44.51638921676887,3.5404558787203797,0.6992618066387248,B,952,Correct
1,new_learn,30,24,B,50.60038826651598,28.34260134102359,2.5300194133257987,0.4452045407829196,B,3299,Correct
1,new_learn,30,25,A,47.83823658864331,70.67042206688912,2.391911829432166,1.1100883939571442,A,1226,Correct
1,new_learn,30,26,A,53.27614195989777,74.78028088672463,2.6638070979948885,1.1746459053355767,A,741,Correct
1,new_learn,30,27,A,20.249484209153962,41.403848670559675,1.012474210457698,0.650370134068869,A,2009,Correct
1,new_learn,30,28,B,52.74593221466025,23.31512512676323,2.6372966107330127,0.3662331290788308,B,1986,Correct
1,new_learn,30,29,A,39.90743562033502,53.12850154310277,1.9953717810167513,0.8345405507202284,A,1393,Correct
1,new_learn,30,30,B,89.06034597541188,65.31272243602787,4.453017298770594,1.0259298449548722,A,1409,Incorrect
1,new_learn,30,31,A,61.19533974052649,83.32760551217737,3.0597669870263244,1.308906966591424,A,1263,Correct
1,new_learn,30,32,B,35.576656047259135,25.066701545673897,1.7788328023629567,0.3937468271280852,B,1552,Correct
1,new_learn,30,33,B,85.64305141880219,61.52993441912976,4.282152570940109,0.9665099497349989,B,2271,Correct
1,new_learn,30,34,A,43.73715083716013,54.270051134433366,2.1868575418580063,0.8524719697693914,A,3454,Correct
1,new_learn,30,35,A,32.25382472345746,55.37536773086414,1.6126912361728731,0.8698342422655804,B,929,Incorrect
1,new_learn,30,36,B,53.21907347587937,32.34952484255447,2.6609536737939687,0.5081451479624483,B,1601,Correct
1,new_learn,30,37,B,40.692879865429575,29.152728334483072,2.034643993271479,0.4579299858385551,A,1764,Incorrect
1,new_learn,30,38,A,11.537006468437891,38.21247390568014,0.5768503234218946,0.600240136487882,A,884,Correct
1,new_learn,30,39,B,83.2218183585976,66.72853221801051,4.16109091792988,1.0481693330046584,B,1380,Correct
1,new_learn,30,40,A,40.32630814138973,68.28731180004907,2.0163154070694866,1.0726545854221488,A,1713,Correct
1,new_learn,30,41,B,54.45049811226122,26.75004634209575,2.722524905613061,0.4201887453575726,B,1235,Correct
1,new_learn,30,42,A,64.87406122141428,88.040799509875,3.2437030610707143,1.3829416447819758,A,950,Correct
1,new_learn,30,43,A,29.12245842009552,48.451204337782464,1.456122921004776,0.7610697380257765,B,1624,Incorrect
1,new_learn,30,44,A,62.176331173604524,78.54657388301692,3.108816558680226,1.2338066973776693,B,754,Incorrect
1,new_learn,30,45,A,45.924997097607445,69.92037553590554,2.2962498548803723,1.0983066905992016,A,960,Correct
1,new_learn,30,46,B,64.17574046754008,46.90181606741538,3.2087870233770044,0.7367320039870595,A,782,Incorrect
1,new_learn,30,47,B,86.30459413723966,69.20166436628098,4.315229706861983,1.0870172019464746,B,506,Correct
1,new_learn,30,48,B,70.53854313189838,57.07555726762892,3.526927156594919,0.8965407570576327,B,684,Correct
1,new_learn,30,49,B,33.642938191915775,12.345119765577092,1.6821469095957888,0.19391668781611568,A,1121,Incorrect
1,new_learn,30,50,A,35.72021768305043,58.91764784806045,1.7860108841525215,0.9254762482312859,A,907,Correct
1,new_learn,30,51,A,37.14529360662388,54.57010789619191,1.857264680331194,0.8571852503613943,A,1398,Correct
1,new_learn,30,52,A,27.34473935373814,41.651652356762355,1.367236967686907,0.654262625269403,A,1507,Correct
1,new_learn,30,53,B,79.94452408912377,50.04010292706012,3.997226204456189,0.7860280987026458,B,740,Correct
1,new_learn,30,54,A,19.597660803763688,48.301614621736334,0.9798830401881844,0.758719988260861,A,1064,Correct
1,new_learn,30,55,A,25.470522260060886,46.97153408566432,1.2735261130030444,0.7378271320568278,A,792,Correct
1,new_learn,30,56,B,68.3908409945816,53.562864907691065,3.41954204972908,0.8413635144961238,B,764,Correct
1,new_learn,30,57,A,13.010877915674062,33.709786108697685,0.6505438957837031,0.5295120819658395,A,1215,Correct
1,new_learn,30,58,A,42.52988121100546,65.4307027553613,2.126494060550273,1.0277830754773025,A,1095,Correct
1,new_learn,30,59,A,25.737923092107053,43.441484612431765,1.2868961546053526,0.6823772445972484,A,1069,Correct
1,new_learn,30,60,A,46.95607905607842,66.87694851791754,2.347803952803921,1.0505006507919628,A,953,Correct
1,new_learn,30,61,B,38.9224890809583,26.714483759913087,1.9461244540479152,0.41963012962293395,A,567,Incorrect
1,new_learn,30,62,A,56.11337986519393,70.3109922874489,2.8056689932596965,1.1044424841842904,A,1333,Correct
1,new_learn,30,63,B,85.2018979261398,60.68992037731804,4.26009489630699,0.9533150400216592,B,645,Correct
1,new_learn,30,64,B,63.320321301314785,48.34132507262326,3.1660160650657394,0.7593437585647466,B,528,Correct
1,new_learn,30,65,B,58.86495579627988,39.767666166486556,2.9432477898139937,0.6246690393952277,B,532,Correct
1,new_learn,30,66,A,33.46152241771051,59.25434052582146,1.6730761208855256,0.9307650044461433,A,2214,Correct
1,new_learn,30,67,B,65.02390592859923,41.415803649389886,3.2511952964299615,0.6505579224372031,B,643,Correct
1,new_learn,30,68,B,80.89369181839078,57.98569507830872,4.044684590919539,0.9108371683565625,B,571,Correct
1,new_learn,30,69,A,35.19940048672827,45.31874060147517,1.7599700243364138,0.7118651127176795,A,921,Correct
1,new_learn,30,70,A,44.78137151901102,62.79873321587828,2.239068575950551,0.9864401946287427,B,766,Incorrect
1,new_learn,30,71,B,79.36404800620392,66.90589984670211,3.968202400310196,1.050955417201069,B,1236,Correct
1,new_learn,30,72,A,45.101978364021946,65.08671049747493,2.255098918201097,1.0223796577259645,A,2278,Correct
1,new_learn,30,73,A,43.78640662722576,54.6559310326334,2.1893203313612877,0.8585333570361574,A,643,Correct
1,new_learn,30,74,A,15.012355598631508,30.520292353997263,0.7506177799315753,0.4794116312236527,A,605,Correct
1,new_learn,30,75,A,44.2507785469756,54.214478152679,2.21253892734878,0.8515990314133035,A,828,Correct
1,new_learn,30,76,A,20.36647265471549,33.853382714306164,1.0183236327357745,0.5317676921721397,A,888,Correct
1,new_learn,30,77,B,44.74608505163995,19.592854081801384,2.237304252581998,0.30776383223122006,A,1044,Incorrect
1,new_learn,30,78,B,63.09040567592174,45.28361764767338,3.154520283796087,0.7113134026494989,B,640,Correct
1,new_learn,30,79,B,58.128703051791945,32.14232143057036,2.906435152589597,0.5048904043780081,B,568,Correct
1,new_learn,30,80,B,74.98837501956302,61.101782414027966,3.749418750978151,0.9597845537657613,B,694,Correct
1,new_learn,30,81,A,21.746568916511695,42.64687656059451,1.0873284458255847,0.6698955705065722,A,1558,Correct
1,new_learn,30,82,A,37.48456224831741,64.61113578289613,1.8742281124158706,1.0149093475781954,A,718,Correct
1,new_learn,30,83,A,23.3342498264305,52.50178829696385,1.166712491321525,0.824696162070341,A,654,Correct
1,new_learn,30,84,B,65.43715276852801,54.05052518352141,3.2718576384264004,0.8490236641961048,B,623,Correct
1,new_learn,30,85,A,45.55925893817638,70.10181769685066,2.277962946908819,1.1011567773985849,B,958,Incorrect
1,new_learn,30,86,B,42.31078924681683,31.34889600932528,2.1155394623408417,0.49242730700523346,B,1955,Correct
1,new_learn,30,87,B,54.1873219661321,35.23213302371374,2.7093660983066052,0.5534250513879871,B,553,Correct
1,new_learn,30,88,B,57.25274965691489,44.54681696050528,2.862637482845744,0.6997397645196629,B,612,Correct
1,new_learn,30,89,A,62.824006003971,79.689342850569,3.14120030019855,1.2517572703437294,B,555,Incorrect
1,new_learn,30,90,B,39.59146074149382,25.13988890633913,1.979573037074691,0.3948964515010928,A,1037,Incorrect
1,new_learn,30,91,B,71.67929484571377,58.84779185550711,3.583964742285689,0.924378952866212,B,538,Correct
1,new_learn,30,92,B,50.6086220349479,22.160909726549168,2.530431101747395,0.3481027559689673,A,1045,Incorrect
1,new_learn,30,93,B,54.38366693113617,39.40113051088225,2.7191833465568083,0.6189115107806016,B,566,Correct
1,new_learn,30,94,B,39.89895966536996,17.79050124307028,1.9949479832684978,0.27945254004454834,B,580,Correct
1,new_learn,30,95,B,60.187614876679156,31.717598831554536,3.0093807438339577,0.49821887739359966,B,613,Correct
1,new_learn,30,96,A,60.96784106328889,84.43887313532595,3.0483920531644446,1.3263627175967025,B,610,Incorrect
1,new_learn,30,97,B,69.94795692188777,46.18034159174502,3.4973978460943886,0.7253991094244665,B,613,Correct
1,new_learn,30,98,B,40.27501446468718,13.339290803680584,2.013750723234359,0.20953308996470404,A,832,Incorrect
1,new_learn,30,99,B,77.5534436289318,49.36747215617208,3.87767218144659,0.7754624392606443,B,825,Correct
1,new_learn,30,100,B,52.670237587666804,29.088692145319307,2.6335118793833403,0.4569241077313513,B,1007,Correct
1,new_learn,30,101,B,47.65863128413831,26.03441442258159,2.3829315642069155,0.4089476254524724,B,618,Correct
1,new_learn,30,102,A,66.11032057618905,88.40295697270102,3.3055160288094525,1.3886304009052604,B,614,Incorrect
1,new_learn,30,103,B,64.34124209155219,36.74839086341071,3.2170621045776095,0.5772423738386868,B,786,Correct
1,new_learn,30,104,B,77.39430610803083,65.45942464863694,3.8697153054015416,1.0282342379218623,A,1137,Incorrect
1,new_learn,30,105,B,53.09380024860776,28.255102052248944,2.654690012430388,0.44383010516887583,B,1260,Correct
1,new_learn,30,106,B,67.95866891714398,37.615560660399225,3.3979334458571993,0.5908638451568572,B,724,Correct
1,new_learn,30,107,A,54.41567106357188,66.13113631489752,2.720783553178594,1.0387854601021362,B,478,Incorrect
1,new_learn,30,108,A,38.005445059545515,63.08076161361796,1.9002722529772758,0.9908702863409561,A,742,Correct
1,new_learn,30,109,B,64.23027199571304,56.21761684622407,3.2115135997856523,0.8830642604321165,B,1109,Correct
1,new_learn,30,110,B,77.83140771810096,48.01122045777056,3.8915703859050486,0.75415848740006,B,529,Correct
1,new_learn,30,111,B,81.96901340042285,52.24607882956961,4.098450670021142,0.8206794871492457,B,633,Correct
1,new_learn,30,112,A,37.072374525347556,59.916131019274495,1.8536187262673778,0.9411603852083814,A,1014,Correct
1,new_learn,30,113,B,53.548338889967624,46.90212740311022,2.6774169444983813,0.736736894436718,B,2131,Correct
1,new_learn,30,114,B,84.45705606585418,57.93220620233958,4.222852803292709,0.9099969670575955,B,611,Correct
1,new_learn,30,115,A,36.106600949013156,56.7991085865749,1.805330047450658,0.8921983113301634,A,2831,Correct
1,new_learn,30,116,B,66.71336654108285,41.517301934515814,3.3356683270541425,0.6521522537717209,B,1171,Correct
1,new_learn,30,117,A,16.88200885671271,46.848971749307914,0.8441004428356353,0.7359019273793075,A,710,Correct
1,new_learn,30,118,A,57.65366787019977,86.11457443306995,2.8826833935099887,1.3526845720297196,A,1179,Correct
1,new_learn,30,119,A,49.2933155060571,71.52989755801704,2.464665775302855,1.1235890034014842,B,1150,Incorrect
1,new_learn,30,120,B,50.735918205075976,30.687525871440762,2.5367959102537987,0.482038529172825,B,4397,Correct
1,new_learn,30,121,B,80.83893372467656,54.209593196466024,4.041946686233828,0.8515222987005445,B,655,Correct
1,new_learn,30,122,B,43.554013732118506,27.259412617472748,2.177700686605925,0.42818985210112653,B,2113,Correct
1,new_learn,30,123,B,71.11411513916096,53.95002838904127,3.555705756958048,0.8474450642398643,B,1541,Correct
1,new_learn,30,124,B,59.64559370927393,51.271001455363674,2.9822796854636966,0.8053630075718106,B,751,Correct
1,new_learn,30,125,B,78.5004720365668,65.37137473905372,3.9250236018283404,1.0268511531763826,B,632,Correct
1,new_learn,30,126,B,81.37242477814505,53.169048594821255,4.0686212389072525,0.835177462319246,B,730,Correct
1,new_learn,30,127,A,45.17886630571617,67.28499263755904,2.2589433152858085,1.056910192834994,B,921,Incorrect
1,new_learn,30,128,A,35.884907115791975,59.24673600502079,1.7942453557895988,0.9306455529127361,A,964,Correct
1,new_learn,30,129,A,23.034447119106108,43.641159542818116,1.1517223559553054,0.6855137310692874,A,609,Correct
1,new_learn,30,130,B,46.262791980443914,22.499200088549024,2.313139599022196,0.3534166085491621,A,878,Incorrect
1,new_learn,30,131,B,71.51853210334222,60.26622562830667,3.5759266051671115,0.9466596584673658,B,1243,Correct
1,new_learn,30,132,A,55.497417452418,64.00305955889233,2.7748708726209,1.0053577085874308,B,839,Incorrect
1,new_learn,30,133,A,25.74403452615688,36.79136520165036,1.2872017263078441,0.5779174131652195,A,1108,Correct
1,new_learn,30,134,B,85.75346495250633,59.70194362064558,4.2876732476253165,0.9377959374182607,B,954,Correct
1,new_learn,30,135,A,64.36672474702894,81.03531487967183,3.218336237351447,1.2728997495365633,A,1223,Correct
1,new_learn,30,136,A,35.5679368602882,54.78421744122125,1.77839684301441,0.8605484752300326,B,1658,Incorrect
1,new_learn,30,137,B,55.05827728914539,42.65567500381728,2.7529138644572693,0.6700337761295306,B,1038,Correct
1,new_learn,30,138,A,33.11664311022098,58.16520241204565,1.655832155511049,0.9136568629612297,A,1421,Correct
1,new_learn,30,139,A,15.941637808892263,37.77254035108329,0.7970818904446132,0.5933296763719365,A,818,Correct
1,new_learn,30,140,B,58.9647225220276,28.082062171989172,2.94823612610138,0.44111200108586507,B,1011,Correct
1,new_learn,30,141,B,44.78048200533796,19.741550045943203,2.2390241002668976,0.310099542974052,B,1603,Correct
1,new_learn,30,142,A,58.98992579609941,86.55074501607157,2.949496289804971,1.3595359235260693,B,1157,Incorrect
1,new_learn,30,143,B,62.163304692489,31.771022891623034,3.1081652346244497,0.4990580605667803,B,753,Correct
1,new_learn,30,144,A,53.59461746015352,76.47871850255575,2.679730873007676,1.2013249010179547,A,990,Correct
1,new_learn,30,145,B,54.507144039424325,40.77957188243456,2.7253572019712164,0.6405640172119664,B,835,Correct
1,new_learn,30,146,A,47.62927024013371,76.52331501290337,2.381463512006685,1.2020254213643737,A,579,Correct
1,new_learn,30,147,A,28.01456233895656,60.27870829310577,1.4007281169478278,0.946855735707516,A,923,Correct
1,new_learn,30,148,B,56.33614285690146,29.085725958447618,2.816807142845073,0.4568775149769249,B,1052,Correct
1,new_learn,30,149,A,42.45443288041882,71.48518685902638,2.1227216440209413,1.1228866893840546,B,859,Incorrect
1,new_learn,30,150,A,54.46378266502962,76.08738547682768,2.723189133251481,1.1951778562242825,A,577,Correct
1,new_learn,30,151,B,71.56496474123304,49.32015611803865,3.578248237061652,0.7747192006716597,B,718,Correct
1,new_learn,30,152,A,33.839649114968694,60.808215799644806,1.6919824557484346,0.9551732201703347,A,1329,Correct
1,new_learn,30,153,A,19.974358870087,33.472335162542834,0.99871794350435,0.5257822112256995,A,593,Correct
1,new_learn,30,154,B,52.00910583148871,35.95164195609331,2.6004552915744354,0.5647270712687666,B,919,Correct
1,new_learn,30,155,A,50.77508906221536,58.440886131026296,2.538754453110768,0.9179872926925493,B,1212,Incorrect
1,new_learn,30,156,B,71.80964491772507,53.16021529583381,3.5904822458862533,0.8350387091832162,B,705,Correct
1,new_learn,30,157,B,39.096785460713846,18.747698491546213,1.9548392730356923,0.29448815926379013,A,755,Incorrect
1,new_learn,30,158,B,62.81469088261457,30.452372757043687,3.1407345441307286,0.478344752689532,B,926,Correct
1,new_learn,30,159,A,39.478371768921974,70.32005237003872,1.9739185884460988,1.1045847996288158,B,1633,Incorrect
1,new_learn,30,160,A,14.846676284505516,44.38761877262145,0.7423338142252759,0.6972390852320597,A,760,Correct
1,new_learn,30,161,B,67.93490596263665,37.618184513407286,3.3967452981318327,0.5909050605435282,B,770,Correct
1,new_learn,30,162,B,77.03358254915366,47.24303948044502,3.8516791274576834,0.742091928825093,B,628,Correct
1,new_learn,30,163,A,53.580731334542406,81.61857845409514,2.6790365667271203,1.2820616323391374,A,946,Correct
1,new_learn,30,164,A,54.28496988598795,67.1183185400547,2.7142484942993974,1.0542920822336772,A,2367,Correct
1,new_learn,30,165,A,40.23637728954546,63.42064874892167,2.0118188644772728,0.9962092209775549,A,781,Correct
1,new_learn,30,166,B,52.894815969386556,32.05700616862329,2.644740798469328,0.5035502753771481,B,757,Correct
1,new_learn,30,167,A,40.66425782897615,48.93859078584751,2.033212891448807,0.7687255864492785,A,886,Correct
1,new_learn,30,168,A,44.93452588629892,63.430235913925316,2.246726294314946,0.9963598158132763,A,2927,Correct
1,new_learn,30,169,A,12.007217683431541,32.827050431902684,0.6003608841715771,0.5156461023794356,A,776,Correct
1,new_learn,30,170,B,73.75504588160784,50.15271565920749,3.6877522940803917,0.7877970153627202,B,652,Correct
1,new_learn,30,171,A,48.94970990191271,68.79738193484788,2.4474854950956355,1.0806667483636463,A,688,Correct
1,new_learn,30,172,A,33.65898547456563,64.17197153324585,1.6829492737282816,1.0080109716760925,A,2961,Correct
1,new_learn,30,173,A,21.807983404690358,35.22414017570773,1.090399170234518,0.5532995000251024,A,624,Correct
1,new_learn,30,174,B,65.45474144118134,47.844380944212645,3.272737072059067,0.7515377784494496,B,1754,Correct
1,new_learn,30,175,B,82.42875201115177,56.19113849970442,4.121437600557589,0.8826483395375899,B,2422,Correct
1,new_learn,30,176,A,23.35549927435576,35.024617170152,1.167774963717788,0.5501653999827222,A,859,Correct
1,new_learn,30,177,B,50.716216245849466,36.610459263238226,2.5358108122924734,0.575075749329688,B,1594,Correct
1,new_learn,30,178,B,68.24618218004032,41.98867271918794,3.412309109002016,0.6595565287429349,B,717,Correct
1,new_learn,30,179,A,47.68259074388771,73.40479063275882,2.3841295371943856,1.1530397549508598,A,1041,Correct
1,new_learn,30,180,B,70.46359402618137,39.193552373185774,3.523179701309068,0.6156508810184362,B,756,Correct
1,new_learn,30,181,A,50.08370092653935,63.46776436995508,2.5041850463269673,0.9969493114220944,A,1754,Correct
1,new_learn,30,182,A,34.109884689659495,66.68128488836379,1.7054942344829749,1.047427173686059,A,1035,Correct
1,new_learn,30,183,A,34.695171558565846,51.074134392220856,1.7347585779282924,0.8022706269752942,A,706,Correct
1,new_learn,30,184,A,54.462623170641514,66.26517222157635,2.723131158532076,1.0408908912008334,A,1059,Correct
1,new_learn,30,185,A,18.34231114499946,43.80605881071074,0.917115557249973,0.6881039627122564,A,850,Correct
1,new_learn,30,186,B,52.828797440025646,25.396550248855117,2.641439872001282,0.3989280784416363,B,2465,Correct
1,new_learn,30,187,B,66.25674924951254,51.34290761019132,3.312837462475627,0.8064925068105827,B,1272,Correct
1,new_learn,30,188,B,84.08781146919353,60.44271243364747,4.204390573459676,0.9494319067229368,B,1357,Correct
1,new_learn,30,189,A,49.86067684289462,76.83865281945366,2.4930338421447313,1.2069787360466613,A,858,Correct
1,new_learn,30,190,B,68.44222774295355,46.14061809224837,3.4221113871476776,0.7247751341534988,B,1109,Correct
1,new_learn,30,191,A,48.05932615267931,55.695364826046855,2.4029663076339656,0.8748607448825609,A,1213,Correct
1,new_learn,30,192,A,17.810956253529458,38.361019881763596,0.8905478126764729,0.6025734912238025,A,623,Correct
1,new_learn,30,193,A,51.90946289741962,76.98880215225901,2.595473144870981,1.2093372762510748,A,2306,Correct
1,new_learn,30,194,B,43.271288393924564,20.128279621616965,2.1635644196962285,0.316174276943365,B,1356,Correct
1,new_learn,30,195,A,16.415624910551244,40.173514784819936,0.8207812455275623,0.6310440945843563,A,629,Correct
1,new_learn,30,196,A,24.504126856722607,43.894059636504494,1.2252063428361304,0.689486276451374,A,688,Correct
1,new_learn,30,197,A,32.112734372562265,62.724748462262134,1.6056367186281133,0.9852780448365519,A,1333,Correct
1,new_learn,30,198,B,53.22486694469147,22.51423999437787,2.661243347234574,0.35365285483747516,B,2767,Correct
1,new_learn,30,199,A,12.140227902566387,36.99936582695617,0.6070113951283194,0.5811846793472337,A,662,Correct
1,new_learn,30,200,B,82.99988172396618,64.81641461245603,4.1499940861983085,1.01813385989261,B,3246,Correct
1,new_learn,30,201,A,16.20252913026223,33.1123175418013,0.8101264565131117,0.5201270676632771,A,912,Correct
1,new_learn,30,202,A,34.96568863679369,58.69311721898059,1.7482844318396846,0.92194932935717,A,1957,Correct
1,new_learn,30,203,B,47.18263132254633,32.926869311207035,2.3591315661273167,0.5172140536689961,B,1080,Correct
1,new_learn,30,204,A,36.26283740906549,59.42536143901705,1.8131418704532747,0.9334513946686708,B,769,Incorrect
1,new_learn,30,205,A,26.746492359297957,46.058384874000424,1.3373246179648979,0.723483417781855,A,934,Correct
1,new_learn,30,206,B,61.777630472096625,36.88465600215032,3.0888815236048313,0.5793828216327106,B,1229,Correct
1,new_learn,30,207,B,53.496483758577206,34.76243049286818,2.6748241879288606,0.5460469812866025,B,747,Correct
1,new_learn,30,208,A,27.71693785357251,58.78844416399145,1.3858468926786256,0.9234467215078465,A,1708,Correct
1,new_learn,30,209,B,33.22352246593748,18.642884653656647,1.661176123296874,0.2928417473482481,A,1583,Incorrect
1,new_learn,30,210,A,68.69834297429965,82.80871858592262,3.434917148714982,1.3007563098135952,A,1088,Correct
1,new_learn,30,211,A,63.34335613430858,74.76580014041593,3.1671678067154287,1.1744184423044672,A,1011,Correct
1,new_learn,30,212,A,11.025501206609817,35.75847868043035,0.5512750603304909,0.5616928696299361,A,728,Correct
1,new_learn,30,213,A,47.858844460550515,71.15904409221491,2.392942223027526,1.1177636507828728,A,1795,Correct
1,new_learn,30,214,B,72.9933312957293,51.392310938638545,3.6496665647864655,0.8072685324791462,A,895,Incorrect
1,new_learn,30,215,B,63.89276668799065,44.49016707849775,3.1946383343995324,0.698849910253955,B,1575,Correct
1,new_learn,30,216,B,55.2800253946736,38.33932849337499,2.76400126973368,0.6022327636917635,B,617,Correct
1,new_learn,30,217,B,66.3394330360073,51.74134250567478,3.316971651800366,0.8127511075135058,B,876,Correct
1,new_learn,30,218,A,52.88838211951948,80.43775557485701,2.644419105975974,1.2635133099261109,A,828,Correct
1,new_learn,30,219,A,34.95452872823475,55.13149666686162,1.7477264364117375,0.8660035245501132,A,1573,Correct
1,new_learn,30,220,B,63.136757248296355,48.6083084878572,3.1568378624148177,0.7635375242443929,A,1209,Incorrect
1,new_learn,30,221,B,64.61327683924551,45.63507515197404,3.2306638419622753,0.7168340842172987,B,626,Correct
1,new_learn,30,222,B,69.00696270293885,51.88758892068314,3.4503481351469425,0.8150483408285265,B,564,Correct
1,new_learn,30,223,A,32.36760056441985,45.00015868659767,1.6183800282209928,0.7068608397009508,B,524,Incorrect
1,new_learn,30,224,B,74.34353908158067,45.312376454858715,3.717176954079034,0.7117651449363962,B,730,Correct
1,new_learn,30,225,A,66.07541700353626,85.34809904685565,3.3037708501768126,1.3406448048172788,A,924,Correct
1,new_learn,30,226,A,52.12326367395758,60.35710122149794,2.606163183697879,0.9480871289471673,B,4178,Incorrect
1,new_learn,30,227,B,59.22363278987682,33.07101598818852,2.961181639493841,0.5194783043762183,B,952,Correct
1,new_learn,30,228,A,55.12055148664248,79.52083754130422,2.7560275743321245,1.2491103951353435,A,2443,Correct
1,new_learn,30,229,A,38.33766190164057,67.75583560967101,1.9168830950820286,1.0643061769459006,A,804,Correct
1,new_learn,30,230,A,30.819382742628935,46.67145150351469,1.540969137131447,0.7331134458790703,A,885,Correct
1,new_learn,30,231,B,70.8120826292969,51.79677987573986,3.540604131464845,0.8136219156861598,B,836,Correct
1,new_learn,30,232,B,83.31395219910299,66.9647110761851,4.165697609955149,1.0518792218335307,B,602,Correct
1,new_learn,30,233,B,74.7424533283559,59.674748479488954,3.737122666417795,0.9373687571399059,B,569,Correct
1,new_learn,30,234,A,36.791824597535765,54.031045922783655,1.8395912298767882,0.8487176846839494,B,722,Incorrect
1,new_learn,30,235,A,53.06601668555384,77.39908501199244,2.653300834277692,1.2157819843412365,A,851,Correct
1,new_learn,30,236,B,68.40178525972891,47.18762144835425,3.4200892629864454,0.7412214244126293,B,952,Correct
1,new_learn,30,237,B,39.53616641747843,29.20068954388215,1.9768083208739213,0.45868335875408217,A,3176,Incorrect
1,new_learn,30,238,A,26.576929614241543,45.43119855035673,1.3288464807120772,0.7136315980478999,A,2269,Correct
1,new_learn,30,239,B,65.76921099856654,36.42356597157248,3.288460549928327,0.5721400363691763,B,2362,Correct
1,new_learn,30,240,B,72.59899773913058,51.55434108356924,3.6299498869565294,0.809813696044018,B,458,Correct
1,new_learn,30,241,B,68.26266005670163,45.08371227881916,3.4131330028350817,0.7081732964584712,B,607,Correct
1,new_learn,30,242,B,87.6487201224458,62.02805191034231,4.38243600612229,0.9743343609900887,B,386,Correct
1,new_learn,30,243,B,35.19159971209584,16.489885604268004,1.7595799856047918,0.2590225173645222,B,886,Correct
1,new_learn,30,244,A,14.579066613044734,39.75218722111862,0.7289533306522367,0.6244258966899615,A,891,Correct
1,new_learn,30,245,B,42.38756638004284,26.06924650743501,2.1193783190021422,0.40949476656189604,B,2086,Correct
1,new_learn,30,246,A,62.93447959939563,86.4980938703415,3.1467239799697815,1.358708881262926,A,1112,Correct
1,new_learn,30,247,B,54.08434705066991,28.069520113956763,2.7042173525334956,0.44091499089898745,B,993,Correct
1,new_learn,30,248,B,84.82232798815554,65.86411230985398,4.241116399407776,1.0345910568392518,A,1147,Incorrect
1,new_learn,30,249,A,41.51096539671857,59.77432576102485,2.0755482698359287,0.938932913420594,A,761,Correct
1,new_learn,30,250,B,49.223468352647856,19.373434733630475,2.4611734176323927,0.30431720116987415,B,941,Correct
1,new_learn,30,251,B,51.62609719352415,36.96284149068052,2.5813048596762074,0.5806109564146296,B,748,Correct
1,new_learn,30,252,A,60.98170209495523,73.1371237676556,3.049085104747762,1.1488352536657713,A,2068,Correct
1,new_learn,30,253,A,10.586611420310678,33.29525781296438,0.5293305710155338,0.5230006867229352,A,768,Correct
1,new_learn,30,254,B,35.39969473938485,23.758946852058784,1.7699847369692423,0.37320466443729106,A,688,Incorrect
1,new_learn,30,255,A,58.16584001507156,66.25568819683812,2.908292000753578,1.040741916488613,B,681,Incorrect
1,new_learn,30,256,A,66.7528018628777,78.73086586010172,3.3376400931438854,1.236701548984295,A,1276,Correct
1,new_learn,30,257,A,63.99519233223769,77.45043854483878,3.199759616611885,1.2165886437488662,A,710,Correct
1,new_learn,30,258,B,46.79418903569627,17.014063512748848,2.3397094517848136,0.2672562846968096,B,878,Correct
1,new_learn,30,259,B,76.71813953969902,45.191287282461246,3.8359069769849508,0.7098630806642305,B,2707,Correct
1,new_learn,30,260,B,63.96715708328058,48.0756500643498,3.1983578541640294,0.7551705452935751,B,767,Correct
1,new_learn,30,261,A,32.69486601079572,64.3285764191572,1.634743300539786,1.0104709154715694,A,1202,Correct
1,new_learn,30,262,A,39.83227992416229,52.53730326486537,1.9916139962081147,0.8252540298816006,B,1308,Incorrect
1,new_learn,30,263,B,40.995336801280786,15.470861636667653,2.049766840064039,0.24301572631229632,B,1325,Correct
1,new_learn,30,264,B,49.03975950177318,17.99686608050318,2.451987975088659,0.2826941113307406,B,1803,Correct
1,new_learn,30,265,A,25.102218207512728,53.645166789964684,1.2551109103756364,0.8426563094397609,A,794,Correct
1,new_learn,30,266,B,73.69120844370633,48.749786845677285,3.6845604221853163,0.7657598610922405,B,3738,Correct
1,new_learn,30,267,A,11.119479391967594,32.48079695111021,0.5559739695983797,0.5102071654217479,A,571,Correct
1,new_learn,30,268,B,68.81785658804884,42.80242529227152,3.4408928294024417,0.6723389242701308,B,1134,Correct
1,new_learn,30,269,A,16.026168782059674,40.41175853629812,0.8013084391029837,0.6347864186813938,A,666,Correct
1,new_learn,30,270,B,60.21008948488243,35.73231077528362,3.0105044742441214,0.5612818251370921,B,608,Correct
1,new_learn,30,271,A,62.1061604195881,84.55687774643451,3.1053080209794053,1.3282163296934446,A,1208,Correct
1,new_learn,30,272,B,61.25996134535336,43.571935935136516,3.062998067267668,0.6844263691825501,A,841,Incorrect
1,new_learn,30,273,A,53.20481412704946,71.48724930537372,2.6602407063524733,1.1229190862155207,A,1072,Correct
1,new_learn,30,274,B,47.511939311920365,20.246112020583148,2.3755969655960185,0.31802518393810003,B,1184,Correct
1,new_learn,30,275,B,55.85913383487878,33.831429341411756,2.7929566917439392,0.5314228493971067,A,1216,Incorrect
1,new_learn,30,276,B,51.60039047253803,34.94808112708006,2.5800195236269015,0.548963174629474,B,840,Correct
1,new_learn,30,277,A,51.36629374451506,65.87021227433286,2.568314687225753,1.0346868748572218,A,4928,Correct
1,new_learn,30,278,B,46.88099137788741,37.995270829531414,2.3440495688943708,0.5968283185460522,A,1562,Incorrect
1,new_learn,30,279,B,50.67532913690836,25.668557214456886,2.5337664568454183,0.4032007538659352,B,954,Correct
1,new_learn,30,280,A,41.531390964810896,63.23949164462819,2.0765695482405446,0.993363611837585,A,1003,Correct
1,new_learn,30,281,B,67.43000850427728,43.12174275003769,3.3715004252138643,0.6773547511675366,B,1059,Correct
1,new_learn,30,282,A,39.66121372622167,71.69365673060501,1.9830606863110833,1.1261613264692858,A,796,Correct
1,new_learn,30,283,A,56.56994181706746,75.253618427014,2.828497090853373,1.1820810740317833,A,607,Correct
1,new_learn,30,284,B,55.09131228300839,30.92349839536648,2.75456561415042,0.48574517691089547,B,613,Correct
1,new_learn,30,285,A,58.13144324708691,84.37400406954751,2.9065721623543452,1.3253437566942288,A,629,Correct
1,new_learn,30,286,B,63.33770737083604,40.26397247639642,3.166885368541802,0.6324650006809431,B,753,Correct
1,new_learn,30,287,B,35.586219285666274,22.429660172723207,1.7793109642833138,0.352324278105714,B,678,Correct
1,new_learn,30,288,B,81.13989599876709,67.63774574135336,4.056994799938354,1.0624512256320502,A,972,Incorrect
1,new_learn,30,289,A,54.833726184884256,79.50137044799857,2.741686309244213,1.2488046067487648,A,1173,Correct
1,new_learn,30,290,A,19.944928059755128,50.359969103189115,0.9972464029877564,0.7910525448479395,A,641,Correct
1,new_learn,30,291,A,44.67897860226135,71.39529733837489,2.2339489301130673,1.1214747080954872,A,1296,Correct
1,new_learn,30,292,A,52.442873883915865,65.48108318090834,2.622143694195793,1.0285744493512192,A,563,Correct
1,new_learn,30,293,B,71.9398097881126,60.145558171642875,3.5969904894056297,0.9447642184904541,B,1210,Correct
1,new_learn,30,294,B,54.15234125887728,46.745606246680026,2.707617062943864,0.7342782658608555,A,753,Incorrect
1,new_learn,30,295,A,49.503930088744816,63.34913390384455,2.475196504437241,0.9950858684179706,A,1053,Correct
1,new_learn,30,296,B,41.67221158104499,30.355397750445327,2.0836105790522494,0.47682147284797594,B,624,Correct
1,new_learn,30,297,A,54.23925556525001,70.79521723921687,2.711962778262501,1.112048671940086,A,751,Correct
1,new_learn,30,298,B,77.0269190578311,46.57386414972738,3.851345952891555,0.7315805473103629,B,1205,Correct
1,new_learn,30,299,A,21.02373810656847,40.1183843990582,1.0511869053284235,0.6301781085098631,A,889,Correct
1,new_learn,30,300,A,58.32860744233115,77.97168871917755,2.916430372116557,1.2247764223407918,A,888,Incorrect
1,new_learn,30,301,B,42.415555416810314,26.62023150345953,2.1207777708405158,0.4181496186406401,A,2317,Correct
1,new_learn,30,302,A,33.7958018213194,45.45309467069343,1.68979009106597,0.7139755415018594,A,1788,Correct
1,new_learn,30,303,A,31.785578197284053,49.41404145892656,1.5892789098642026,0.7761939481577257,A,762,Incorrect
1,new_learn,30,304,A,31.32181697772433,63.38478097537413,1.5660908488862164,0.9956458113081672,B,1523,Correct
1,new_learn,30,305,A,37.538455926737385,60.41676988654656,1.8769227963368693,0.9490244021459986,B,1354,Correct
1,new_learn,30,306,B,70.97855487948033,54.2241997223577,3.5489277439740166,0.8517517374727233,B,555,Incorrect
1,new_learn,30,307,A,68.54196699751972,83.96084020322867,3.427098349875986,1.3188537938584486,B,1663,Incorrect
1,new_learn,30,308,B,57.79541611270067,45.74929583180969,2.8897708056350337,0.7186282584605973,A,839,Incorrect
1,new_learn,30,309,B,66.08041626465563,34.427398986282356,3.3040208132327815,0.5407843186875467,B,1159,Correct
1,new_learn,30,310,B,82.6272733563961,63.33026227699801,4.131363667819805,0.9947894335966587,B,1129,Incorrect
1,new_learn,30,311,B,64.39519712015546,31.202034574238333,3.219759856007773,0.49012041297740944,B,979,Incorrect
1,new_learn,30,312,B,55.09734086349824,44.02754873862925,2.754867043174912,0.691583118364221,A,597,Correct
1,new_learn,30,313,B,66.13502061174252,48.70906194881279,3.306751030587126,0.7651201559082017,A,474,Incorrect
1,new_learn,30,314,B,64.04787186975814,37.24298969330512,3.2023935934879066,0.5850115140910387,B,508,Incorrect
1,new_learn,30,315,A,47.27532109254716,73.75232727361293,2.363766054627358,1.1584988477396627,A,1467,Incorrect
1,new_learn,30,316,A,39.50624623239394,47.30133675900575,1.9753123116196971,0.7430076603353465,B,615,Incorrect
1,new_learn,30,317,B,39.77518124804078,21.643025335121347,1.988759062402039,0.339967846971375,B,1111,Correct
1,new_learn,30,318,B,48.9261507923816,37.92303849094621,2.44630753961908,0.5956936956247978,B,832,Incorrect
1,new_learn,30,319,B,57.31649683876745,27.96800398782637,2.8658248419383723,0.43932037931862683,B,1365,Incorrect
1,new_learn,30,320,B,83.31452788970455,56.799783780674595,4.165726394485228,0.8922089172542799,B,1287,Incorrect
1,new_learn,30,321,B,71.72728163627475,55.08813476495032,3.5863640818137377,0.8653223973876619,A,774,Incorrect
1,new_learn,30,322,A,47.59374077209137,56.809078781765365,2.3796870386045685,0.8923549227899893,A,832,Incorrect
1,new_learn,30,323,A,24.019872785164495,39.14050031891123,1.2009936392582248,0.6148175412986023,A,811,Correct
1,new_learn,30,324,A,40.42603207091168,50.23057974682858,2.021301603545584,0.7890201015909646,B,2176,Incorrect
1,new_learn,30,325,A,55.85986498863001,68.85939973217168,2.7929932494315004,1.0816409216459675,A,1132,Incorrect
1,new_learn,30,326,B,67.88708892040844,49.94550910721232,3.3943544460204227,0.7845422224551016,B,795,Correct
1,new_learn,30,327,A,23.19201334866662,53.876670115545345,1.159600667433331,0.8462927551743901,A,738,Correct
1,new_learn,30,328,A,57.260324277895464,76.02369662394078,2.863016213894773,1.1941774340625575,B,1987,Correct
1,new_learn,30,329,A,52.98028581122946,79.47932475425452,2.649014290561473,1.248458313801217,B,575,Incorrect
1,new_learn,30,330,B,49.084686553726044,34.36238153500451,2.454234327686302,0.5397630269510986,B,723,Correct
1,new_learn,30,331,B,48.494892279219314,28.367495040387997,2.4247446139609656,0.44559557009813905,B,953,Incorrect
1,new_learn,30,332,A,26.199407243053894,51.07155506968532,1.3099703621526948,0.8022301110716498,A,677,Incorrect
1,new_learn,30,333,A,50.81496425533989,69.34344396884634,2.540748212766994,1.0892442707357155,A,1571,Correct
1,new_learn,30,334,B,59.337618492666834,51.73318724241734,2.9668809246333416,0.8126230049378175,A,679,Correct
1,new_learn,30,335,B,82.06025761047539,59.54916203738955,4.103012880523769,0.9353960499204561,B,929,Incorrect
1,new_learn,30,336,A,47.08604427742755,53.798542469338955,2.3543022138713776,0.8450655289775687,A,1022,Correct
1,new_learn,30,337,A,19.28167749922795,47.57470463022815,0.9640838749613976,0.7473017128151452,A,612,Incorrect
1,new_learn,30,338,A,20.867347776366852,34.07896640716427,1.0433673888183426,0.535311152533403,B,657,Correct
1,new_learn,30,339,B,55.57918261897894,47.43683203762856,2.7789591309489468,0.7451360151949342,B,772,Correct
1,new_learn,30,340,A,28.022851979531154,55.46691369559509,1.4011425989765576,0.8712722429169031,B,1833,Correct
1,new_learn,30,341,B,42.42910682367363,31.386730322891076,2.1214553411836814,0.493021607012993,B,1112,Incorrect
1,new_learn,30,342,B,79.77468111368358,51.24553353537425,3.988734055684179,0.8049629584201056,B,677,Correct
1,new_learn,30,343,B,63.5789293797786,47.35367626244601,3.17894646898893,0.7438298073328489,B,824,Incorrect
1,new_learn,30,344,B,79.8648998044753,58.649405633386884,3.9932449902237646,0.9212627093762803,B,486,Correct
1,new_learn,30,345,B,75.88359952109309,64.91756682177082,3.794179976054654,1.0197227550809986,B,528,Correct
1,new_learn,30,346,A,35.23306200745133,64.2288211269605,1.7616531003725666,1.00890396300596,A,524,Incorrect
1,new_learn,30,347,A,47.56218183416208,73.33916214051146,2.378109091708104,1.1520088650053075,A,569,Incorrect
1,new_learn,30,348,A,44.43409289052447,62.55500085779146,2.2217046445262234,0.9826116557007043,B,398,Correct
1,new_learn,30,349,A,32.67729654895148,57.32596143616433,1.6338648274475742,0.9004740965391281,B,368,Correct
1,new_learn,30,350,B,47.55102264960664,24.483659955399247,2.377551132480332,0.3845884312443644,B,530,Incorrect
1,new_learn,30,351,B,78.25544566858761,59.52837005273593,3.9127722834293808,0.9350694501892493,B,420,Correct
1,new_learn,30,352,B,55.59723106501497,44.61320295302648,2.7798615532507482,0.7007825532516923,B,555,Correct
1,new_learn,30,353,A,38.25810513460884,66.9754693306082,1.912905256730442,1.052048212098836,A,816,Incorrect
1,new_learn,30,354,B,41.49630050368452,18.801256670955816,2.0748150251842263,0.29532944917865445,B,708,Incorrect
1,new_learn,30,355,A,40.65785780761683,70.34418211668574,2.0328928903808414,1.1049638288028123,B,562,Correct
1,new_learn,30,356,A,13.58093569556274,39.98054978734537,0.6790467847781371,0.6280130074920258,A,541,Correct
1,new_learn,30,357,A,43.050404593369564,69.70569503903837,2.152520229668478,1.0949344972400672,B,1382,Correct
1,new_learn,30,358,B,71.81175262297648,50.238826711425176,3.590587631148824,0.78914964460792,B,743,Correct
1,new_learn,30,359,B,80.27562513140742,64.5701035362189,4.013781256570371,1.014264814554588,B,462,Incorrect
1,new_learn,30,360,A,23.280626665322576,45.56571771058398,1.1640313332661287,0.7157446200755848,A,773,Incorrect
1,new_learn,30,361,A,18.251266663672972,34.998931499558005,0.9125633331836486,0.5497619304125192,A,504,Correct
1,new_learn,30,362,B,86.05936168918318,58.868510792688284,4.302968084459159,0.9247044051704049,B,675,Correct
1,new_learn,30,363,B,34.41061535062073,17.895784626748767,1.7205307675310366,0.2811063275680954,A,1003,Incorrect
1,new_learn,30,364,A,26.00429969793828,47.73991703900562,1.300214984896914,0.7498968632636311,B,747,Correct
1,new_learn,30,365,B,66.6124712742804,39.37866900300564,3.3306235637140196,0.6185586862399332,B,864,Incorrect
1,new_learn,30,366,A,37.829920489504225,63.47458701124431,1.8914960244752113,0.9970564812208562,A,617,Incorrect
1,new_learn,30,367,A,63.051208329579154,78.79728799034378,3.1525604164789574,1.2377449053663163,B,332,Correct
1,new_learn,30,368,A,61.72764680822431,85.28302480762517,3.0863823404112156,1.3396226210577564,B,451,Incorrect
1,new_learn,30,369,A,17.09158566469057,43.98491226754539,0.8545792832345285,0.6909133862425608,A,667,Incorrect
1,new_learn,30,370,B,66.68967265431118,48.978143201078225,3.3344836327155587,0.769346874334881,B,487,Correct
1,new_learn,30,371,B,74.94744729060103,60.49382141347681,3.7473723645300514,0.9502347247007583,B,558,Correct
1,new_learn,30,372,A,63.58757695708118,82.37475546114896,3.179378847854059,1.2939396329900066,B,439,Correct
1,new_learn,30,373,A,62.606136189276704,80.93425876311633,3.1303068094638355,1.2713123637697081,B,498,Correct
1,new_learn,30,374,A,33.08360534714238,53.50974274683615,1.654180267357119,0.8405290735447011,A,1830,Incorrect
1,new_learn,30,375,B,77.38267389582458,53.61660257899962,3.869133694791229,0.8422076238631439,B,477,Correct
1,new_learn,30,376,B,53.09965293309578,31.376540775586726,2.6549826466547892,0.4928615499782193,B,521,Incorrect
1,new_learn,30,377,B,62.02967513746922,36.112222928860916,3.1014837568734612,0.5672494712905317,A,443,Correct
1,new_learn,30,378,A,36.86325672191191,55.60842303903514,1.8431628360955954,0.8734950664857309,A,501,Correct
1,new_learn,30,379,A,31.271660148309337,49.00922365838314,1.5635830074154669,0.7698350850165779,A,597,Incorrect
1,new_learn,30,380,B,51.702253204091875,33.85999847466566,2.585112660204594,0.5318716122928562,B,380,Correct
1,new_learn,30,381,B,77.40782037249326,50.38495914002696,3.870391018624663,0.7914450874286529,B,489,Correct
1,new_learn,30,382,B,65.07419920399042,43.63946581431606,3.253709960199521,0.6854871260441914,B,462,Correct
1,new_learn,30,383,A,15.731140358500543,44.477367990340966,0.7865570179250271,0.6986488626473251,A,685,Correct
1,new_learn,30,384,B,68.12602986779923,53.18574152604471,3.4063014933899614,0.8354396742697381,B,561,Correct
1,new_learn,30,385,B,51.561837308152576,33.938974944676126,2.578091865407629,0.5331121717828129,B,646,Correct
1,new_learn,30,386,B,82.3916479685757,59.612512529992856,4.1195823984287845,0.9363911571312752,B,839,Incorrect
1,new_learn,30,387,A,36.15061149675324,50.37061125091191,1.8075305748376622,0.7912197113134611,A,894,Correct
1,new_learn,30,388,B,43.2995190610506,22.782525242479345,2.1649759530525303,0.3578670696599856,A,687,Correct
1,new_learn,30,389,B,63.661361374384015,53.534059441381906,3.1830680687192006,0.8409110392894235,B,714,Correct
1,new_learn,30,390,A,18.255267721491034,36.51037681965836,0.9127633860745518,0.573503657982169,A,532,Incorrect
1,new_learn,30,391,A,42.65904905315544,50.16282198104715,2.132952452657772,0.7879557650949516,B,534,Incorrect
1,new_learn,30,392,A,36.666579760646044,63.64777596105668,1.8333289880323023,0.9997769268829234,A,1065,Correct
1,new_learn,30,393,A,36.347463898750235,49.33438111632757,1.8173731949375116,0.7749426464222684,B,708,Correct
1,new_learn,30,394,B,63.201857849801385,47.575479699629355,3.1600928924900695,0.7473138875768295,B,425,Correct
1,new_learn,30,395,A,38.9819331397911,66.42059155219994,1.9490966569895551,1.043332212337398,B,500,Incorrect
1,new_learn,30,396,B,68.15595982197763,54.8597637445916,3.407797991098881,0.8617351537884032,A,328,Correct
1,new_learn,30,397,B,70.3866819478256,51.11760237325274,3.5193340973912797,0.8029534204246747,B,515,Incorrect
1,new_learn,30,398,B,56.057745768278494,30.537105236047804,2.802887288413925,0.4796757273573309,A,515,Correct
1,new_learn,30,399,A,67.3788161493583,81.18222684694692,3.3689408074679146,1.2752074373221423,A,1043,Incorrect
1,new_learn,30,400,B,63.433663723925385,49.80647822292575,3.1716831861962693,0.7823583304316178,B,230,Incorrect
1,new_learn,30,401,B,79.33828328812821,49.46514710693613,3.9669141644064103,0.7769967137994448,B,508,Correct
1,new_learn,30,402,B,88.39976828502154,61.64440503683589,4.419988414251077,0.9683080499931864,B,429,Incorrect
1,new_learn,30,403,A,45.284799375367086,68.12257677889154,2.2642399687683543,1.0700669337608615,A,729,Correct
1,new_learn,30,404,A,28.43324847288021,54.82160086164805,1.4216624236440105,0.8611356926249271,A,2247,Incorrect
1,new_learn,30,405,A,33.05564686113684,54.451333883974186,1.652782343056842,0.8553195525402915,A,611,Incorrect
1,new_learn,30,406,B,81.77245549931216,53.96756841072853,4.088622774965608,0.8477205822562468,B,503,Incorrect
1,new_learn,30,407,A,15.22786942896327,35.13625193083294,0.7613934714481636,0.5519189547029247,B,769,Incorrect
1,new_learn,30,408,A,32.31222049097966,61.27607320690421,1.615611024548983,0.9625223071382032,A,600,Correct
1,new_learn,30,409,B,58.49946134148537,44.418162956919815,2.9249730670742684,0.697718872157068,B,1643,Incorrect
1,new_learn,30,410,B,61.39494846603013,50.78317280913794,3.0697474233015067,0.7977002131158434,A,675,Correct
1,new_learn,30,411,A,37.787166605335216,52.56171768914301,1.8893583302667607,0.8256375307613617,A,372,Incorrect
1,new_learn,30,412,A,45.41925918767413,55.65968898594425,2.2709629593837066,0.8743003500966758,B,445,Incorrect
1,new_learn,30,413,A,60.945586145083354,78.99299947236186,3.0472793072541675,1.240819134136972,B,357,Correct
1,new_learn,30,414,B,41.08388290435511,30.474928005757857,2.0541941452177555,0.4786990497078336,B,486,Incorrect
1,new_learn,30,415,A,29.84774064738435,47.660357198783196,1.4923870323692174,0.7486471402158136,A,594,Correct
1,new_learn,30,416,A,30.707277783864225,41.466689127656664,1.5353638891932113,0.6513572296606895,A,412,Correct
1,new_learn,30,417,B,67.37598981824578,47.4887017917845,3.368799490912289,0.745950783387933,A,429,Incorrect
1,new_learn,30,418,A,16.844644365896844,33.29752530724967,0.8422322182948422,0.5230363044398789,A,460,Correct
1,new_learn,30,419,B,69.40704094917473,42.56313495998025,3.4703520474587366,0.6685801605201244,B,826,Correct
1,new_learn,30,420,A,48.024889818473376,60.70004972182967,2.401244490923669,0.9534741513931764,A,1011,Incorrect
1,new_learn,30,421,B,45.878197282020274,30.41353280743595,2.2939098641010136,0.4777346561877647,B,454,Incorrect
1,new_learn,30,422,B,43.12132502392414,29.513955414266285,2.1560662511962074,0.4636041275391783,107,326,Incorrect
1,new_learn,30,423,A,33.228915458770594,50.74731143312778,1.6614457729385297,0.7971369039387377,B,937,Incorrect
1,new_learn,30,424,A,19.585408562125473,42.86376576515661,0.9792704281062737,0.6733024581650483,A,928,Correct
1,new_learn,30,425,B,34.06720689529641,10.242056721817686,1.7033603447648205,0.16088185077456202,A,779,Correct
1,new_learn,30,426,A,32.458734546590186,59.92180107879374,1.6229367273295094,0.9412494502950368,A,1053,Correct
1,new_learn,30,427,A,44.10885895578636,73.24278297542041,2.205442947789318,1.1504949446202617,A,3023,Correct
1,new_learn,30,428,B,50.70584293167816,41.710288078695626,2.535292146583908,0.6551836730357206,A,694,Incorrect
1,new_learn,30,429,A,36.53765061284974,54.87090003077536,1.826882530642487,0.8619100821627191,A,1228,Correct
1,new_learn,30,430,A,26.15846406380046,38.94087355926683,1.307923203190023,0.6116818114908084,A,1664,Incorrect
1,new_learn,30,431,A,55.724981373705845,71.69261096419659,2.7862490686852923,1.1261448996089551,B,975,Incorrect
1,new_learn,30,432,B,65.98400830494273,42.32863210089184,3.2992004152471366,0.6648965982233344,B,556,Incorrect
1,new_learn,30,433,B,67.52522344845791,45.75844260071838,3.376261172422895,0.7187719355706353,A,453,Incorrect
1,new_learn,30,434,B,71.85259401465319,40.84586261384578,3.5926297007326595,0.6416053095859795,B,407,Incorrect
1,new_learn,30,435,B,60.90796604551943,52.69956949933421,3.0453983022759714,0.8278029019322655,B,1128,Correct
1,new_learn,30,436,A,35.65009145892624,55.706420208357436,1.7825045729463118,0.8750344024218086,B,798,Incorrect
1,new_learn,30,437,A,15.308877876325429,35.21974611148549,0.7654438938162714,0.5532304782257026,A,1433,Correct
1,new_learn,30,438,A,45.01853290902366,77.19130365023403,2.250926645451183,1.212518162342971,A,1387,Correct
1,new_learn,30,439,B,86.29740865975417,67.54852516742045,4.314870432987709,1.0610497521339668,B,948,Correct
1,new_learn,30,440,B,60.339865326270385,44.1004640621627,3.0169932663135195,0.6927284695879552,B,968,Incorrect
1,new_learn,30,441,B,67.82443323988537,43.86245095372846,3.391221661994268,0.6889897684233797,B,765,Incorrect
1,new_learn,30,442,B,43.820901119609346,18.498605985302618,2.1910450559804673,0.29057542332539443,A,929,Incorrect
1,new_learn,30,443,A,58.46877581088178,77.39630523557409,2.923438790544089,1.215738319715364,A,657,Incorrect
1,new_learn,30,444,B,57.84658652983671,25.305545811960133,2.8923293264918355,0.3974985840896696,B,591,Correct
1,new_learn,30,445,B,61.06436437000959,47.77760137971117,3.0532182185004797,0.7504888075032109,B,423,Incorrect
1,new_learn,30,446,B,78.92610594685665,49.135900104401586,3.9463052973428323,0.7718249139775497,A,534,Correct
1,new_learn,30,447,B,58.94739750938837,35.84873335061944,2.947369875469418,0.5631105866740272,A,332,Correct
1,new_learn,30,448,A,35.94581709173228,63.972369140096006,1.7972908545866142,1.0048756246163002,A,480,Incorrect
1,new_learn,30,449,A,55.353866143857715,68.69320822304843,2.7676933071928858,1.0790303915252144,B,361,Incorrect
1,new_learn,30,450,B,58.40089397208125,38.057290608829184,2.9200446986040625,0.597802522961148,B,544,Incorrect
1,new_learn,30,451,B,56.19108635070266,36.904042953174155,2.809554317535133,0.5796873511472705,A,486,Incorrect
1,new_learn,30,452,A,31.02352583718338,48.649340635492266,1.5511762918591692,0.7641820557122495,B,610,Correct
1,new_learn,30,453,A,40.69110741164801,70.25752020768867,2.0345553705824004,1.1036025467195558,B,329,Correct
1,new_learn,30,454,B,31.718231365966293,14.081867518129076,1.5859115682983147,0.2211974577188952,B,519,Incorrect
1,new_learn,30,455,A,45.24230965902963,57.90389609683994,2.262115482951481,0.9095522729602953,A,347,Incorrect
1,new_learn,30,456,A,22.312367436763598,40.70430355783624,1.1156183718381798,0.6393817051339361,B,358,Incorrect
1,new_learn,30,457,B,69.59226678831665,37.701129308964404,3.4796133394158324,0.5922079543454071,B,921,Correct
1,new_learn,30,458,B,69.46237775023245,58.329234621897754,3.473118887511623,0.9162334748883468,B,1081,Incorrect
1,new_learn,30,459,A,31.713367757959954,57.900363778858384,1.5856683878979976,0.9094967874391903,A,1348,Correct
1,new_learn,30,460,B,62.63946351004016,35.78610326638881,3.131973175502008,0.562126795611464,A,4071,Correct
1,new_learn,30,461,A,63.220998013714,74.54139627764677,3.1610499006857005,1.1708935146709032,A,2216,Correct
1,new_learn,30,462,A,44.47968233548647,53.84920586519561,2.2239841167743237,0.8458613477387145,A,1588,Correct
1,new_learn,30,463,B,73.85168467338026,54.66893987816947,3.692584233669013,0.8587376995039964,B,774,Correct
1,new_learn,30,464,B,68.01013207708448,43.696236738791846,3.4005066038542235,0.6863788816405444,A,1122,Correct
1,new_learn,30,465,B,77.35995605077343,50.250928255507624,3.867997802538672,0.7893397352178525,A,1087,Correct
1,new_learn,30,466,A,22.201745493093114,51.39120127882731,1.1100872746546557,0.8072511019835913,A,812,Correct
1,new_learn,30,467,A,29.69626696343651,59.89892262109694,1.4848133481718255,0.9408900763219081,B,976,Incorrect
1,new_learn,30,468,B,51.98448253297188,43.72157747131775,2.599224126648594,0.6867769329362443,B,1219,Correct
1,new_learn,30,469,B,46.36247768537476,21.355606591483387,2.318123884268738,0.33545308390378986,A,612,Correct
1,new_learn,30,470,A,31.44366721268703,58.14444292974069,1.5721833606343514,0.9133307737757218,A,668,Incorrect
1,new_learn,30,471,B,66.88356491948102,58.592571244797504,3.3441782459740512,0.920369956887962,B,422,Incorrect
1,new_learn,30,472,B,57.06206164515851,32.498335684185804,2.8531030822579253,0.5104826631966657,B,823,Correct
1,new_learn,30,473,B,77.54534041639442,54.90891172662678,3.8772670208197213,0.8625071684849058,B,727,Correct
1,new_learn,30,474,A,35.810046879414,61.06379048481542,1.7905023439707002,0.9591877779372121,B,2149,Incorrect
1,new_learn,30,475,B,59.07159447365476,40.846535593125274,2.953579723682738,0.6416158807197818,A,661,Correct
1,new_learn,30,476,A,24.786379856121712,50.309728490732994,1.2393189928060857,0.7902633671529193,A,736,Incorrect
1,new_learn,30,477,B,52.02775603713686,23.966299903736278,2.601387801856843,0.37646175855653824,B,618,Incorrect
1,new_learn,30,478,B,46.521959536221466,31.26574054832121,2.326097976811073,0.49112110407825216,A,2044,Incorrect
1,new_learn,30,479,A,26.863835938805607,46.60288140489,1.3431917969402805,0.7320363492885941,B,507,Incorrect
1,new_learn,30,480,B,43.35211093973713,24.920818111357537,2.1676055469868567,0.39145529550044156,B,1439,Correct
1,new_learn,30,481,B,55.49992571116895,33.42913895393383,2.774996285558448,0.5251036867675546,B,1372,Correct
1,new_learn,30,482,B,44.50032770694197,27.350453373310984,2.2250163853470983,0.42961991694971985,B,663,Incorrect
1,new_learn,30,483,A,21.227668819609626,46.246862206816054,1.0613834409804812,0.7264440128025639,A,5693,Correct
1,new_learn,30,484,A,53.49863429182051,80.79695981580942,2.6749317145910254,1.269155676948683,B,2222,Correct
1,new_learn,30,485,B,72.1885343682362,41.208485127821675,3.6094267184118105,0.6473013707156441,B,815,Correct
1,new_learn,30,486,B,40.14906317332025,30.71982397379065,2.0074531586660127,0.4825458665781615,A,911,Correct
1,new_learn,30,487,B,76.72582503630082,57.47298212962136,3.836291251815041,0.9027834921915796,A,772,Incorrect
1,new_learn,30,488,A,60.55745353839071,81.04695799780076,3.0278726769195354,1.2730826392084569,A,1334,Incorrect
1,new_learn,30,489,B,62.56456337275214,46.61661740547117,3.128228168637607,0.7322521138811717,B,360,Correct
1,new_learn,30,490,A,50.81606611260332,66.09206975754135,2.540803305630166,1.0381718040541803,B,629,Correct
1,new_learn,30,491,A,35.853813605437914,67.40796035502912,1.7926906802718958,1.0588417652241575,B,533,Correct
1,new_learn,30,492,A,24.042469265403874,51.136516298473566,1.2021234632701936,0.8032505196672963,B,428,Correct
1,new_learn,30,493,A,21.13303368885801,51.667755452464974,1.0566516844429004,0.8115952047846897,A,781,Incorrect
1,new_learn,30,494,A,29.552038343821152,43.801117329142826,1.4776019171910577,0.6880263421012984,A,1120,Correct
1,new_learn,30,495,A,26.49827275390006,54.01062827559884,1.324913637695003,0.8483969650319524,B,585,Incorrect
1,new_learn,30,496,A,42.140764650180216,49.79790845674437,2.107038232509011,0.7822237168592258,A,460,Incorrect
1,new_learn,30,497,A,55.860722918806374,72.81104559057738,2.7930361459403183,1.143713229637747,B,977,Correct
1,new_learn,30,498,B,57.28809951625752,24.623568603240752,2.864404975812876,0.3867861111455272,B,1426,Incorrect
1,new_learn,30,499,B,39.08228801197251,23.34083356543545,1.9541144005986255,0.3666369562891703,A,579,Incorrect
1,new_learn,30,500,B,67.15847212255676,42.72212673841688,3.357923606127838,0.6710775975357127,B,1847,Incorrect
1,new_learn,30,501,A,34.191523225967444,44.28792907363186,1.7095761612983722,0.6956731631021382,A,618,Correct
1,new_learn,30,502,A,41.224826612682186,69.40839954285462,2.0612413306341093,1.0902645905062862,A,753,Correct
1,new_learn,30,503,A,21.77875510410834,38.97522586706755,1.088937755205417,0.6122214162799114,A,808,Incorrect
1,new_learn,30,504,A,37.74776135608583,69.41035175185411,1.8873880678042918,1.0902952557335415,B,831,Correct
1,new_learn,30,505,B,52.01370921542639,33.678395156960846,2.6006854607713192,0.5290189940490113,B,736,Incorrect
1,new_learn,30,506,B,34.65405797050045,16.643666595499703,1.7327028985250226,0.2614381035260986,A,870,Incorrect
1,new_learn,30,507,A,20.97329757322998,43.15565374078565,1.0486648786614992,0.6778874237645854,B,770,Correct
1,new_learn,30,508,A,32.46666363267318,48.672152472911236,1.623333181633659,0.7645403832165011,B,1100,Correct
1,new_learn,30,509,A,40.96863585513137,56.42617164083909,2.0484317927565683,0.8863402314852841,B,1059,Incorrect
1,new_learn,30,510,A,22.726489356464842,37.474041094288665,1.136324467823242,0.5886408610106963,A,782,Incorrect
1,new_learn,30,511,B,80.43416095747789,54.76076868660691,4.0217080478738945,0.8601801430538711,B,566,Correct
1,new_learn,30,512,A,32.86167071849732,61.682535638444186,1.6430835359248661,0.9689070040826343,B,753,Incorrect
1,new_learn,30,513,A,59.06110598879094,78.94080967370664,2.953055299439547,1.239999338696734,A,391,Incorrect
1,new_learn,30,514,A,39.24622740536796,52.428825808701845,1.962311370268398,0.8235500699847833,A,340,Incorrect
1,new_learn,30,515,A,16.242465961914743,43.897629808687924,0.8121232980957371,0.6895423565848915,A,395,Correct
1,new_learn,30,516,A,52.48008392804675,77.81607350147239,2.6240041964023373,1.2223320242171452,B,779,Incorrect
1,new_learn,30,517,A,49.33315676122026,69.33330723437915,2.466657838061013,1.089085043283048,A,3571,Incorrect
1,new_learn,30,518,A,50.22151686668562,74.02513466735293,2.511075843334281,1.1627840962597555,B,3293,Incorrect
1,new_learn,30,519,B,72.0691309092914,57.57539619236644,3.60345654546457,0.9043922085273007,B,1445,Incorrect
1,new_learn,30,520,A,19.002293008074158,38.336793207525545,0.9501146504037079,0.6021929395147666,A,430,Incorrect
1,new_learn,30,521,A,31.68394861367601,54.658904801139414,1.5841974306838005,0.8585800688826173,A,2837,Incorrect
1,new_learn,30,522,B,46.63659084827933,28.123810368190416,2.3318295424139666,0.44176778021829727,B,581,Incorrect
1,new_learn,30,523,A,41.363082306019294,61.67761614315015,2.0681541153009646,0.9688297288312587,B,6391,Incorrect
1,new_learn,30,524,A,30.527279008662134,55.940757083014006,1.5263639504331068,0.8787153574412401,A,1429,Incorrect
1,new_learn,30,525,A,64.29959206340365,80.390218463726,3.2149796031701827,1.2627665987306005,B,1164,Correct
1,new_learn,30,526,A,38.28828988414087,50.09911164706116,1.9144144942070438,0.786955005508911,A,983,Correct
1,new_learn,30,527,B,52.72074639728403,22.555396427291306,2.6360373198642013,0.3542993385739192,B,1128,Correct
1,new_learn,30,528,A,40.88164859566169,53.921167010548395,2.044082429783084,0.8469917107666357,A,907,Correct
1,new_learn,30,529,B,65.06572351788039,34.70836898321837,3.253286175894019,0.5451977850788133,B,689,Correct
1,new_learn,30,530,B,70.9760450608497,39.701902336211376,3.548802253042485,0.6236360235649054,B,694,Incorrect
1,new_learn,30,531,A,45.69541960777994,57.57290619817072,2.284770980388997,0.9043530957899368,A,834,Correct
1,new_learn,30,532,B,39.41758445191748,28.733300615364396,1.970879222595874,0.45134163063307936,B,1288,Correct
1,new_learn,30,533,B,59.133271885608885,50.607728983653175,2.9566635942804442,0.7949443479495404,B,1416,Correct
1,new_learn,30,534,B,79.2799955476089,58.475311858488595,3.963999777380445,0.9185280507549994,B,574,Incorrect
1,new_learn,30,535,B,56.61225673884545,24.7138447377352,2.8306128369422727,0.38820416535013835,B,830,Incorrect
1,new_learn,30,536,A,38.47029103585768,55.645976599292055,1.923514551792884,0.8740849564308273,A,1422,Correct
1,new_learn,30,537,B,79.38869122244881,48.166484028332796,3.9694345611224406,0.7565973618633021,B,1014,Incorrect
1,new_learn,30,538,A,69.67188017132281,87.79828200726739,3.4835940085661408,1.3791321887591805,A,1147,Incorrect
1,new_learn,30,539,A,41.23391177151235,55.99123637591238,2.0616955885756174,0.8795082843198796,B,724,Incorrect
1,new_learn,30,540,B,59.229420721775256,46.47194950329113,2.9614710360887626,0.7299796757876761,B,847,Correct
1,new_learn,30,541,A,19.41850736791693,50.458698930712494,0.9709253683958465,0.7926033893521276,A,1207,Correct
1,new_learn,30,542,A,25.87128148778056,50.028343023327295,1.293564074389028,0.7858433745667761,A,724,Correct
1,new_learn,30,543,B,60.76586961630349,36.646700119318744,3.0382934808151743,0.5756450193657998,B,1100,Incorrect
1,new_learn,30,544,A,35.84935642758144,66.32258614594014,1.792467821379072,1.0417927470158086,A,683,Incorrect
1,new_learn,30,545,B,76.10119393572411,51.84966554631395,3.8050596967862056,0.8144526418569386,B,1634,Incorrect
1,new_learn,30,546,B,59.13444673295395,29.887576988684664,2.9567223366476973,0.46947296150625545,A,1161,Correct
1,new_learn,30,547,A,50.694212075596504,74.06550240408396,2.5347106037798253,1.1634181911855366,A,1492,Incorrect
1,new_learn,30,548,A,40.161623721689615,58.42387252298771,2.0080811860844805,0.9177200435624238,B,1436,Correct
1,new_learn,30,549,A,42.07264126594812,73.21969442031016,2.1036320632974057,1.15013227044468,B,1841,Incorrect
1,new_learn,30,550,B,71.67133565461604,42.30547545404305,3.583566782730802,0.6645328544652247,A,1093,Correct
1,new_learn,30,551,B,50.71095328498711,32.11943799348846,2.5355476642493557,0.5045309521888812,A,713,Correct
1,new_learn,30,552,A,32.17222311681757,63.864445910063644,1.6086111558408787,1.0031803704831932,A,1708,Correct
1,new_learn,30,553,A,37.87961485780928,66.59536347202385,1.893980742890464,1.046077523234261,A,980,Incorrect
1,new_learn,30,554,B,83.42908207605751,61.534241059979436,4.171454103802875,0.9665775982912741,B,1477,Incorrect
1,new_learn,30,555,A,27.61117545835822,39.82204845314394,1.380558772917911,0.625523274356469,A,1225,Correct
1,new_learn,30,556,A,17.915081781741353,35.05363457416142,0.8957540890870677,0.5506212042990335,A,512,Incorrect
1,new_learn,30,557,B,61.122879153977216,47.49971558851158,3.0561439576988607,0.7461237877023629,B,645,Correct
1,new_learn,30,558,B,70.40535266371107,41.0439391847682,3.520267633185554,0.6447166890862701,B,708,Correct
1,new_learn,30,559,A,34.62666249032291,65.38468109280477,1.7313331245161452,1.0270601688923344,A,1575,Correct
1,new_learn,30,560,A,31.5615065885844,50.45212755575733,1.57807532942922,0.792500166435712,B,643,Correct
1,new_learn,30,561,B,65.72475151371845,37.0160941024878,3.2862375756859223,0.5814474464848207,B,660,Correct
1,new_learn,30,562,A,25.805208577434133,41.60813654486212,1.2902604288717066,0.6535790804944992,B,634,Correct
1,new_learn,30,563,A,33.841913174798734,64.26918785716153,1.6920956587399365,1.009538042121205,A,560,Incorrect
1,new_learn,30,564,B,68.31249141804406,35.55986943586073,3.4156245709022026,0.5585731229115616,B,523,Incorrect
1,new_learn,30,565,A,51.4250963129514,78.77398454433924,2.57125481564757,1.2373788556924605,B,550,Correct
1,new_learn,30,566,B,77.97467583829005,60.763020565437614,3.898733791914503,0.9544632950915216,B,455,Incorrect
1,new_learn,30,567,B,56.13110253558149,24.652396244595035,2.8065551267790743,0.3872389346770218,A,556,Incorrect
1,new_learn,30,568,B,51.694555353528614,28.554752999807434,2.5847277676764304,0.44853701124633066,B,1198,Correct
1,new_learn,30,569,A,47.693885022315875,64.16761481338274,2.3846942511157936,1.0079425364805141,A,1966,Correct
1,new_learn,30,570,A,50.801215051254665,66.0128720196646,2.5400607525627334,1.0369277688967076,A,692,Correct
1,new_learn,30,571,B,49.93533768288097,35.58810483074646,2.4967668841440487,0.5590166434572825,A,735,Incorrect
1,new_learn,30,572,B,54.9617065131258,39.84008820664066,2.7480853256562896,0.6258066421417582,B,1024,Incorrect
1,new_learn,30,573,A,48.97167923881713,70.04864657999978,2.4485839619408565,1.1003215674481757,B,505,Incorrect
1,new_learn,30,574,B,72.21703567966553,41.9462682484412,3.6108517839832763,0.6588904408740484,A,1015,Incorrect
1,new_learn,30,575,A,44.694098400908224,55.26133074579606,2.234704920045411,0.8680429534929434,B,535,Incorrect
1,new_learn,30,576,A,56.9936297017632,68.23995644815923,2.84968148508816,1.0719107292941226,A,1037,Incorrect
1,new_learn,30,577,A,36.86677733569067,57.16012372229893,1.8433388667845336,0.8978691238212898,A,1168,Correct
1,new_learn,30,578,B,65.42221690036342,36.04457320978791,3.271110845018171,0.5661868319882459,B,536,Incorrect
1,new_learn,30,579,B,42.56996152720971,15.971686929284203,2.128498076360486,0.2508826716123769,A,734,Incorrect
1,new_learn,30,580,A,58.87946732003459,77.19378320623741,2.9439733660017295,1.2125571111175932,B,341,Correct
1,new_learn,30,581,B,38.37891551172249,13.14132052794671,1.9189457755861243,0.20642338014533065,A,702,Correct
1,new_learn,30,582,B,46.79581705256408,26.70801823250696,2.339790852628204,0.4195285693559305,A,514,Incorrect
1,new_learn,30,583,B,58.3080041724159,30.064984945943777,2.915400208620795,0.4722596791823235,B,1439,Incorrect
1,new_learn,30,584,B,67.26730347948893,38.02368046916699,3.3633651739744463,0.5972745761219036,A,547,Correct
1,new_learn,30,585,B,50.431577095715795,27.07038417507699,2.5215788547857896,0.42522060027137637,A,377,Incorrect
1,new_learn,30,586,A,11.461259553047388,30.905818937268673,0.5730629776523694,0.4854674686324979,B,329,Correct
1,new_learn,30,587,A,48.70316614632619,74.3171785883724,2.4351583073163097,1.1673715114437573,A,1106,Correct
1,new_learn,30,588,B,54.41947781156617,24.622329571393525,2.7209738905783083,0.38676664847878306,A,667,Incorrect
1,new_learn,30,589,B,70.03732946261049,53.41167755613459,3.5018664731305247,0.8389886691312963,B,389,Incorrect
1,new_learn,30,590,B,54.1586396593207,47.553133064570844,2.7079319829660347,0.7469628674541682,A,303,Correct
1,new_learn,30,591,A,14.36012175107259,38.64354875864814,0.7180060875536296,0.6070114444440398,B,817,Correct
1,new_learn,30,592,B,82.7015362037224,64.26039357478318,4.13507681018612,1.009399901856638,B,510,Correct
1,new_learn,30,593,A,47.39675313400532,76.02934315565932,2.369837656700266,1.1942661295753836,B,618,Incorrect
1,new_learn,30,594,A,14.01379736692088,36.79829272351756,0.7006898683460441,0.5780262304242476,A,608,Correct
1,new_learn,30,595,A,30.46937559055826,58.63195634088804,1.5234687795279132,0.9209886165306567,A,892,Correct
1,new_learn,30,596,A,27.8344945880984,60.73719928627093,1.3917247294049202,0.9540576953868398,B,526,Incorrect
1,new_learn,30,597,B,41.138370229802845,14.244491993031392,2.0569185114901423,0.22375195699713027,A,281,Correct
1,new_learn,30,598,B,80.86993527443299,63.58673111051923,4.04349676372165,0.998818036612984,A,328,Correct
1,new_learn,30,599,A,21.180339224249796,42.503669241097256,1.0590169612124898,0.667646075192208,A,636,Correct
1,new_learn,30,600,A,51.23378056714332,74.64702941630756,2.5616890283571663,1.172552796132865,B,688,Incorrect
1,new_learn,30,601,B,12.078299122596079,62.34985836524298,0.603914956129804,0.9793892849630572,A,4862,Incorrect
1,new_learn,30,602,B,51.54621105996128,18.64146914846252,2.5773105529980636,0.2928195126446531,B,655,Correct
1,new_learn,30,603,A,46.67145150351469,69.18061725737107,2.3335725751757344,1.086686594732821,B,503,Incorrect
1,new_learn,30,604,A,70.79521723921687,45.76074443474999,3.5397608619608434,0.7188080926950529,A,1014,Correct
1,new_learn,30,605,B,49.80647822292575,36.566336276074615,2.4903239111462874,0.5743826670680499,B,2457,Correct
1,new_learn,30,606,A,53.876670115545345,76.80798665133338,2.6938335057772673,1.2064970330042593,A,2065,Correct
1,new_learn,30,607,B,66.27415890888958,12.520724317966511,3.313707945444479,0.19667507767473333,B,704,Correct
1,new_learn,30,608,A,80.390218463726,35.70040793659635,4.0195109231863,0.5607806965188491,B,555,Incorrect
1,new_learn,30,609,A,43.30475185149719,72.56021745470483,2.1652375925748597,1.139773230492893,A,975,Correct
1,new_learn,30,610,B,31.26574054832121,53.478040463778534,1.5632870274160606,0.8400310952469217,A,759,Incorrect
1,new_learn,30,611,A,63.64777596105668,63.333420239353956,3.1823887980528345,0.9948390387533476,B,1568,Incorrect
1,new_learn,30,612,B,12.170090378451732,64.81255454186612,0.6085045189225866,1.0180732260455718,B,510,Correct
1,new_learn,30,613,B,49.135900104401586,21.07389405314335,2.456795005220079,0.33102795369942384,A,936,Incorrect
1,new_learn,30,614,B,51.88758892068314,30.99303729706115,2.594379446034157,0.48683749142440885,B,738,Correct
1,new_learn,30,615,A,44.38761877262145,85.15332371549448,2.2193809386310726,1.3375852810667548,B,638,Incorrect
1,new_learn,30,616,B,28.289789953850104,43.40621524590292,1.4144894976925053,0.6818232346833295,A,1052,Incorrect
1,new_learn,30,617,A,66.13113631489752,45.58432893642812,3.3065568157448757,0.716036964527516,B,2684,Incorrect
1,new_learn,30,618,A,58.42890003860533,51.29232190007322,2.9214450019302665,0.8056979083341644,A,623,Correct
1,new_learn,30,619,B,12.998780977968138,69.51469134183859,0.6499390488984069,1.0919342181804106,A,708,Incorrect
1,new_learn,30,620,A,85.57512151572358,40.23827809492286,4.27875607578618,0.6320613942805637,A,721,Correct
1,new_learn,30,621,B,33.678395156960846,47.98629078457361,1.6839197578480423,0.7537668930092003,B,572,Correct
1,new_learn,30,622,A,69.98198961529863,39.62613662183233,3.4990994807649316,0.6224458985064696,A,1271,Correct
1,new_learn,30,623,B,41.96286050491825,39.15992703869908,2.0981430252459123,0.6151226954994466,B,597,Correct
1,new_learn,30,624,A,57.5696664346237,55.107811367393005,2.878483321731185,0.8656314767360698,B,1757,Incorrect
1,new_learn,30,625,A,55.65968898594425,54.58074081232587,2.7829844492972127,0.8573522718174579,A,556,Correct
1,new_learn,30,626,A,71.70986633808387,49.02234887557252,3.5854933169041936,0.7700412554460723,A,489,Correct
1,new_learn,30,627,B,46.47194950329113,40.770579278224744,2.323597475164556,0.6404227617153556,A,374,Incorrect
1,new_learn,30,628,B,45.841192908901995,37.04797009912054,2.2920596454450997,0.581948153469057,B,547,Correct
1,new_learn,30,629,A,74.89808003895097,51.289378872652016,3.7449040019475484,0.8056516793675356,B,591,Incorrect
1,new_learn,30,630,B,28.554752999807434,48.305444646471386,1.4277376499903716,0.7587801501487146,A,713,Incorrect
1,new_learn,30,631,B,36.38632958259269,48.15130272311341,1.8193164791296343,0.7563588944785564,B,1162,Correct
1,new_learn,30,632,A,54.254593047718245,54.69855026181602,2.712729652385912,0.8592028183226663,A,700,Correct
1,new_learn,30,633,A,45.43119855035673,73.42307038575845,2.2715599275178366,1.153326892639525,A,836,Correct
1,new_learn,30,634,B,56.90481649483989,17.2955167112914,2.8452408247419947,0.2716773412011628,B,877,Correct
1,new_learn,30,635,B,35.84873335061944,41.05260249061163,1.7924366675309722,0.6448527719762377,A,1024,Incorrect
1,new_learn,30,636,B,18.801256670955816,58.50369949631548,0.9400628335477907,0.9189739627272479,B,741,Correct
1,new_learn,30,637,B,41.9462682484412,27.78296432033447,2.09731341242206,0.43641378301855055,B,624,Correct
1,new_learn,30,638,B,23.31512512676323,47.25406778533975,1.1657562563381616,0.7422651610332873,B,944,Correct
1,new_learn,30,639,A,32.827050431902684,87.99278231656845,1.6413525215951341,1.3821873924732866,A,772,Correct
1,new_learn,30,640,A,77.45043854483878,36.00480766776231,3.872521927241939,0.5655621963147777,A,2751,Correct
1,new_learn,30,641,B,43.86245095372846,32.175566760114634,2.193122547686423,0.5054126207933204,B,2068,Correct
1,new_learn,30,642,A,68.79738193484788,51.05029009808729,3.4398690967423935,0.8018960816788938,A,2110,Correct
1,new_learn,30,643,A,70.91186872079425,39.19489191727789,3.545593436039712,0.6156719225278309,B,2998,Incorrect
1,new_learn,30,644,A,54.87090003077536,63.46234938715026,2.7435450015387683,0.9968642530710999,A,667,Correct
1,new_learn,30,645,B,55.943310920565324,23.416045513912195,2.797165546028266,0.3678183828131539,A,553,Incorrect
1,new_learn,30,646,B,20.67327648230785,65.11725216777234,1.0336638241153924,1.022859405161138,A,1151,Incorrect
1,new_learn,30,647,B,30.22100295900964,55.23260223362843,1.5110501479504819,0.8675916870790712,B,684,Correct
1,new_learn,30,648,B,38.27272613861861,52.38172092403251,1.9136363069309306,0.8228101481866564,A,916,Incorrect
1,new_learn,30,649,A,32.48079695111021,88.88052060803241,1.6240398475555105,1.3961319529471543,B,1286,Incorrect
1,new_learn,30,650,A,46.60288140489,73.13616406119439,2.3301440702445,1.1488201786319308,A,807,Correct
1,new_learn,30,651,A,69.40839954285462,58.775173387317814,3.4704199771427313,0.9232382646353197,A,2178,Correct
1,new_learn,30,652,A,39.75218722111862,85.42093338695527,1.987609361055931,1.3417888839562089,A,2200,Correct
1,new_learn,30,653,A,55.206708777687055,62.85744693467866,2.7603354388843524,0.9873624675669836,A,1240,Correct
1,new_learn,30,654,A,55.45522551368109,53.263220974996386,2.7727612756840547,0.8366567186078921,A,1619,Correct
1,new_learn,30,655,B,27.07038417507699,49.568422904284205,1.3535192087538492,0.7786189662306564,A,526,Incorrect
1,new_learn,30,656,A,63.38478097537413,68.67818302227568,3.1692390487687065,1.0787943762233827,A,722,Correct
1,new_learn,30,657,B,45.28361764767338,36.90959432407826,2.2641808823836693,0.5797745518775189,B,1247,Correct
1,new_learn,30,658,B,16.489885604268004,64.80840028790416,0.8244942802134002,1.0180079711769316,B,1181,Correct
1,new_learn,30,659,A,66.42059155219994,61.0180668602089,3.321029577609997,0.9584695529214156,A,667,Correct
1,new_learn,30,660,B,44.917727740242896,24.52617073319429,2.2458863870121446,0.3852561889804609,B,1727,Correct
1,new_learn,30,661,A,67.98868488188089,56.182658905740155,3.3994342440940444,0.8825151423870722,B,793,Incorrect
1,new_learn,30,662,A,65.48108318090834,47.557126116084135,3.2740541590454173,0.7470255901606662,A,734,Correct
1,new_learn,30,663,B,33.81694264328619,42.2440627655671,1.6908471321643095,0.6635681862104585,B,756,Correct
1,new_learn,30,664,A,58.91764784806045,64.27978231694956,2.9458823924030226,1.009704459506399,A,1864,Correct
1,new_learn,30,665,A,46.97153408566432,74.52947773993911,2.3485767042832157,1.1707062987183836,A,500,Correct
1,new_learn,30,666,B,44.02754873862925,44.90265913650176,2.2013774369314625,0.7053293203494027,A,495,Incorrect
1,new_learn,30,667,A,42.64687656059451,78.25343108348831,2.1323438280297253,1.22920202105041,A,953,Correct
1,new_learn,30,668,A,80.49280521371759,40.61884810959941,4.02464026068588,0.638039374091986,A,1089,Correct
1,new_learn,30,669,B,49.32015611803865,28.43503525876696,2.4660078059019326,0.44665648936754504,A,553,Incorrect
1,new_learn,30,670,A,67.40796035502912,64.14618639456208,3.3703980177514556,1.007605939664789,B,431,Incorrect
1,new_learn,30,671,B,65.31272243602787,10.939654024588123,3.265636121801393,0.17183968358230028,B,823,Correct
1,new_learn,30,672,A,76.83865281945366,50.13932315710538,3.841932640972683,0.7875866464316345,A,1022,Correct
1,new_learn,30,673,B,55.0743958200169,24.68848567025202,2.753719791000845,0.3878058260496031,B,562,Correct
1,new_learn,30,674,B,24.623568603240752,42.71190048374248,1.2311784301620377,0.6709169639029186,A,361,Incorrect
1,new_learn,30,675,A,48.301614621736334,80.40233919623631,2.415080731086817,1.2629569907516534,B,470,Incorrect
1,new_learn,30,676,A,63.42064874892167,59.76362271045454,3.171032437446083,0.9387647902953805,A,333,Correct
1,new_learn,30,677,B,56.54208819946077,19.113105890530306,2.8271044099730385,0.30022796526486906,B,1947,Correct
1,new_learn,30,678,A,40.70430355783624,77.6876325632364,2.035215177891812,1.2203144786772335,A,872,Correct
1,new_learn,30,679,B,59.52837005273593,21.744554331412388,2.9764185026367964,0.34156266071574637,B,730,Correct
1,new_learn,30,680,A,48.649340635492266,68.97647416281661,2.432467031774613,1.0834799225021543,A,1439,Correct
1,new_learn,30,681,B,46.17499117147325,38.263553491400046,2.3087495585736626,0.6010424927441123,B,1306,Correct
1,new_learn,30,682,A,71.48518685902638,57.54556711958118,3.5742593429513194,0.9039236545476729,A,1355,Correct
1,new_learn,30,683,A,74.83785825445992,47.78517396169239,3.7418929127229954,0.7506077573428153,B,1160,Incorrect
1,new_learn,30,684,B,33.74942342916242,50.79051537964345,1.687471171458121,0.7978155499436362,B,1828,Correct
1,new_learn,30,685,A,41.654392371956106,83.00404759645821,2.0827196185978054,1.3038245307362533,B,1453,Incorrect
1,new_learn,30,686,A,57.90389609683994,54.75769034097037,2.8951948048419966,0.8601317885136865,A,2118,Correct
1,new_learn,30,687,B,26.70801823250696,53.20418294743592,1.335400911625348,0.8357293514395601,B,784,Correct
1,new_learn,30,688,B,32.14232143057036,41.871296948208055,1.607116071528518,0.6577127944438358,A,1482,Incorrect
1,new_learn,30,689,B,32.926869311207035,52.81736867745367,1.646343465560352,0.8296532870951604,B,1462,Correct
1,new_learn,30,690,A,33.29752530724967,83.15535563410316,1.6648762653624833,1.3062012718337255,B,659,Incorrect
1,new_learn,30,691,B,60.763020565437614,22.025324161709946,3.038151028271881,0.3459729828968087,A,749,Incorrect
1,new_learn,30,692,A,40.757688452929855,79.63351095060469,2.037884422646493,1.25088026490991,A,1348,Correct
1,new_learn,30,693,B,19.741550045943203,55.21951799466204,0.9870775022971601,0.8673861603339983,B,2899,Correct
1,new_learn,30,694,B,32.629299650521865,55.036653576329,1.6314649825260932,0.864513732767808,B,1142,Correct
1,new_learn,30,695,B,48.0573043654636,27.81876734539884,2.4028652182731802,0.4369761756211431,A,744,Incorrect
1,new_learn,30,696,B,20.156596223580692,49.14225993353447,1.0078298111790347,0.7719248139399596,A,984,Incorrect
1,new_learn,30,697,B,51.79677987573986,29.187917370703104,2.5898389937869926,0.45848273392693395,A,671,Incorrect
1,new_learn,30,698,A,35.0051870678665,82.323590854038,1.750259353393325,1.2931359412208883,A,585,Correct
1,new_learn,30,699,B,66.9647110761851,16.686047800897015,3.3482355538092547,0.26210382594373094,B,940,Correct
1,new_learn,30,700,B,29.062607552892963,57.346235728596255,1.453130377644648,0.9007925643799325,A,595,Incorrect
1,new_learn,30,701,B,18.747698491546213,60.903214539286154,0.9373849245773107,0.9566654568831222,B,360,Correct
1,new_learn,30,702,A,37.77254035108329,84.05836219110773,1.8886270175541648,1.3203856656618702,B,588,Incorrect
1,new_learn,30,703,B,37.53439223004565,42.625462173096196,1.8767196115022824,0.6695591940943432,A,406,Incorrect
1,new_learn,30,704,B,46.90181606741538,35.82425953245992,2.345090803370769,0.562726152837351,B,508,Correct
1,new_learn,30,705,A,58.69311721898059,65.03431136320631,2.9346558609490296,1.0215565740496009,A,1508,Correct
1,new_learn,30,706,A,54.82160086164805,71.56675152711979,2.7410800430824027,1.1241679041944281,A,459,Correct
1,new_learn,30,707,B,49.94550910721232,32.112911079591555,2.497275455360616,0.5044284276651355,A,1296,Incorrect
1,new_learn,30,708,A,84.37400406954751,41.86855675291309,4.2187002034773755,0.6576697515567954,B,713,Incorrect
1,new_learn,30,709,A,66.9754693306082,61.74189486539116,3.3487734665304107,0.9698394166391312,B,659,Incorrect
1,new_learn,30,710,B,17.014063512748848,53.20581096430373,0.8507031756374424,0.8357549242687192,A,552,Incorrect
1,new_learn,30,711,B,44.51638921676887,29.190882425592406,2.2258194608384434,0.45852930890022253,A,826,Incorrect
1,new_learn,30,712,A,58.405419565475,71.73188450574949,2.92027097827375,1.1267618069570704,A,1242,Correct
1,new_learn,30,713,B,30.474928005757857,58.91611709564489,1.5237464002878929,0.92545220322857,B,1611,Correct
1,new_learn,30,714,A,37.474041094288665,77.27351064353516,1.8737020547144334,1.2138094667741137,B,642,Incorrect
1,new_learn,30,715,A,43.15565374078565,79.02670242677002,2.1577826870392824,1.2413485389068366,A,1207,Correct
1,new_learn,30,716,A,35.05363457416142,82.08491821825865,1.7526817287080712,1.2893868802250017,A,754,Correct
1,new_learn,30,717,A,70.36939942845785,52.634323680925746,3.518469971422893,0.826778023013318,B,703,Incorrect
1,new_learn,30,718,B,35.55986943586073,31.68750858195594,1.7779934717930366,0.4977462208581815,B,1404,Correct
1,new_learn,30,719,B,51.55434108356924,27.40100226086942,2.577717054178462,0.4304139370187233,B,839,Correct
1,new_learn,30,720,A,63.34913390384455,50.496069911255184,3.1674566951922274,0.7931904113417793,A,638,Correct
1,new_learn,30,721,A,43.98491226754539,82.90841433530943,2.1992456133772693,1.302322326982934,B,1226,Incorrect
1,new_learn,30,722,A,38.97522586706755,78.22124489589166,1.9487612933533773,1.2286964415979067,A,1165,Correct
1,new_learn,30,723,B,44.1004640621627,39.660134673729615,2.205023203108135,0.622979938656854,B,799,Correct
1,new_learn,30,724,A,70.86690548089962,42.3381680601825,3.543345274044981,0.6650463887215968,A,2818,Correct
1,new_learn,30,725,B,44.418162956919815,41.50053865851463,2.2209081478459907,0.6518889368480438,A,1373,Incorrect
1,new_learn,30,726,B,17.832662909531138,63.46668135150321,0.8916331454765569,0.9969322994080341,B,1751,Correct
1,new_learn,30,727,B,58.9128796083064,18.471585700551543,2.94564398041532,0.29015098968503494,B,1417,Correct
1,new_learn,30,728,B,24.483659955399247,52.44897735039336,1.2241829977699623,0.8238666096614663,B,1341,Correct
1,new_learn,30,729,B,32.07037347072455,47.84983128529347,1.6035186735362275,0.7516233922069451,B,5102,Correct
1,new_learn,30,730,A,56.65518454538514,60.189968993081386,2.8327592272692574,0.9454618220423096,A,902,Correct
1,new_learn,30,731,B,49.46514710693613,20.66171671187179,2.4732573553468065,0.3245534871628493,B,2003,Correct
1,new_learn,30,732,B,22.51423999437787,46.77513305530853,1.1257119997188936,0.7347420718862119,A,950,Incorrect
1,new_learn,30,733,B,42.78428656662191,36.26768544758881,2.1392143283310956,0.5696914708242523,B,689,Correct
1,new_learn,30,734,A,50.309728490732994,75.21362014387829,2.5154864245366495,1.1814527824695065,B,671,Incorrect
1,new_learn,30,735,A,38.02445380036956,81.18496211079672,1.9012226900184777,1.2752504027462235,A,401,Correct
1,new_learn,30,736,A,33.19605367344576,81.6864887336886,1.6598026836722881,1.2831283645165075,A,452,Correct
1,new_learn,30,737,B,51.84966554631395,23.898806064275888,2.5924832773156976,0.3754015678054816,B,621,Correct
1,new_learn,30,738,A,51.8265088387846,61.39757963308756,2.5913254419392295,0.9644309256175109,A,708,Correct
1,new_learn,30,739,B,53.81944775742739,36.8702439845326,2.6909723878713696,0.5791564381893544,B,833,Correct
1,new_learn,30,740,B,51.73318724241734,40.662381507333166,2.586659362120867,0.6387231951045168,B,2921,Correct
1,new_learn,30,741,A,46.57869477568423,67.71038408956684,2.3289347387842114,1.063592226137632,B,735,Incorrect
1,new_learn,30,742,B,31.717598831554536,39.812385123320844,1.5858799415777267,0.6253714831265617,B,1242,Correct
1,new_learn,30,743,A,62.79873321587828,55.21862848098898,3.139936660793914,0.8673721878858955,B,802,Incorrect
1,new_learn,30,744,A,41.60813654486212,74.19479142256587,2.080406827243106,1.1654490583387997,A,668,Correct
1,new_learn,30,745,A,80.93425876311633,37.393863810723296,4.0467129381558165,0.5873814391855277,B,1256,Incorrect
1,new_learn,30,746,B,66.08234551987786,13.026034039367616,3.3041172759938933,0.2046124642174394,A,762,Incorrect
1,new_learn,30,747,B,42.72212673841688,32.84152787744324,2.136106336920844,0.5158735135622003,B,2709,Correct
1,new_learn,30,748,B,42.56313495998025,30.59295905082527,2.1281567479990127,0.4805530770282302,A,1819,Incorrect
1,new_learn,30,749,A,82.37475546114896,36.41242304291882,4.118737773057449,0.5719650036551873,B,515,Incorrect
1,new_learn,30,750,A,50.028343023327295,74.12871851221944,2.5014171511663648,1.1644111874900713,A,670,Correct
1,new_learn,30,751,A,52.50178829696385,76.6657501735695,2.6250894148481927,1.2042627876361818,A,452,Correct
1,new_learn,30,752,A,55.13149666686162,65.04547127176525,2.756574833343081,1.0217318734833183,A,452,Correct
1,new_learn,30,753,A,43.897629808687924,83.75753403808525,2.1948814904343963,1.3156602680842284,A,1390,Correct
1,new_learn,30,754,A,64.2288211269605,64.76693799254866,3.2114410563480247,1.0173566829644827,A,527,Correct
1,new_learn,30,755,B,21.432927165975368,58.50707932298582,1.0716463582987685,0.9190270529204375,A,776,Incorrect
1,new_learn,30,756,A,54.55419536029166,65.19637685681472,2.727709768014583,1.0241022928702037,A,773,Correct
1,new_learn,30,757,B,31.34889600932528,57.68921075318317,1.567444800466264,0.9061800034679676,B,329,Correct
1,new_learn,30,758,B,18.652494358392367,53.125612697717536,0.9326247179196184,0.8344951728430303,B,3149,Correct
1,new_learn,30,759,B,34.427398986282356,33.919583735344375,1.7213699493141177,0.5328075753789087,A,1665,Incorrect
1,new_learn,30,760,A,60.73719928627093,72.16550541190159,3.036859964313546,1.1335731082231224,B,323,Incorrect
1,new_learn,30,761,A,66.09206975754135,49.18393388739668,3.304603487877068,0.7725794268764574,A,336,Correct
1,new_learn,30,762,B,38.33932849337499,44.7199746053264,1.9169664246687494,0.7024597184440776,A,515,Incorrect
1,new_learn,30,763,B,25.59655627209169,55.853061486053,1.2798278136045844,0.8773378382254156,B,524,Correct
1,new_learn,30,764,B,37.92303849094621,51.0738492076184,1.8961519245473106,0.8022661473060343,B,616,Correct
1,new_learn,30,765,A,70.34418211668574,59.34214219238317,3.517209105834287,0.9321441897993593,B,1540,Incorrect
1,new_learn,30,766,A,78.77398454433924,48.5749036870486,3.938699227216962,0.7630128028603179,A,612,Correct
1,new_learn,30,767,A,33.626921494837845,78.76074622507954,1.6813460747418925,1.2371709086597997,A,695,Correct
1,new_learn,30,768,A,85.34809904685565,33.92458299646374,4.267404952342782,0.5328861035889385,B,3289,Incorrect
1,new_learn,30,769,A,51.39120127882731,77.79825450690689,2.5695600639413656,1.2220521241050386,B,1313,Incorrect
1,new_learn,30,770,A,45.56571771058398,76.71937333467743,2.278285885529199,1.2051050982811764,A,503,Correct
1,new_learn,30,771,B,47.49971558851158,38.877120846022784,2.374985779425579,0.610680386212939,A,658,Incorrect
1,new_learn,30,772,B,23.65801449983625,44.262432295433584,1.1829007249918124,0.6952726606467488,B,778,Correct
1,new_learn,30,773,B,36.646700119318744,39.23413038369651,1.8323350059659373,0.6162882789170252,A,343,Incorrect
1,new_learn,30,774,A,46.246862206816054,78.77233118039038,2.3123431103408025,1.237352884712283,A,146,Correct
1,new_learn,30,775,A,63.864445910063644,67.82777688318242,3.1932222955031824,1.0654362278276674,A,407,Correct
1,new_learn,30,776,A,61.28673944812114,67.82422825021327,3.064336972406057,1.0653804860313365,A,388,Correct
1,new_learn,30,777,B,34.91812895940532,37.18055490558528,1.7459064479702662,0.5840307907388934,A,278,Incorrect
1,new_learn,30,778,A,32.502766273964745,88.91041124119772,1.6251383136982371,1.3966014739149708,B,475,Incorrect
1,new_learn,30,779,A,68.23995644815923,43.0063702982368,3.4119978224079612,0.6755424849325152,B,3141,Incorrect
1,new_learn,30,780,B,53.534059441381906,36.338638625615985,2.6767029720690956,0.5708060007384474,B,6292,Correct
1,new_learn,30,781,B,54.90891172662678,22.454659583605576,2.745445586331339,0.3527169679335746,A,531,Incorrect
1,new_learn,30,782,B,66.48036952402416,16.355280706243832,3.3240184762012075,0.2569081485706725,B,398,Correct
1,new_learn,30,783,A,54.0525887802877,60.602396663847564,2.7026294390143852,0.9519402207453904,A,1675,Correct
1,new_learn,30,784,B,61.534241059979436,16.57091792394249,3.0767120529989715,0.2602953700654857,A,351,Incorrect
1,new_learn,30,785,B,15.334091061117931,63.90435320783007,0.7667045530558966,1.0038072328506313,B,110,Correct
1,new_learn,30,786,B,53.169048594821255,18.627575221854954,2.6584524297410628,0.2926012673558539,B,1033,Correct
1,new_learn,30,787,A,38.8151192770269,83.10464240836596,1.940755963851345,1.3054046703466464,B,1513,Incorrect
1,new_learn,30,788,A,51.07155506968532,73.8005927569461,2.553577753484266,1.15925700017897,A,376,Correct
1,new_learn,30,789,A,77.39630523557409,41.53122418911822,3.869815261778705,0.6523709440356226,A,1401,Correct
1,new_learn,30,790,A,76.02369662394078,42.739675722104536,3.8011848311970393,0.6713532563268683,A,619,Correct
1,new_learn,30,791,A,48.44407313809958,77.04922267681249,2.422203656904979,1.2102863596313909,B,526,Incorrect
1,new_learn,30,792,B,41.208485127821675,27.811465631763795,2.0604242563910837,0.43686148057157076,A,330,Incorrect
1,new_learn,30,793,A,41.403848670559675,79.75051579084604,2.0701924335279838,1.2527181726425936,B,387,Incorrect
1,new_learn,30,794,A,73.75232727361293,52.72467890745284,3.6876163636806467,0.828197319592673,A,354,Correct
1,new_learn,30,795,A,59.42536143901705,63.73716259093451,2.971268071950852,1.0011810087816901,A,380,Correct
1,new_learn,30,796,A,71.48724930537372,46.79518587295054,3.574362465268686,0.7350570608091515,A,310,Correct
1,new_learn,30,797,B,23.492146777983955,45.46614466732461,1.1746073388991976,0.7141805303695888,B,1358,Correct
1,new_learn,30,798,A,63.430235913925316,55.06547411370108,3.171511795696266,0.8649664447102111,A,841,Correct
1,new_learn,30,799,B,19.592854081801384,55.25391494836005,0.9796427040900693,0.8679264664192159,B,4212,Correct
1,new_learn,30,800,B,21.643025335121347,60.22481875195922,1.0821512667560673,0.9460092407746594,B,481,Correct
1,new_learn,30,801,A,54.726052897834855,64.01060285309285,2.736302644891743,1.0054761983756517,A,737,Correct
1,new_learn,30,802,B,51.92428187259568,31.33646035807803,2.596214093629784,0.4922319682522286,B,1011,Correct
1,new_learn,30,803,A,74.06550240408396,49.305787924403496,3.7032751202041982,0.7744935056138118,A,1092,Correct
1,new_learn,30,804,B,53.96756841072853,18.22754450068784,2.6983784205364265,0.2863175994817098,B,560,Correct
1,new_learn,30,805,B,38.541716312384004,41.59097418997517,1.9270858156192003,0.6533094948543434,B,1003,Correct
1,new_learn,30,806,A,44.477367990340966,84.26885964149946,2.2238683995170483,1.3236921518806204,A,762,Correct
1,new_learn,30,807,B,46.419891541239906,46.686425508480895,2.3209945770619953,0.7333486569990536,B,337,Correct
1,new_learn,30,808,A,41.466689127656664,69.29272221613577,2.073334456382833,1.088447535307252,B,469,Incorrect
1,new_learn,30,809,B,57.57539619236644,27.930869090708597,2.878769809618322,0.4387370657187418,A,936,Incorrect
1,new_learn,30,810,B,53.18574152604471,31.873970132200768,2.659287076302235,0.5006751520403121,B,1298,Correct
1,new_learn,30,811,A,68.28731180004907,59.67369185861027,3.414365590002453,0.9373521597779553,B,9104,Incorrect
1,new_learn,30,812,A,59.4725290407973,48.86403318208665,2.973626452039865,0.7675544383480564,A,315,Correct
1,new_learn,30,813,A,71.39529733837489,55.32102139773865,3.5697648669187445,0.8689805720610974,A,338,Correct
1,new_learn,30,814,A,53.12850154310277,60.09256437966498,2.6564250771551383,0.9439317939526358,A,1422,Correct
1,new_learn,30,815,B,56.799783780674595,16.68547211029545,2.8399891890337297,0.26209478301690786,A,300,Incorrect
1,new_learn,30,816,B,63.75993482873251,17.616032522258564,3.187996741436626,0.2767119917866319,B,950,Correct
1,new_learn,30,817,A,57.528962087190635,63.229989301942176,2.8764481043595316,0.9932143493877138,B,385,Incorrect
1,new_learn,30,818,A,80.99504263146592,43.30116891581855,4.049752131573296,0.6801731707889314,A,1887,Correct
1,new_learn,30,819,A,79.26288052379292,49.33656728338678,3.9631440261896453,0.7749769866541322,A,425,Correct
1,new_learn,30,820,B,68.04011653357722,12.296926026021097,3.4020058266788613,0.19315966232542509,B,873,Correct
1,new_learn,30,821,B,43.571935935136516,38.74003865464664,2.1785967967568256,0.6085271041861124,A,722,Incorrect
1,new_learn,30,822,A,62.17607267059839,66.48371379581997,3.108803633529919,1.0443237342215719,A,1296,Correct
1,new_learn,30,823,B,37.24298969330512,35.95212813024186,1.8621494846652558,0.5647347080744337,B,933,Correct
1,new_learn,30,824,B,47.24303948044502,22.966417450846336,2.362151974022251,0.36075564171427643,B,511,Correct
1,new_learn,30,825,A,48.9389921547272,69.8155866736858,2.44694960773636,1.0966606710005637,A,462,Correct
1,new_learn,30,826,B,67.63774574135336,18.860104001232912,3.3818872870676677,0.29625382088106395,B,692,Correct
1,new_learn,30,827,A,69.92037553590554,54.075002902392555,3.4960187767952764,0.8494081593050159,A,1041,Correct
1,new_learn,30,828,B,29.881287047765785,38.439609615369775,1.4940643523882893,0.6038079758725262,B,835,Correct
1,new_learn,30,829,B,67.54852516742045,13.702591340245831,3.3774262583710226,0.21523980144829713,B,833,Correct
1,new_learn,30,830,B,31.386730322891076,57.57089317632637,1.5693365161445538,0.9043214753167486,B,1032,Correct
1,new_learn,30,831,B,45.312376454858715,25.656460918419327,2.2656188227429355,0.403010745692099,B,1524,Correct
1,new_learn,30,832,B,53.61660257899962,22.61732610417542,2.6808301289499807,0.35527212766361077,B,602,Correct
1,new_learn,30,833,B,24.443001189485315,52.57126691714614,1.2221500594742658,0.8257875296840723,A,669,Incorrect
1,new_learn,30,834,B,36.04457320978791,34.57778309963658,1.8022286604893958,0.5431465468161979,B,439,Correct
1,new_learn,30,835,A,76.3327196987951,35.267817172924794,3.8166359849397553,0.5539855766930424,B,927,Incorrect
1,new_learn,30,836,B,30.355397750445327,58.32778841895501,1.5177698875222663,0.9162107579856443,A,303,Incorrect
1,new_learn,30,837,A,51.667755452464974,78.866966311142,2.5833877726232486,1.2388394098699869,B,456,Incorrect
1,new_learn,30,838,B,61.50070232888991,23.134088060360625,3.075035116444495,0.36338940548964144,A,463,Incorrect
1,new_learn,30,839,B,36.610459263238226,49.283783754150534,1.8305229631619113,0.7741478649157364,A,712,Incorrect
1,new_learn,30,840,A,81.074588052938,46.94435795394419,4.0537294026468995,0.7374002503780032,A,1606,Correct
1,new_learn,30,841,B,36.42356597157248,34.230789001433465,1.821178298578624,0.5376959762674283,B,727,Correct
1,new_learn,30,842,A,50.612886921728986,65.9712733196994,2.5306443460864494,1.0362743380456598,B,700,Incorrect
1,new_learn,30,843,B,45.63507515197404,35.386723160754485,2.281753757598702,0.5558533475822104,A,884,Incorrect
1,new_learn,30,844,A,54.30046926495701,63.76152805311483,2.7150234632478503,1.0015637405666253,B,1128,Incorrect
1,new_learn,30,845,A,72.81104559057738,44.139277081193626,3.6405522795288685,0.6933381430652111,A,1787,Correct
1,new_learn,30,846,B,52.69956949933421,39.09203395448057,2.6349784749667107,0.6140562334263945,A,382,Incorrect
1,new_learn,30,847,A,70.3109922874489,43.88662013480607,3.515549614372445,0.6893694170319633,B,270,Incorrect
1,new_learn,30,848,B,35.23213302371374,45.8126780338679,1.7616066511856872,0.7196238637623693,A,333,Incorrect
1,new_learn,30,849,B,29.82286143169584,54.297544227326846,1.4911430715847922,0.8529038302626845,B,352,Correct
1,new_learn,30,850,A,60.27870829310577,71.98543766104345,3.013935414655289,1.1307446106069006,B,737,Incorrect
1,new_learn,30,851,A,35.75847868043035,88.97449879339018,1.7879239340215176,1.3976081588307425,A,460,Correct
1,new_learn,30,852,A,40.85008429097359,85.84192960102472,2.04250421454868,1.3484018770227573,A,524,Correct
1,new_learn,30,853,B,30.537105236047804,43.942254231721506,1.52685526180239,0.6902433153827564,A,433,Incorrect
1,new_learn,30,854,B,11.981122270230664,66.99320282768198,0.5990561135115332,1.0523267692194833,B,414,Correct
1,new_learn,30,855,B,50.250928255507624,22.640043949226566,2.5125464127753814,0.3556289787392011,B,847,Correct
1,new_learn,30,856,A,43.801117329142826,70.44796165617885,2.1900558664571412,1.1065939939971343,B,464,Incorrect
1,new_learn,30,857,B,30.71982397379065,59.85093682667975,1.5359911986895325,0.9401363172258196,A,430,Incorrect
1,new_learn,30,858,B,28.367495040387997,51.505107720780686,1.4183747520193999,0.8090403401897777,B,585,Correct
1,new_learn,30,859,B,28.069520113956763,45.91565294933009,1.4034760056978381,0.7212413899519696,B,1646,Correct
1,new_learn,30,860,A,49.567502022134676,65.78497186656405,2.478375101106734,1.0333479216630441,A,1076,Correct
1,new_learn,30,861,B,53.16021529583381,28.190355082274934,2.658010764791691,0.4428130621428131,B,817,Correct
1,new_learn,30,862,B,35.58810483074646,50.06466231711903,1.779405241537323,0.7864138766995745,B,507,Correct
1,new_learn,30,863,A,65.46170492824024,67.42426556641453,3.2730852464120117,1.0590978868856757,B,1066,Incorrect
1,new_learn,30,864,A,58.63195634088804,69.53062440944174,2.931597817044402,1.0921844942210668,A,661,Correct
1,new_learn,30,865,B,43.12174275003769,32.56999149572272,2.1560871375018844,0.5116082300522226,B,1523,Correct
1,new_learn,30,866,A,59.92180107879374,67.5412654534098,2.996090053939687,1.0609357168129516,A,920,Correct
1,new_learn,30,867,B,63.20687686459935,22.23669391055259,3.1603438432299673,0.34929317114758457,B,1016,Correct
1,new_learn,30,868,A,35.13625193083294,84.77213057103673,1.756812596541647,1.3315975131556184,A,1200,Correct
1,new_learn,30,869,B,24.920818111357537,56.64788906026287,1.2460409055678767,0.8898229605654572,B,338,Correct
1,new_learn,30,870,B,64.81641461245603,17.000118276033817,3.240820730622801,0.2670372334307271,B,665,Correct
1,new_learn,30,871,A,73.33916214051146,52.43781816583792,3.666958107025573,0.8236913216003691,B,572,Incorrect
1,new_learn,30,872,A,70.67042206688912,52.16176341135669,3.5335211033444556,0.8193550636570351,A,587,Correct
1,new_learn,30,873,A,59.916131019274495,62.927625474652444,2.995806550963725,0.9884648294950901,A,380,Correct
1,new_learn,30,874,A,79.50137044799857,45.166273815115744,3.9750685223999285,0.7094701700379633,A,923,Correct
1,new_learn,30,875,B,59.92224755410658,14.001640918302968,2.996112377705329,0.21993726123571425,B,1180,Correct
1,new_learn,30,876,B,60.36285135155849,21.46904663261509,3.0181425675779248,0.33723499590300127,B,482,Correct
1,new_learn,30,877,B,57.98569507830872,19.106308181609222,2.899284753915436,0.3001211871028304,B,1086,Correct
1,new_learn,30,878,A,54.270051134433366,56.26284916283987,2.7135025567216684,0.8837747680000417,A,855,Correct
1,new_learn,30,879,A,61.682535638444186,67.13832928150268,3.0841267819222096,1.0546064102253065,B,523,Incorrect
1,new_learn,30,880,B,54.66893987816947,26.148315326619738,2.733446993908473,0.41073677666928976,A,372,Incorrect
1,new_learn,30,881,A,71.69365673060501,60.33878627377833,3.5846828365302508,0.9477994384211331,B,690,Incorrect
1,new_learn,30,882,A,72.71386921276911,37.22757297589047,3.6356934606384557,0.5847693488601771,A,427,Correct
1,new_learn,30,883,B,20.128279621616965,56.728711606075436,1.0064139810808483,0.8910925181463032,B,715,Correct
1,new_learn,30,884,A,53.84920586519561,55.52031766451353,2.6924602932597805,0.8721111104990366,B,612,Incorrect
1,new_learn,30,885,A,75.35413000835939,53.897589684160025,3.7677065004179697,0.8466213589897708,A,869,Correct
1,new_learn,30,886,A,70.10181769685066,54.44074106182362,3.505090884842533,0.8551531608790465,B,686,Incorrect
1,new_learn,30,887,A,59.630837768795324,65.72150700145248,2.981541888439766,1.0323510178930664,A,372,Correct
1,new_learn,30,888,A,54.57010789619191,62.85470639337612,2.7285053948095954,0.9873194192448692,A,890,Correct
1,new_learn,30,889,A,33.853382714306164,79.6335273452845,1.6926691357153083,1.2508805224369388,B,889,Incorrect
1,new_learn,30,890,B,66.1310765265604,19.494898044391874,3.30655382632802,0.30622514239371773,B,578,Correct
1,new_learn,30,891,B,39.84008820664066,45.0382934868742,1.9920044103320327,0.7074598597429251,B,528,Correct
1,new_learn,30,892,B,22.03553203163748,48.1031310399206,1.101776601581874,0.7556022154484084,A,747,Incorrect
1,new_learn,30,893,B,36.904042953174155,43.80891364929734,1.8452021476587077,0.6881488064119107,B,463,Correct
1,new_learn,30,894,B,13.339290803680584,59.72498553531282,0.6669645401840292,0.938157878967477,B,3043,Correct
1,new_learn,30,895,B,12.345119765577095,66.35706180808423,0.6172559882788548,1.0423342894504062,B,839,Correct
1,new_learn,30,896,A,82.20615965144825,43.03493826619018,4.1103079825724125,0.6759912295237668,A,2520,Correct
1,new_learn,30,897,B,35.73231077528362,39.78991051511757,1.786615538764181,0.6250184528064431,B,1274,Correct
1,new_learn,30,898,A,58.14444292974069,68.55633278731297,2.907222146487035,1.0768803572083974,A,513,Correct
