experiment,condition,subject,trial,cat,x,y,xt,yt,resp,rt,fb
1,relearn,11,0,B,78.51562331545735,66.83522897952727,3.925781165772867,1.0498453218153725,A,1095,Incorrect
1,relearn,11,1,A,21.400765183310433,51.72164941128992,1.0700382591655215,0.8124417691102762,A,1361,Correct
1,relearn,11,2,A,60.70113513572851,78.35783362324727,3.0350567567864255,1.2308419723100246,B,885,Incorrect
1,relearn,11,3,A,41.705951229777455,65.93867446503694,2.0852975614888725,1.0357622764340446,A,1010,Correct
1,relearn,11,4,B,84.64222581031396,68.56829294982558,4.232111290515698,1.0770682270018241,A,562,Incorrect
1,relearn,11,5,A,33.33291118530256,64.9212773163673,1.6666455592651277,1.0197810393938258,B,834,Incorrect
1,relearn,11,6,A,26.9517140479852,40.501476165807254,1.3475857023992601,0.636195699910211,A,2489,Correct
1,relearn,11,7,B,52.46079829960647,35.6163348817063,2.6230399149803234,0.559460080060812,B,1198,Correct
1,relearn,11,8,B,35.01259129047763,12.695074269817223,1.7506295645238816,0.199413760314173,A,1087,Incorrect
1,relearn,11,9,B,49.19686028836213,18.68654589620981,2.4598430144181065,0.2935275765425062,A,1562,Incorrect
1,relearn,11,10,B,38.70428087050465,13.122930198170113,1.9352140435252323,0.20613450552071436,B,780,Correct
1,relearn,11,11,A,41.70003847561096,69.21581706718045,2.085001923780548,1.0872395120523457,B,1325,Incorrect
1,relearn,11,12,B,31.58231269528121,16.20494912836289,1.5791156347640607,0.2545467456673059,B,867,Correct
1,relearn,11,13,A,23.793973959227703,53.31695806743061,1.189698697961385,0.8375008188819754,B,781,Incorrect
1,relearn,11,14,A,42.21594720525005,71.58050348553628,2.1107973602625028,1.1243839194520968,A,1184,Correct
1,relearn,11,15,B,51.852955680261154,38.94150255875732,2.5926477840130575,0.6116916917917007,B,1428,Correct
1,relearn,11,16,B,35.668386828696505,10.949971200300737,1.7834193414348252,0.17200174539942303,A,597,Incorrect
1,relearn,11,17,B,57.09040777669531,33.37935379517872,2.854520388834765,0.5243216633225403,A,1026,Incorrect
1,relearn,11,18,A,27.684932450775122,43.26182301214885,1.3842466225387562,0.6795551267793434,B,785,Incorrect
1,relearn,11,19,B,67.12954501899179,39.6111243135437,3.3564772509495895,0.6222100857193045,B,1545,Correct
1,relearn,11,20,A,55.05028060222974,68.27492110683465,2.7525140301114868,1.0724599528682726,A,1219,Correct
1,relearn,11,21,B,62.26715417648044,38.61513327688267,3.113357708824022,0.6065650951002268,A,1217,Incorrect
1,relearn,11,22,B,63.53669112105244,33.937410041702215,3.176834556052622,0.5330875903443808,B,539,Correct
1,relearn,11,23,B,67.40867245399066,39.63862978739913,3.370433622699533,0.6226421406922934,B,1428,Correct
1,relearn,11,24,B,64.89308943683395,34.997565308467635,3.2446544718416974,0.5497404703330546,B,1422,Correct
1,relearn,11,25,B,38.16778884511201,20.762612859403887,1.9083894422556003,0.3261383601421611,B,1000,Correct
1,relearn,11,26,A,23.54580298975666,50.2487345841444,1.177290149487833,0.7893052771086572,A,1167,Correct
1,relearn,11,27,B,55.867747508340905,38.56423884911402,2.793387375417045,0.6057656472982935,B,794,Correct
1,relearn,11,28,B,57.149671585894595,46.45337266261414,2.8574835792947293,0.7296878714566875,B,600,Correct
1,relearn,11,29,A,56.76733835091902,71.85738327796183,2.838366917545951,1.1287331370611546,A,522,Correct
1,relearn,11,30,B,72.26418964282549,44.176762591181586,3.6132094821412744,0.6939269640791823,B,704,Correct
1,relearn,11,31,B,66.24451859558012,52.66198400090475,3.312225929779006,0.827212510303528,B,636,Correct
1,relearn,11,32,B,48.81537196000963,33.55488928063415,2.4407685980004814,0.5270789682802957,A,838,Incorrect
1,relearn,11,33,A,36.50343314331064,65.23745220979012,1.8251716571655319,1.0247475030059594,B,509,Incorrect
1,relearn,11,34,B,75.25347594008508,63.88268598858852,3.762673797004254,1.0034668849666666,B,512,Correct
1,relearn,11,35,A,32.48735682911007,60.996163066287686,1.6243678414555034,0.9581254889310722,A,516,Correct
1,relearn,11,36,B,49.346802648032956,30.57628188817125,2.467340132401648,0.4802911127698472,B,481,Correct
1,relearn,11,37,A,51.47265206786496,73.86269854529118,2.573632603393248,1.1602325556210213,B,557,Incorrect
1,relearn,11,38,B,48.41246231842239,28.291971050231496,2.42062311592112,0.4444092420349119,B,820,Correct
1,relearn,11,39,A,48.409181481950455,67.5628463304949,2.4204590740975225,1.0612747084374945,A,820,Correct
1,relearn,11,40,B,63.70769468243983,55.42870293451374,3.1853847341219916,0.8706720296853968,B,380,Correct
1,relearn,11,41,B,51.76718543294774,22.58983818437602,2.588359271647387,0.35484034842908946,A,511,Incorrect
1,relearn,11,42,A,10.787369273330405,34.80920229306121,0.5393684636665202,0.5467816710060104,A,1150,Correct
1,relearn,11,43,A,29.74368586857384,42.31827525855557,1.487184293428692,0.6647339133243445,B,944,Incorrect
1,relearn,11,44,A,67.11143770721091,83.51163186059658,3.3555718853605456,1.3117976457127278,A,712,Correct
1,relearn,11,45,A,20.17656021617304,46.596123993392986,1.008828010808652,0.7319302041170126,A,1756,Correct
1,relearn,11,46,B,76.87642897216477,52.93143667376613,3.8438214486082387,0.8314450629912851,B,774,Correct
1,relearn,11,47,A,35.312577343606876,60.211970404644134,1.7656288671803437,0.9458074194069803,B,1540,Incorrect
1,relearn,11,48,A,58.022955860568885,78.77112690218289,2.9011477930284446,1.2373339679544353,B,1471,Incorrect
1,relearn,11,49,A,35.062873070969225,66.63016126900806,1.7531436535484612,1.0466241257510944,A,487,Correct
1,relearn,11,50,A,20.66647632225495,32.65809193056772,1.0333238161127476,0.5129921084466583,A,1384,Correct
1,relearn,11,51,B,57.77162297727097,46.003612874963764,2.888581148863549,0.7226230612328749,A,563,Incorrect
1,relearn,11,52,A,52.78537223663761,75.33700097269335,2.6392686118318807,1.1833908439965026,B,481,Incorrect
1,relearn,11,53,B,66.35336259124759,34.27864284717708,3.3176681295623793,0.5384476627185991,B,489,Correct
1,relearn,11,54,A,21.229581346792493,35.566748728103526,1.0614790673396246,0.5586811825814207,A,690,Correct
1,relearn,11,55,A,21.093819295007457,42.894499490156115,1.0546909647503728,0.6737852223884279,A,1227,Correct
1,relearn,11,56,A,49.45461939616883,70.60293417627199,2.4727309698084414,1.1090282966502991,B,767,Incorrect
1,relearn,11,57,A,40.27543113912008,53.728184404634554,2.013771556956004,0.8439603470815881,B,331,Incorrect
1,relearn,11,58,B,88.24591541852637,65.40810843642198,4.412295770926318,1.0274281647453394,A,317,Incorrect
1,relearn,11,59,A,33.952068779442875,53.714347481707804,1.6976034389721437,0.8437429972045132,A,810,Correct
1,relearn,11,60,A,19.88412411558099,44.07957846836193,0.9942062057790494,0.6924003994477033,A,1589,Correct
1,relearn,11,61,B,51.066718728310796,39.853075366399985,2.55333593641554,0.6260106439702127,B,1575,Correct
1,relearn,11,62,B,43.2276140213132,19.774338400918438,2.16138070106566,0.3106145812496195,A,776,Incorrect
1,relearn,11,63,A,28.10054523813217,47.72915211578609,1.4050272619066084,0.7497277682451166,A,933,Correct
1,relearn,11,64,B,66.88355485555877,47.76742984696191,3.3441777427779384,0.7503290334404067,B,770,Correct
1,relearn,11,65,B,86.94062244452036,65.0349383773547,4.347031122226018,1.021566423164812,B,2091,Correct
1,relearn,11,66,A,18.10036624730445,41.833591989610575,0.9050183123652225,0.657120526339167,A,1004,Correct
1,relearn,11,67,A,13.950644579552932,42.16409736886719,0.6975322289776466,0.6623120926963895,A,1440,Correct
1,relearn,11,68,A,50.76313121570148,71.6336242860458,2.5381565607850742,1.1252183390352644,B,767,Incorrect
1,relearn,11,69,B,46.166307380167694,34.34927388315426,2.3083153690083846,0.5395571324373057,A,942,Incorrect
1,relearn,11,70,B,69.27472068640449,54.650742472157134,3.463736034320225,0.8584518553187827,B,898,Correct
1,relearn,11,71,A,17.600709567511835,35.855944743275174,0.8800354783755918,0.5632238629649742,A,795,Correct
1,relearn,11,72,B,44.3048905045413,33.176066172174636,2.215244525227065,0.5211284288075634,A,2185,Incorrect
1,relearn,11,73,A,36.98910365818533,55.10842308201015,1.8494551829092665,0.8656410855268064,B,646,Incorrect
1,relearn,11,74,A,36.353214644223584,54.634538240229155,1.8176607322111793,0.8581973198388727,A,898,Correct
1,relearn,11,75,B,78.4459905151104,47.977478354037736,3.9222995257555198,0.7536284676740412,A,984,Incorrect
1,relearn,11,76,A,51.86733533606668,65.36866063409585,2.5933667668033342,1.0268085201153991,A,1950,Correct
1,relearn,11,77,A,66.14405760150972,79.00907511576503,3.3072028800754856,1.2410716497530576,B,867,Incorrect
1,relearn,11,78,B,61.203619576957855,31.947111533543143,3.0601809788478924,0.5018240544859645,B,991,Correct
1,relearn,11,79,B,38.000626562204275,20.428271870475054,1.9000313281102137,0.3208865441690973,A,563,Incorrect
1,relearn,11,80,B,75.5040850833903,49.39607477337009,3.7752042541695148,0.7759117281209579,B,727,Correct
1,relearn,11,81,B,61.75518868712464,45.989454072354526,3.0877594343562316,0.7224006552815709,B,938,Correct
1,relearn,11,82,B,79.85752231160777,58.98501398081762,3.9928761155803887,0.9265344329701394,B,749,Correct
1,relearn,11,83,A,51.773526370473064,67.48772561850336,2.588676318523653,1.0600947150528692,B,806,Incorrect
1,relearn,11,84,A,33.29182817619548,42.93464369021086,1.664591408809774,0.674415806008309,A,639,Correct
1,relearn,11,85,B,63.616187074530934,48.15406507735784,3.1808093537265467,0.7564022854375609,A,548,Incorrect
1,relearn,11,86,A,55.28390840574134,76.9815217720351,2.764195420287067,1.209222916305941,B,1548,Incorrect
1,relearn,11,87,B,56.11985177310091,35.33772618858481,2.805992588655046,0.5550837049431284,B,742,Correct
1,relearn,11,88,B,82.62699146126336,53.323606500838366,4.131349573063168,0.8376052522297338,A,763,Incorrect
1,relearn,11,89,B,36.55389328459573,11.898084083265598,1.8276946642297867,0.18689466773890426,A,684,Incorrect
1,relearn,11,90,B,44.03276497417065,27.529753296182058,2.2016382487085324,0.4324363535521246,B,641,Correct
1,relearn,11,91,B,34.22686009262691,15.374458380946873,1.7113430046313454,0.24150142751252363,A,894,Incorrect
1,relearn,11,92,B,62.80860853204873,32.89203078824535,3.1404304266024368,0.5166668114300045,B,648,Correct
1,relearn,11,93,B,39.07552309167166,20.3560413346557,1.9537761545835832,0.3197519495656226,A,721,Incorrect
1,relearn,11,94,A,13.838571073231428,38.75138657595512,0.6919285536615715,0.6087053569171935,A,771,Correct
1,relearn,11,95,A,45.04026526063615,74.06871598788699,2.2520132630318073,1.163468670041873,B,1218,Incorrect
1,relearn,11,96,A,31.982651057593976,58.47326234177506,1.599132552879699,0.9184958570217461,A,532,Correct
1,relearn,11,97,A,65.42126110926175,85.52918948125065,3.2710630554630877,1.3434893667089323,B,1366,Incorrect
1,relearn,11,98,A,50.03336118081615,61.504203145308495,2.5016680590408074,0.9661057638309771,A,536,Correct
1,relearn,11,99,B,84.96604214147179,61.571437643535525,4.24830210707359,0.9671618808594662,A,1218,Incorrect
1,relearn,11,100,B,51.955668532055135,28.52224065543072,2.5977834266027564,0.44802630853510644,B,1980,Correct
1,relearn,11,101,A,33.62487137847717,64.57172446232063,1.6812435689238583,1.014290276002254,107,2230,Correct
1,relearn,11,102,B,64.94490247794009,51.52469868042941,3.2472451238970046,0.8093480742643238,107,995,Incorrect
1,relearn,11,103,B,46.961365392753265,19.44684000210043,2.3480682696376634,0.30547024843067416,B,663,Correct
1,relearn,11,104,B,39.40002689945217,26.217208436978687,1.9700013449726086,0.41181894711622297,A,539,Incorrect
1,relearn,11,105,B,73.89795939169858,54.44347422240793,3.694897969584929,0.85519609326511,B,557,Correct
1,relearn,11,106,A,68.42411059009872,82.41632580712344,3.4212055295049364,1.2945926184576093,A,1941,Correct
1,relearn,11,107,B,75.58683877234988,60.35119596006461,3.779341938617494,0.9479943693174849,B,867,Correct
1,relearn,11,108,B,73.61233726190903,41.37796443641091,3.6806168630954517,0.6499635454696412,A,967,Incorrect
1,relearn,11,109,A,22.93957869085581,42.66288045926101,1.1469789345427905,0.6701469591589696,A,827,Correct
1,relearn,11,110,A,48.96540521371051,69.40411071923357,2.4482702606855256,1.090197221822384,A,846,Correct
1,relearn,11,111,B,89.34987869579268,68.3045611787999,4.467493934789633,1.0729255380299618,B,639,Correct
1,relearn,11,112,B,31.79212957020132,10.383000627559255,1.589606478510066,0.16309579246879183,A,840,Incorrect
1,relearn,11,113,A,11.67517406482811,33.8373284195832,0.5837587032414056,0.5315155119003385,A,887,Correct
1,relearn,11,114,B,46.45737233699231,18.322159405852027,2.3228686168496155,0.28780380693662927,B,1923,Correct
1,relearn,11,115,A,13.007307748638404,30.201230857990296,0.6503653874319201,0.47439982496415845,A,1213,Correct
1,relearn,11,116,B,72.96058616764257,56.96027459351171,3.648029308382129,0.8947299010471687,B,1208,Correct
1,relearn,11,117,A,17.49412050790469,34.09030948435103,0.8747060253952345,0.5354893291731982,A,740,Correct
1,relearn,11,118,B,77.30141776529553,59.86124576532064,3.865070888264776,0.9402982496553219,B,2008,Correct
1,relearn,11,119,A,31.745456240004813,46.812986725667876,1.5872728120002406,0.7353366759497735,A,923,Correct
1,relearn,11,120,A,33.39190906749373,64.02303186269344,1.6695954533746862,1.0056714328019147,B,1478,Incorrect
1,relearn,11,121,A,57.39631956135929,65.80008796280336,2.8698159780679644,1.0335853647475262,A,621,Correct
1,relearn,11,122,B,40.32875506694823,27.884391063741667,2.016437753347412,0.43800699057837844,A,1684,Incorrect
1,relearn,11,123,B,68.04509481968427,49.731725068086874,3.402254740984213,0.7811841106212454,B,617,Correct
1,relearn,11,124,B,54.10562357842834,25.984644866684302,2.705281178921417,0.4081658470965757,B,587,Correct
1,relearn,11,125,A,58.87208768895782,68.66162156528408,2.943604384447891,1.0785342294652946,A,816,Correct
1,relearn,11,126,B,35.3010340009091,22.015003147959636,1.765051700045455,0.3458108607919308,B,856,Correct
1,relearn,11,127,A,48.3140198643903,57.309729227596236,2.4157009932195153,0.9002191216031831,B,295,Incorrect
1,relearn,11,128,A,28.634593927974585,44.790177749157316,1.4317296963987292,0.7035624668486682,A,431,Correct
1,relearn,11,129,B,32.26166777846944,14.679213474960854,1.613083388923472,0.2305805460670666,B,1192,Correct
1,relearn,11,130,B,53.79615907381543,44.13637533555115,2.6898079536907717,0.6932925625512462,B,897,Correct
1,relearn,11,131,A,29.6958658378829,39.065939784771764,1.484793291894145,0.613646347167101,A,561,Correct
1,relearn,11,132,B,56.99827181299643,40.60891301410216,2.8499135906498214,0.6378833139768514,B,811,Correct
1,relearn,11,133,B,37.91826039505605,27.62655872836313,1.8959130197528027,0.43395696972496295,A,860,Incorrect
1,relearn,11,134,B,81.35198243421455,64.49231810379098,4.067599121710727,1.0130429638392289,B,728,Correct
1,relearn,11,135,A,19.14823099115244,43.45003157914742,0.9574115495576221,0.6825115000364702,A,867,Correct
1,relearn,11,136,A,42.4523541417208,51.01052908525528,2.12261770708604,0.8012715171498322,B,782,Incorrect
1,relearn,11,137,A,28.308818573151484,50.264784119044194,1.4154409286575742,0.7895573826133307,A,651,Correct
1,relearn,11,138,B,57.6141063929829,30.02015168379251,2.880705319649145,0.471555439947269,B,2607,Correct
1,relearn,11,139,B,49.87406985939555,34.11168243781668,2.4937034929697774,0.5358250547411643,A,461,Incorrect
1,relearn,11,140,A,45.434301149596934,74.37680548390051,2.2717150574798466,1.1683081285284944,B,850,Incorrect
1,relearn,11,141,A,24.854930346250924,43.327834573654954,1.2427465173125463,0.6805920339627413,A,328,Correct
1,relearn,11,142,A,47.52348621126943,70.27739279171858,2.376174310563471,1.103914704539537,B,257,Incorrect
1,relearn,11,143,A,33.72028027560949,59.634620608824534,1.6860140137804747,0.9367384300214882,A,384,Correct
1,relearn,11,144,B,32.20580630910145,16.508851098612805,1.6102903154550723,0.2593204266530489,A,618,Incorrect
1,relearn,11,145,B,59.58681906932567,42.04713118743877,2.9793409534662834,0.6604747922149197,B,388,Correct
1,relearn,11,146,A,60.16024998790336,69.00546295821553,3.0080124993951682,1.0839352774354627,B,414,Incorrect
1,relearn,11,147,B,66.50595001516372,56.23010879075202,3.325297500758186,0.8832604834379069,A,305,Incorrect
1,relearn,11,148,B,44.43313791142456,17.00052266196523,2.2216568955712277,0.2670435855100838,B,748,Correct
1,relearn,11,149,B,44.49224487910926,22.60803876727297,2.224612243955463,0.35512624251669,B,2793,Correct
1,relearn,11,150,B,47.76215204676106,24.120240371455154,2.388107602338053,0.37887984976891725,A,596,Incorrect
1,relearn,11,151,A,55.153444158263525,69.22721432480563,2.7576722079131764,1.0874185397564775,B,276,Incorrect
1,relearn,11,152,A,46.31729558825452,64.68833607856071,2.315864779412726,1.0161220069867694,B,280,Incorrect
1,relearn,11,153,B,40.2323911041886,23.486679078136035,2.01161955520943,0.36892789224546635,A,126,Incorrect
1,relearn,11,154,A,49.149372884300924,57.17994383330328,2.457468644215046,0.898180457396913,A,1306,Correct
1,relearn,11,155,B,65.02932869153703,49.51334069386306,3.2514664345768516,0.7777537368926436,B,1005,Correct
1,relearn,11,156,B,58.606138568097705,27.732785922881412,2.9303069284048853,0.43562558259451334,B,598,Correct
1,relearn,11,157,B,35.45944095723984,25.10427609603648,1.7729720478619921,0.39433704678499026,100,778,Correct
1,relearn,11,158,B,61.7080432166345,30.8671712202146,3.085402160831725,0.4848603917126224,107,1053,Incorrect
1,relearn,11,159,B,85.65721620712665,61.94773280682213,4.282860810356333,0.9730727114622791,A,355,Incorrect
1,relearn,11,160,A,31.240421177322272,60.21672153899831,1.5620210588661134,0.9458820500508967,B,391,Incorrect
1,relearn,11,161,A,43.22448218067765,61.676726311952685,2.1612241090338826,0.9688157513954944,A,396,Correct
1,relearn,11,162,B,75.45484581187803,46.93797575733795,3.772742290593902,0.7372999990681436,B,909,Correct
1,relearn,11,163,A,13.25229007751431,41.36040638964928,0.6626145038757155,0.6496877443160525,A,1497,Correct
1,relearn,11,164,B,39.90511093361624,30.281772628210543,1.9952555466808122,0.47566497213231357,B,661,Correct
1,relearn,11,165,A,34.85454996453509,57.720490918779625,1.7427274982267544,0.9066713511601723,B,685,Incorrect
1,relearn,11,166,B,62.13113202383937,30.008400816294568,3.1065566011919685,0.47137085775224485,A,274,Incorrect
1,relearn,11,167,B,50.66060690092961,21.70350617394354,2.5330303450464804,0.34091787776600874,100,903,Correct
1,relearn,11,168,B,37.06030899853533,20.95552682550153,1.8530154499267664,0.3291686456354972,A,442,Incorrect
1,relearn,11,169,A,35.23852225966141,62.916457647676054,1.7619261129830703,0.9882894056791623,B,520,Incorrect
1,relearn,11,170,A,48.899579530363226,79.99164665841917,2.4449789765181613,1.256505847453201,A,761,Correct
1,relearn,11,171,A,43.217213383490126,56.49529995216108,2.1608606691745065,0.8874260964603053,A,697,Correct
1,relearn,11,172,B,48.21949975888819,38.12361288515384,2.4109749879444093,0.5988443108415024,A,508,Incorrect
1,relearn,11,173,B,53.67993920899357,26.12937002700471,2.683996960449678,0.4104391845988367,B,739,Correct
1,relearn,11,174,A,27.376691800614893,56.18870602035157,1.3688345900307446,0.8826101302412652,A,1126,Correct
1,relearn,11,175,A,33.595116357045924,49.084317922398455,1.6797558178522962,0.7710146629573639,B,1088,Incorrect
1,relearn,11,176,A,50.904248072778365,72.18737633483796,2.545212403638918,1.133916655877243,A,774,Correct
1,relearn,11,177,A,20.61033518408496,49.23253801770095,1.030516759204248,0.7733428987699476,A,743,Correct
1,relearn,11,178,A,19.683627708348475,39.96244723841089,0.9841813854174236,0.6277286533183069,A,907,Correct
1,relearn,11,179,A,42.39284353006228,58.916962041861524,2.119642176503114,0.9254654756127043,A,1056,Correct
1,relearn,11,180,A,61.371449355349085,84.74016644901766,3.0685724677674546,1.331095421901051,B,799,Incorrect
1,relearn,11,181,B,37.83474711043369,13.561371749112283,1.8917373555216843,0.21302152929805654,A,399,Incorrect
1,relearn,11,182,A,37.31487069914167,61.64050413696964,1.8657435349570834,0.9682467748013754,B,511,Incorrect
1,relearn,11,183,B,50.469287594591684,25.687826462687617,2.5234643797295844,0.40350343450934445,B,1080,Correct
1,relearn,11,184,B,83.62055634641038,59.71592962748846,4.181027817320519,0.938015629100014,A,631,Incorrect
1,relearn,11,185,B,75.3898365505311,46.7196168377297,3.7694918275265548,0.7338700251797081,A,1156,Incorrect
1,relearn,11,186,A,47.63865453456214,78.9782967125063,2.381932726728107,1.2405881837252235,B,929,Incorrect
1,relearn,11,187,A,33.41445812304057,47.893258302614434,1.6707229061520283,0.7523055421998593,B,591,Incorrect
1,relearn,11,188,A,54.516951628729345,69.32998341231897,2.725847581436467,1.0890328328082175,A,887,Correct
1,relearn,11,189,B,67.75968651664034,53.276533070819646,3.387984325832017,0.8368658245201033,A,440,Incorrect
1,relearn,11,190,B,33.61803464423759,21.75766017251111,1.6809017322118793,0.3417685267863207,A,861,Incorrect
1,relearn,11,191,B,40.06291826427789,16.493598933173033,2.0031459132138947,0.25908084619856425,B,506,Correct
1,relearn,11,192,B,48.706618493632845,41.921605561652754,2.4353309246816424,0.6585030402958865,B,3638,Correct
1,relearn,11,193,A,56.465596177266484,84.64210350429518,2.823279808863324,1.3295550527674032,A,1075,Correct
1,relearn,11,194,B,52.79822482313785,27.16211629884146,2.639911241156893,0.4266615251019596,B,784,Correct
1,relearn,11,195,A,43.18980152715723,68.66803579961828,2.1594900763578613,1.0786349840226086,A,809,Correct
1,relearn,11,196,A,39.99466187422699,57.70809428127649,1.9997330937113498,0.9064766252336268,A,825,Correct
1,relearn,11,197,B,64.7950763149516,36.202454081077526,3.23975381574758,0.5686668189151748,B,734,Correct
1,relearn,11,198,B,68.12963302864148,44.14609223279185,3.406481651432074,0.6934451952161815,B,540,Correct
1,relearn,11,199,B,38.0518071574863,27.953281138363053,1.902590357874315,0.43908911334005746,A,776,Incorrect
1,relearn,11,200,B,78.31652402761371,60.852985647201535,3.9158262013806855,0.9558764632912673,B,1176,Correct
1,relearn,11,201,A,50.84750258929279,60.25538522318614,2.5423751294646393,0.9464893777819228,A,661,Correct
1,relearn,11,202,B,86.49760493991879,65.26677517543355,4.3248802469959395,1.0252081070731935,B,577,Correct
1,relearn,11,203,B,79.29409712903072,59.124284306099725,3.9647048564515357,0.928722086123986,B,715,Correct
1,relearn,11,204,B,48.93722465194243,19.40464100943775,2.4468612325971213,0.3048073882039843,A,596,Incorrect
1,relearn,11,205,B,68.22090856914517,37.86623981754801,3.4110454284572587,0.5948015041493907,B,573,Correct
1,relearn,11,206,B,44.068125685647146,19.74685327987739,2.2034062842823574,0.31018284597789153,B,943,Correct
1,relearn,11,207,B,45.14750074587002,23.20983343352091,2.257375037293501,0.3645792110289602,B,872,Correct
1,relearn,11,208,B,77.45032488206658,51.64734556341568,3.872516244103329,0.8112746069972007,A,891,Incorrect
1,relearn,11,209,A,37.03334569277038,63.09493161279769,1.8516672846385192,0.9910928681675781,A,672,Correct
1,relearn,11,210,A,12.107538492234632,39.35833623335953,0.6053769246117315,0.6182392998411964,A,798,Correct
1,relearn,11,211,B,49.564709867104995,30.49711230529516,2.4782354933552497,0.47904751987009075,B,1745,Correct
1,relearn,11,212,A,13.240585180462269,40.87196912202661,0.6620292590231134,0.6420153896575383,A,702,Correct
1,relearn,11,213,A,32.72611336797984,48.167492603494765,1.6363056683989923,0.7566132045248993,A,1504,Correct
1,relearn,11,214,A,26.593828433322564,37.525602065669574,1.3296914216661282,0.5894507788552075,A,729,Correct
1,relearn,11,215,A,44.037804715201325,72.29343165176556,2.2018902357600663,1.1355825688999126,B,556,Incorrect
1,relearn,11,216,A,28.76741371671084,45.62575035968813,1.438370685835542,0.7166876107225905,A,523,Correct
1,relearn,11,217,B,74.97960012782085,48.08626988406679,3.7489800063910423,0.7553373610316017,B,550,Correct
1,relearn,11,218,B,86.7034762873319,62.10883690325129,4.335173814366595,0.9756033286913044,B,530,Correct
1,relearn,11,219,B,70.9180499714019,50.272644344265,3.545902498570095,0.7896808507423767,B,478,Correct
1,relearn,11,220,A,66.00845351342352,86.7563881405494,3.300422675671176,1.3627661581716732,B,461,Incorrect
1,relearn,11,221,B,37.03302132238479,27.37238433066009,1.8516510661192396,0.42996440762219046,A,292,Incorrect
1,relearn,11,222,A,50.46985074613147,80.69564796554205,2.5234925373065735,1.2675642741260753,B,366,Incorrect
1,relearn,11,223,B,50.513327991223676,40.05016451944369,2.5256663995611834,0.6291065131467344,A,486,Incorrect
1,relearn,11,224,A,69.26168556133231,87.60226725786306,3.463084278066616,1.376053196275561,B,639,Incorrect
1,relearn,11,225,B,44.87917330811696,31.442731559795355,2.243958665405848,0.49390127238524517,A,703,Incorrect
1,relearn,11,226,B,74.70136985276349,63.79633735017261,3.7350684926381748,1.002110523726192,B,602,Correct
1,relearn,11,227,B,55.779799999360456,44.15811247556099,2.7889899999680225,0.693634008748071,B,448,Correct
1,relearn,11,228,B,71.2269887039715,60.002896526243475,3.5613494351985753,0.942523294604775,B,1874,Correct
1,relearn,11,229,A,32.38239613885467,56.63967253202006,1.6191198069427337,0.8896938956416289,A,535,Correct
1,relearn,11,230,B,80.86177146022246,58.90878333550053,4.043088573011123,0.9253370047936064,B,683,Correct
1,relearn,11,231,B,55.883102915742604,36.59403332569091,2.7941551457871303,0.5748177313060532,B,516,Correct
1,relearn,11,232,B,66.20058776183147,50.97323883650745,3.310029388091573,0.8006857632922486,B,412,Correct
1,relearn,11,233,B,73.8525786902315,46.37136227263762,3.692628934511575,0.7283996552633462,B,406,Correct
1,relearn,11,234,B,34.52685621376977,14.964598454150575,1.7263428106884886,0.23506336283740306,A,670,Incorrect
1,relearn,11,235,B,36.14695125095483,19.22353034553355,1.8073475625477413,0.30196250854794326,A,628,Incorrect
1,relearn,11,236,A,66.17086248961337,84.87596772625696,3.3085431244806682,1.3332285833756663,B,533,Incorrect
1,relearn,11,237,B,44.975314573405555,33.82360433925769,2.248765728670278,0.531299934550699,B,1157,Correct
1,relearn,11,238,B,57.181524553849094,48.67699660648312,2.8590762276924546,0.7646164746887133,B,522,Correct
1,relearn,11,239,B,83.62079719585526,62.44511005984861,4.181039859792763,0.9808854950831326,B,616,Correct
1,relearn,11,240,B,62.618986748667226,39.24493957781057,3.1309493374333615,0.6164580693411251,B,598,Correct
1,relearn,11,241,B,43.205249864608504,23.46928035295274,2.1602624932304253,0.368654593709378,A,879,Incorrect
1,relearn,11,242,A,51.952736027847294,58.85038510808369,2.597636801392365,0.9244196875824294,B,658,Incorrect
1,relearn,11,243,B,36.24821154585878,18.378575110133237,1.812410577292939,0.288689982747214,A,1137,Incorrect
1,relearn,11,244,B,76.31708310016967,59.67667963299059,3.8158541550084832,0.9373990916281745,B,742,Correct
1,relearn,11,245,B,44.916328933464484,26.17484758117397,2.245816446673224,0.41115354434924356,B,1283,Correct
1,relearn,11,246,A,53.73029982994356,66.85479841250961,2.686514991497178,1.0501527177498338,A,978,Correct
1,relearn,11,247,A,36.019934810433384,55.72934023825315,1.8009967405216691,0.8753944294095106,B,508,Incorrect
1,relearn,11,248,A,24.600073777561846,42.36763342421011,1.2300036888780923,0.6655092295774192,A,455,Correct
1,relearn,11,249,A,41.831016114402914,69.25992992148602,2.091550805720146,1.0879324351474218,A,504,Correct
1,relearn,11,250,B,80.48833539960701,50.19506787699519,4.024416769980351,0.7884622824440454,B,533,Correct
1,relearn,11,251,A,26.911203351183275,46.60858082611104,1.3455601675591637,0.7321258755877827,A,863,Correct
1,relearn,11,252,A,41.54554914688545,71.95069849585072,2.0772774573442723,1.1301989290760937,A,446,Correct
1,relearn,11,253,A,36.66940917291131,62.213333117528165,1.8334704586455655,0.9772447513868054,A,436,Correct
1,relearn,11,254,B,75.38607509436792,44.73584990243478,3.769303754718396,0.7027090870279239,B,583,Correct
1,relearn,11,255,A,43.114058074213816,61.14434714450771,2.1557029037106905,0.9604531589886474,A,673,Correct
1,relearn,11,256,A,66.94053610361199,79.28382661828864,3.347026805180599,1.2453874362625124,B,591,Incorrect
1,relearn,11,257,B,37.40256288480194,15.613137837029985,1.870128144240097,0.24525059564149118,A,742,Incorrect
1,relearn,11,258,A,23.34815186052179,53.96875180625171,1.1674075930260894,0.8477391709896562,A,732,Correct
1,relearn,11,259,A,25.093971735756732,47.2459646190317,1.2546985867878364,0.7421378767945666,A,481,Correct
1,relearn,11,260,A,22.650536978638957,42.934372745612166,1.1325268489319478,0.674411550020505,A,761,Correct
1,relearn,11,261,B,72.89247749057282,53.09862589978083,3.6446238745286403,0.8340712652123208,B,490,Correct
1,relearn,11,262,A,54.53026471893787,74.21165115460171,2.7265132359468938,1.1657138903903261,B,372,Incorrect
1,relearn,11,263,B,51.064910702355974,26.551343206791188,2.5532455351177985,0.4170675238069822,B,610,Correct
1,relearn,11,264,A,24.47847748229824,38.79307931251411,1.223923874114912,0.6093602648916026,A,656,Correct
1,relearn,11,265,A,33.10037813657811,48.65822843071255,1.6550189068289054,0.7643216648731028,A,322,Correct
1,relearn,11,266,A,21.019526270403286,49.011891557471586,1.0509763135201644,0.7698769922774618,A,375,Correct
1,relearn,11,267,B,34.26102861171708,15.285687084591366,1.713051430585854,0.24010701125012307,A,536,Incorrect
1,relearn,11,268,A,58.46594378628807,71.25595310125999,2.9232971893144035,1.119285893937286,B,571,Incorrect
1,relearn,11,269,B,45.59382518744576,20.67329312526782,2.279691259372288,0.32473532903924873,A,1428,Incorrect
1,relearn,11,270,B,65.11493736824481,53.89839935531227,3.25574686841224,0.8466340772744894,B,542,Correct
1,relearn,11,271,B,47.71404639431475,31.555862771544504,2.3857023197157377,0.49567833330385935,B,447,Correct
1,relearn,11,272,A,35.82555748867267,61.72276520355845,1.7912778744336335,0.9695389286137348,A,889,Correct
1,relearn,11,273,B,68.74002403692211,47.13098683439711,3.4370012018461056,0.7403318099768962,B,652,Correct
1,relearn,11,274,A,18.135343588394083,32.38085358263987,0.9067671794197041,0.5086372586609408,A,522,Correct
1,relearn,11,275,A,60.486983747750436,81.3868928041469,3.024349187387522,1.2784223226600395,B,649,Incorrect
1,relearn,11,276,A,35.23798470833326,56.4671176683766,1.761899235416663,0.8869834101818117,A,884,Correct
1,relearn,11,277,A,16.56949811658118,36.66162122364296,0.8284749058290589,0.5758793995244419,A,668,Correct
1,relearn,11,278,A,58.20575273445212,78.47933181331899,2.910287636722606,1.2327504614167935,B,491,Incorrect
1,relearn,11,279,A,63.09976158325507,77.7742494978547,3.154988079162753,1.2216750543046,A,582,Correct
1,relearn,11,280,B,86.87660392336147,63.027535905364175,4.343830196168073,0.9900342188707949,B,559,Correct
1,relearn,11,281,B,54.38860761560048,44.01843466843064,2.7194303807800235,0.6914399548843199,A,671,Incorrect
1,relearn,11,282,B,41.41353666442397,32.47070752958602,2.070676833221199,0.5100486811590511,B,1288,Correct
1,relearn,11,283,B,61.34421760289616,41.64064810874917,3.067210880144808,0.6540897709458207,B,604,Correct
1,relearn,11,284,A,10.787351860862497,31.65876279003866,0.5393675930431249,0.49729468301463675,A,606,Correct
1,relearn,11,285,B,53.42510525263367,34.37482130702618,2.6712552626316834,0.5399584304330767,B,1655,Correct
1,relearn,11,286,B,43.54405934156479,30.88049348230358,2.177202967078239,0.48506965731616214,B,428,Correct
1,relearn,11,287,B,55.196937739447634,37.55469847605057,2.759846886972382,0.5899078242007013,B,476,Correct
1,relearn,11,288,A,28.991562196083606,46.06761159016065,1.4495781098041802,0.7236283507003836,A,869,Correct
1,relearn,11,289,A,30.114579664760335,45.7639913910176,1.5057289832380167,0.7188590957648371,A,420,Correct
1,relearn,11,290,B,56.803242241795694,42.10306863760355,2.8401621120897844,0.6613534556274107,A,938,Incorrect
1,relearn,11,291,B,68.32150963852673,43.077715113167244,3.4160754819263364,0.6766631666648011,B,537,Correct
1,relearn,11,292,B,58.04835433773298,42.564915567528175,2.9024177168866494,0.6686081302380816,B,431,Correct
1,relearn,11,293,A,45.32371007637523,75.05631419436548,2.2661855038187615,1.1789818263927296,B,457,Incorrect
1,relearn,11,294,A,32.957995004380805,55.427438081447875,1.6478997502190402,0.8706521614198988,A,571,Correct
1,relearn,11,295,A,47.63844374070356,69.53278385712007,2.381922187035178,1.0922184147458767,A,724,Correct
1,relearn,11,296,B,62.46669169852332,53.465099780946204,3.123334584926166,0.8398278234763291,A,481,Incorrect
1,relearn,11,297,A,23.793116402332856,43.96710765167944,1.1896558201166427,0.6906337119905385,B,410,Incorrect
1,relearn,11,298,A,36.498172589404774,44.00345321770722,1.8249086294702386,0.6912046268066557,A,2130,Correct
1,relearn,11,299,B,60.42572366578875,27.90989998778927,3.0212861832894373,0.43840768382032314,B,608,Correct
1,relearn,11,300,A,44.28800814655708,72.20948868118644,2.214400407327854,1.1342639958014533,A,561,Correct
1,relearn,11,301,A,56.658763527722016,66.00131763673669,2.8329381763861012,1.036746273074092,A,453,Incorrect
1,relearn,11,302,B,49.89027298192227,31.662233582517985,2.4945136490961137,0.49734920209541267,B,380,Correct
1,relearn,11,303,A,39.28351756156416,67.957144509491,1.9641758780782081,1.0674683297497845,B,549,Correct
1,relearn,11,304,B,37.47802216451839,19.679485157010504,1.8739011082259196,0.3091246299784679,B,508,Correct
1,relearn,11,305,A,43.10125085137266,53.30849786533103,2.155062542568633,0.8373679263381556,B,370,Correct
1,relearn,11,306,A,47.036878540776236,55.05296145214152,2.3518439270388116,0.8647698962820493,B,361,Incorrect
1,relearn,11,307,B,68.94339689659974,45.57293981143826,3.4471698448299866,0.7158580645705213,B,685,Incorrect
1,relearn,11,308,B,75.36884978893798,53.787265626725095,3.768442489446899,0.8448883927480118,B,473,Correct
1,relearn,11,309,B,71.31313878801711,42.9418698400428,3.5656569394008555,0.6745293141044378,B,536,Correct
1,relearn,11,310,A,26.076876495539096,56.84066924683372,1.3038438247769548,0.8928511446549005,A,718,Correct
1,relearn,11,311,B,76.8701030990393,55.142772748481214,3.8435051549519645,0.8661806488260001,B,666,Correct
1,relearn,11,312,A,24.399619277916727,44.42066041468703,1.2199809638958363,0.6977581021319386,A,662,Correct
1,relearn,11,313,B,88.04767740318704,64.5620835068811,4.402383870159352,1.014138836228342,B,607,Incorrect
1,relearn,11,314,B,50.26221299685955,29.768660647137168,2.5131106498429774,0.4676050279812685,A,646,Incorrect
1,relearn,11,315,A,52.564611176172704,78.36899050692114,2.628230558808635,1.2310172242289585,A,722,Correct
1,relearn,11,316,A,61.40987965213851,85.57090259222304,3.0704939826069255,1.3441445947238781,A,523,Correct
1,relearn,11,317,B,53.04295235361563,42.12122701924497,2.652147617680782,0.6616386868192394,B,443,Correct
1,relearn,11,318,B,70.31497026850856,48.85047621020965,3.515748513425428,0.7673414859317881,B,596,Correct
1,relearn,11,319,B,57.664672145482,44.031708834784716,2.8832336072740996,0.6916484650018222,B,420,Incorrect
1,relearn,11,320,B,49.30635059199268,28.06059249976642,2.465317529599634,0.44077475626321505,A,1104,Correct
1,relearn,11,321,A,61.15149931329748,71.67067430871471,3.0575749656648736,1.1258003194304242,A,802,Correct
1,relearn,11,322,A,59.18807179035497,68.58701193011738,2.9594035895177484,1.0773622640566614,A,599,Incorrect
1,relearn,11,323,B,73.8011372714756,41.592904414941906,3.6900568635737794,0.6533398147572197,B,660,Incorrect
1,relearn,11,324,A,59.932426442509524,73.47335624448644,2.996621322125476,1.1541167810613218,B,448,Incorrect
1,relearn,11,325,A,39.14422520223064,65.66412918643317,1.9572112601115321,1.031449729282348,A,783,Incorrect
1,relearn,11,326,B,49.5001232146821,29.80581514265213,2.475006160734105,0.4681886494320568,B,1087,Incorrect
1,relearn,11,327,A,48.31276063634901,57.26989749101865,2.415638031817451,0.8995934461481234,B,847,Correct
1,relearn,11,328,A,42.256794809817926,64.89996032916943,2.1128397404908963,1.0194461929419385,B,435,Incorrect
1,relearn,11,329,B,49.617235186790616,35.053738804519206,2.480861759339531,0.550622841545665,B,1356,Incorrect
1,relearn,11,330,B,41.129690141282765,13.742569101514714,2.0564845070641384,0.21586777065384355,A,874,Incorrect
1,relearn,11,331,B,55.564865221921195,36.6790390494416,2.7782432610960597,0.5761529980922944,B,556,Incorrect
1,relearn,11,332,A,36.71626779958928,49.26807097317682,1.835813389979464,0.7739010491293642,B,981,Correct
1,relearn,11,333,B,48.409865922305286,30.445704423340473,2.4204932961152643,0.47824000674866346,B,600,Correct
1,relearn,11,334,B,40.82327841249736,20.332526984841568,2.041163920624868,0.31938258702247246,B,480,Correct
1,relearn,11,335,A,61.333313481047774,82.9945837311316,3.066665674052389,1.30367587268733,A,809,Correct
1,relearn,11,336,A,12.217453637739812,39.15838177266865,0.6108726818869905,0.6150984225174014,B,1926,Correct
1,relearn,11,337,A,53.71464438155148,73.08066483171531,2.6857322190775736,1.147948398773874,A,668,Correct
1,relearn,11,338,A,28.506109075037813,50.47592968263625,1.4253054537518905,0.792874049370425,100,774,Correct
1,relearn,11,339,A,41.783109260799186,48.872927419912564,2.0891554630399596,0.7676941487091222,B,720,Correct
1,relearn,11,340,A,36.386819957157364,58.49289094180897,1.8193409978578683,0.9188041823500801,B,394,Incorrect
1,relearn,11,341,A,65.7966516677464,88.06128917272645,3.2898325833873203,1.3832634956534189,B,889,Correct
1,relearn,11,342,B,40.054726572183135,20.057303248742848,2.002736328609157,0.3150593826853661,A,642,Correct
1,relearn,11,343,B,37.93192326360433,19.295573049759067,1.8965961631802168,0.3030941526996414,A,586,Correct
1,relearn,11,344,A,30.581788138333103,62.74744243794271,1.5290894069166552,0.985634520972946,B,826,Correct
1,relearn,11,345,A,44.38041115107427,63.85626597053555,2.2190205575537134,1.0030518802935522,B,574,Correct
1,relearn,11,346,A,19.087240348596648,31.90339407981988,0.9543620174298324,0.5011373423287112,B,1032,Incorrect
1,relearn,11,347,B,60.318736348142316,49.78085153554888,3.0159368174071157,0.7819557873676227,B,614,Incorrect
1,relearn,11,348,B,54.13469275247808,27.382529284952923,2.706734637623904,0.4301237641915774,A,798,Incorrect
1,relearn,11,349,B,68.77502383163738,56.18399644994409,3.4387511915818694,0.882536152482297,B,620,Correct
1,relearn,11,350,A,41.75711596078428,56.877279675113094,2.087855798039214,0.8934262199175368,B,614,Correct
1,relearn,11,351,A,30.93345497228111,57.48546711621,1.5466727486140552,0.902979605902315,B,406,Incorrect
1,relearn,11,352,A,49.16347496846037,63.94942648875748,2.4581737484230186,1.004515242291805,B,797,Incorrect
1,relearn,11,353,B,40.84105205517109,25.675618434500905,2.042052602758554,0.4033116712510135,A,951,Incorrect
1,relearn,11,354,A,56.788054826017785,74.92757454027792,2.8394027413008893,1.1769595886351936,B,770,Correct
1,relearn,11,355,A,28.5849883889704,53.25444781220164,1.4292494194485201,0.8365189100889686,B,1611,Incorrect
1,relearn,11,356,B,69.61515477803795,42.022491445539885,3.4807577389018975,0.6600877520542401,B,700,Incorrect
1,relearn,11,357,A,18.305785689883326,32.83753564932063,0.9152892844941662,0.5158108037894932,A,807,Incorrect
1,relearn,11,358,A,30.96885103710049,47.606904972568586,1.5484425518550244,0.7478075146098443,B,812,Correct
1,relearn,11,359,B,31.175836239048994,12.208625382870178,1.5587918119524498,0.19177263906627415,100,782,Incorrect
1,relearn,11,360,B,79.11979358930022,60.53474043189544,3.955989679465011,0.9508774791390388,B,788,Incorrect
1,relearn,11,361,A,26.827743635544735,50.184086490892994,1.3413871817772367,0.7882897872345211,B,596,Correct
1,relearn,11,362,B,87.48072000333056,59.999636812932295,4.374036000166528,0.9424720911478189,B,1648,Incorrect
1,relearn,11,363,A,46.86905237348891,57.662183024011654,2.3434526186744455,0.9057554528909255,A,2621,Incorrect
1,relearn,11,364,B,31.28928801994674,12.494076964726865,1.564464400997337,0.19625650202885686,B,640,Incorrect
1,relearn,11,365,B,82.8970541666898,60.142630792505116,4.14485270833449,0.9447182353264867,B,311,Incorrect
1,relearn,11,366,A,42.235106598563334,60.68180375100534,2.1117553299281666,0.9531875443536797,A,756,Correct
1,relearn,11,367,B,43.15816447786452,24.450890337821587,2.1579082238932257,0.38407368729514973,B,939,Correct
1,relearn,11,368,B,76.4300552221646,59.38293780884527,3.8215027611082295,0.9327850058442394,B,5284,Incorrect
1,relearn,11,369,B,49.453429690702684,38.72770041999513,2.4726714845351343,0.6083332956494152,A,650,Incorrect
1,relearn,11,370,A,36.79550310932557,55.2209759568124,1.8397751554662787,0.8674090619499023,A,920,Incorrect
1,relearn,11,371,B,81.8752342060935,51.00777642682429,4.093761710304675,0.801228278492309,B,1080,Incorrect
1,relearn,11,372,A,31.367286327626122,57.612095411368216,1.5683643163813061,0.9049686785113431,A,862,Incorrect
1,relearn,11,373,B,82.73495996778519,53.550196491507464,4.136747998389259,0.8411645194800488,A,1109,Correct
1,relearn,11,374,A,57.95087131986466,67.88183198635161,2.897543565993233,1.0662853234026943,B,1529,Incorrect
1,relearn,11,375,A,40.801296116934985,52.75889156750028,2.0400648058467494,0.8287347307999968,A,1495,Correct
1,relearn,11,376,A,23.67117122160834,42.90222394010623,1.1835585610804171,0.6739065577645094,B,997,Correct
1,relearn,11,377,A,43.28561513044747,65.27103061869005,2.1642807565223734,1.0252749514195556,B,1132,Incorrect
1,relearn,11,378,B,46.44131563006221,30.3618972452173,2.3220657815031105,0.47692356667311425,B,897,Correct
1,relearn,11,379,A,54.584636958958924,82.36797079912557,2.729231847947946,1.2938330597681573,B,507,Incorrect
1,relearn,11,380,A,39.20081985810614,47.82121763611114,1.9600409929053069,0.7511739300566271,B,1172,Correct
1,relearn,11,381,A,57.38385069762353,83.43485554220892,2.8691925348811766,1.310591646123646,A,1064,Correct
1,relearn,11,382,B,67.88750330093191,46.41607710042191,3.3943751650465956,0.7291020341357146,B,2593,Incorrect
1,relearn,11,383,B,33.06726895944054,17.839815507911826,1.653363447972027,0.2802271667052653,A,1533,Incorrect
1,relearn,11,384,B,73.28489123605875,48.19574194606773,3.6642445618029376,0.7570569441603792,A,281,Correct
1,relearn,11,385,A,26.023107690315015,53.43495172332188,1.3011553845157509,0.8393542588945664,A,881,Correct
1,relearn,11,386,A,40.39734234412664,50.9667762080574,2.019867117206332,0.8005842485619409,A,515,Correct
1,relearn,11,387,B,55.16409978189703,44.245158135055966,2.7582049890948515,0.6950013187700526,B,574,Incorrect
1,relearn,11,388,B,63.54794038730138,49.49755417676859,3.1773970193650687,0.7775057628619949,A,575,Incorrect
1,relearn,11,389,A,37.1389304993161,60.22163365739,1.8569465249658053,0.9459592094261614,B,1167,Incorrect
1,relearn,11,390,A,60.58588837890313,85.48828929845192,3.0292944189451565,1.3428469081398773,A,544,Correct
1,relearn,11,391,A,45.430257047018095,71.50970560503436,2.271512852350905,1.123271828945724,A,800,Incorrect
1,relearn,11,392,B,55.46417723029978,33.80905034096398,2.7732088615149895,0.5310713208800996,B,696,Correct
1,relearn,11,393,A,17.637857005794096,34.922906016004255,0.8818928502897049,0.5485677249094287,B,1111,Incorrect
1,relearn,11,394,B,62.04208804727165,52.45042874930502,3.102104402363582,0.8238894081822576,A,419,Correct
1,relearn,11,395,B,86.8583070318754,59.548404635236444,4.34291535159377,0.9353841526752559,A,2073,Incorrect
1,relearn,11,396,B,61.11896450156366,43.03629612540988,3.055948225078183,0.6760125587265129,B,1272,Incorrect
1,relearn,11,397,B,57.43928531672271,32.656121535049955,2.8719642658361355,0.5129611575462419,A,376,Incorrect
1,relearn,11,398,A,19.87039662003128,37.14621459424064,0.9935198310015639,0.5834913743896817,A,662,Correct
1,relearn,11,399,A,55.41499491165287,80.595233872846,2.770749745582643,1.265986973246421,B,1897,Correct
1,relearn,11,400,B,62.061541178413556,42.12039822025779,3.1030770589206775,0.6616256680751923,B,800,Correct
1,relearn,11,401,A,59.612886953916004,84.1717227645419,2.9806443476958004,1.3221663293854078,B,426,Incorrect
1,relearn,11,402,A,41.36883519963612,50.42285268334944,2.0684417599818063,0.792040317815255,B,629,Incorrect
1,relearn,11,403,A,43.883254906193336,74.75018810763063,2.194162745309667,1.1741732090669377,A,471,Correct
1,relearn,11,404,A,49.82737439445301,63.29944055878346,2.4913687197226504,0.9943052871790895,A,643,Correct
1,relearn,11,405,B,41.34771195040105,21.59687919817971,2.0673855975200524,0.339242985147338,B,610,Correct
1,relearn,11,406,A,64.48756392499014,84.01402599692149,3.224378196249507,1.3196892343521522,B,863,Incorrect
1,relearn,11,407,B,59.36488934928093,29.445983142487123,2.9682444674640465,0.46253642159083214,A,2828,Correct
1,relearn,11,408,B,61.20727651393559,31.247458912417322,3.060363825696779,0.4908339368129958,B,803,Correct
1,relearn,11,409,B,49.33543408779,41.139821172389134,2.4667717043894997,0.6462227998258776,B,957,Correct
1,relearn,11,410,B,33.65740986399625,20.06863019139739,1.6828704931998124,0.3152373058845218,B,704,Correct
1,relearn,11,411,A,47.51831085401466,78.00646520151416,2.375915542700733,1.2253226900479235,A,1121,Correct
1,relearn,11,412,A,32.70517140996711,48.66936262366571,1.6352585704983553,0.7644965603670293,B,495,Correct
1,relearn,11,413,B,75.53478414423604,48.508113254628626,3.776739207211802,0.7619636612012147,A,448,Correct
1,relearn,11,414,A,24.890062771983548,37.9019810843818,1.2445031385991774,0.5953629266559658,107,438,Correct
1,relearn,11,415,A,47.484697385094165,77.07808529435638,2.374234869254708,1.2107397325675875,B,540,Incorrect
1,relearn,11,416,B,72.40022231157018,59.69714797286778,3.620011115578509,0.937720607559121,A,513,Incorrect
1,relearn,11,417,B,66.55793605080935,46.139635925846136,3.3278968025404674,0.7247597063197294,B,519,Incorrect
1,relearn,11,418,A,24.690887602613856,51.81391727497235,1.2345443801306928,0.8138911093238121,A,354,Correct
1,relearn,11,419,B,41.558838603439725,24.067659975069613,2.077941930171986,0.37805391883387895,A,279,Incorrect
1,relearn,11,420,B,34.04055378623438,15.603987328491055,1.7020276893117192,0.24510685978947858,A,315,Correct
1,relearn,11,421,A,39.472144592096626,54.74310810120767,1.9736072296048315,0.8599027312271296,B,586,Incorrect
1,relearn,11,422,B,58.62592465035075,35.42313273431124,2.9312962325175373,0.5564252678262416,107,933,Incorrect
1,relearn,11,423,B,70.59799491312188,60.54482339461278,3.5298997456560937,0.9510358619470348,B,50,Correct
1,relearn,11,424,A,54.64361764660078,74.9449926799133,2.7321808823300393,1.177233192132782,B,1940,Correct
1,relearn,11,425,B,39.86011846639889,15.118776312287483,1.9930059233199444,0.23748518296974871,B,1554,Correct
1,relearn,11,426,A,56.44423298471105,70.30327977719736,2.8222116492355527,1.1043213363565554,A,534,Correct
1,relearn,11,427,A,53.85039191770877,72.66355712428535,2.6925195958854387,1.1413964862267856,A,467,Incorrect
1,relearn,11,428,B,69.0421172511123,41.622990722897505,3.452105862555615,0.6538124093774547,B,1363,Incorrect
1,relearn,11,429,A,40.286619403549075,55.45447406649418,2.0143309701774537,0.871076841679919,A,442,Incorrect
1,relearn,11,430,B,44.2087261510761,35.31299497372139,2.2104363075538047,0.554695227928482,A,569,Incorrect
1,relearn,11,431,A,41.40163778665136,53.21266314704777,2.0700818893325676,0.835862558103568,B,347,Incorrect
1,relearn,11,432,A,42.762988660470704,69.86506052596707,2.138149433023535,1.0974378044549218,B,606,Correct
1,relearn,11,433,A,41.72653936279317,56.507652762708574,2.0863269681396583,0.8876201339546412,B,436,Correct
1,relearn,11,434,A,60.4191995055659,69.09032325591927,3.0209599752782945,1.0852682598747003,A,547,Correct
1,relearn,11,435,A,29.876135224957345,41.579441697496634,1.4938067612478674,0.6531283428861028,B,703,Incorrect
1,relearn,11,436,B,85.07760038232414,68.91522982892297,4.253880019116207,1.0825178987549828,B,1172,Incorrect
1,relearn,11,437,A,15.975065850072713,42.9624170363183,0.7987532925036356,0.6748520687087928,A,1445,Correct
1,relearn,11,438,A,41.91500515200642,56.99243272827144,2.095750257600321,0.8952350398467402,A,558,Incorrect
1,relearn,11,439,A,20.21766275340733,47.71037259283919,1.0108831376703664,0.7494327801884769,B,2129,Incorrect
1,relearn,11,440,A,43.42153311129965,62.975099872821005,2.1710766555649825,0.9892105555976899,107,606,Correct
1,relearn,11,441,B,60.6358222260124,51.11272122396441,3.03179111130062,0.8028767475109485,B,1319,Incorrect
1,relearn,11,442,B,64.47922726464172,54.58450535772966,3.2239613632320863,0.857411405158381,100,596,Incorrect
1,relearn,11,443,B,74.55629494022088,53.75125560490042,3.727814747011044,0.8443227486479118,A,1610,Incorrect
1,relearn,11,444,A,55.698177466293956,69.96628600119789,2.7849088733146976,1.0990278505016282,B,2034,Incorrect
1,relearn,11,445,B,89.42526849087338,64.42361526826336,4.471263424543668,1.011963782222357,A,1149,Correct
1,relearn,11,446,A,31.744007352010538,42.32659113779056,1.5872003676005269,0.6648645388499083,B,1568,Incorrect
1,relearn,11,447,A,19.32946505998629,34.53627150192619,0.9664732529993145,0.5424944841641692,A,767,Incorrect
1,relearn,11,448,B,63.28952370299941,42.80209691783156,3.1644761851499705,0.6723337661764899,A,1876,Correct
1,relearn,11,449,B,85.62641185628928,61.07339419513389,4.281320592814464,0.9593386326661307,A,690,Correct
1,relearn,11,450,A,43.14875145933155,54.590520111210424,2.1574375729665776,0.8575058846851226,B,526,Correct
1,relearn,11,451,B,47.816148734843566,19.628171930804093,2.3908074367421785,0.3083186037060577,B,717,Correct
1,relearn,11,452,A,50.21207045147374,61.12460724384918,2.510603522573687,0.96014308535419,B,448,Incorrect
1,relearn,11,453,B,61.49958236162891,37.31476841558079,3.0749791180814454,0.5861390116239652,A,481,Correct
1,relearn,11,454,A,50.31204840646408,79.72034679646706,2.5156024203232037,1.2522442791870576,A,813,Correct
1,relearn,11,455,B,42.2443035861663,16.965156761310254,2.1122151793083153,0.2664880592416575,B,881,Correct
1,relearn,11,456,B,34.930526470509605,18.851111683279512,1.7465263235254804,0.29611256988095813,A,2100,Correct
1,relearn,11,457,A,43.87199354129765,65.83536144331286,2.1935996770648827,1.034139439283702,A,575,Incorrect
1,relearn,11,458,B,73.73340625920638,45.993077596292466,3.686670312960319,0.7224575734624886,B,1194,Correct
1,relearn,11,459,A,32.14856829152041,63.95642682207541,1.6074284145760205,1.0046252032704264,A,651,Incorrect
1,relearn,11,460,B,46.285716673019095,17.230714714475745,2.314285833650955,0.2706594338154928,B,496,Incorrect
1,relearn,11,461,B,51.63143104898191,43.89427466557767,2.581571552449095,0.6894896541201568,A,1021,Incorrect
1,relearn,11,462,A,50.625829538261854,77.91045895390322,2.5312914769130925,1.2238146274369572,B,1098,Correct
1,relearn,11,463,A,47.16056546434461,66.98077998341081,2.3580282732172306,1.0521316316379885,B,527,Incorrect
1,relearn,11,464,B,79.82630619673753,59.5176876149354,3.9913153098368763,0.9349016508486663,B,743,Incorrect
1,relearn,11,465,A,27.43977159364789,51.058947534339296,1.3719885796823945,0.802032072369535,A,1414,Correct
1,relearn,11,466,A,29.86485268441848,52.80484697887025,1.493242634220924,0.8294565967137597,A,486,Correct
1,relearn,11,467,A,26.92051069025633,47.0223070570567,1.3460255345128163,0.738624672026464,A,466,Correct
1,relearn,11,468,A,43.13489472762894,60.113705699588266,2.1567447363814467,0.9442638810294268,B,650,Incorrect
1,relearn,11,469,B,46.88689954458678,36.4682927191216,2.344344977229339,0.5728426024767728,A,1052,Incorrect
1,relearn,11,470,B,69.28714008959733,60.20701225129952,3.4643570044798664,0.9457295369163663,B,867,Incorrect
1,relearn,11,471,B,82.32870191234143,66.38263400302088,4.116435095617072,1.042735976549152,A,849,Correct
1,relearn,11,472,A,34.49025203100785,48.052351925558305,1.7245126015503924,0.7548045789852267,A,626,Correct
1,relearn,11,473,B,85.97349159922447,60.093659640400276,4.298674579961224,0.9439489982680347,A,370,Incorrect
1,relearn,11,474,A,49.053101937091334,56.71962854702903,2.4526550968545666,0.8909498417884415,B,560,Incorrect
1,relearn,11,475,A,48.90266649442182,65.54426775020153,2.445133324721091,1.0295669502447777,B,597,Correct
1,relearn,11,476,A,28.409457039096793,47.34870898416411,1.4204728519548397,0.7437517815080551,A,1591,Incorrect
1,relearn,11,477,B,33.02806192526917,19.22152702010906,1.6514030962634587,0.3019310403857617,B,956,Correct
1,relearn,11,478,A,66.28767008175227,81.89010603013163,3.3143835040876133,1.286326777529754,B,1355,Incorrect
1,relearn,11,479,A,32.17436942456661,55.01885277471295,1.6087184712283307,0.8642341184298831,A,577,Incorrect
1,relearn,11,480,B,56.45456837447417,35.28775076955404,2.8227284187237087,0.5542986928966926,B,690,Incorrect
1,relearn,11,481,B,61.90278440793042,42.42613855589083,3.0951392203965207,0.6664282260368465,A,662,Correct
1,relearn,11,482,B,76.92965548801739,53.46023004604936,3.846482774400869,0.839751329859445,B,668,Incorrect
1,relearn,11,483,A,50.31124548614251,62.18071733248502,2.5155622743071255,0.9767324238333921,A,966,Incorrect
1,relearn,11,484,A,62.13378762204759,86.65882334750134,3.1066893811023792,1.361233613986229,A,753,Incorrect
1,relearn,11,485,B,75.55073865351923,55.00788435614187,3.777536932675962,0.864061826913861,A,956,Correct
1,relearn,11,486,B,55.40616480026512,42.03106880028036,2.770308240013256,0.6602224848274396,B,854,Incorrect
1,relearn,11,487,A,47.883442530592205,70.26262122240732,2.3941721265296105,1.1036826732713854,B,215,Correct
1,relearn,11,488,A,48.385090326522864,71.3717575011773,2.419254516326143,1.121104945197454,100,1982,Incorrect
1,relearn,11,489,A,37.438798443886725,65.88961229517798,1.8719399221943362,1.0349916096720542,A,534,Incorrect
1,relearn,11,490,B,63.59249149264004,49.528882745016624,3.1796245746320024,0.7779978708612725,A,998,Correct
1,relearn,11,491,B,71.8658099522021,51.575589528681455,3.5932904976101048,0.8101474658393416,B,820,Incorrect
1,relearn,11,492,A,33.136135274182855,59.84885549759509,1.6568067637091428,0.9401036237850091,B,895,Correct
1,relearn,11,493,A,16.184705942834785,42.81996478377677,0.8092352971417393,0.6726144339584337,A,720,Correct
1,relearn,11,494,A,28.695846420214977,43.4771185697448,1.434792321010749,0.6829369814898133,A,698,Incorrect
1,relearn,11,495,B,71.91711035056204,47.123611659461936,3.595855517528102,0.7402159609999198,B,662,Correct
1,relearn,11,496,B,69.1917082607243,55.390078913077645,3.4595854130362147,0.8700653249754181,B,975,Correct
1,relearn,11,497,A,57.74759287003114,85.2605557995056,2.887379643501557,1.3392696787035472,B,890,Correct
1,relearn,11,498,A,40.81520234344557,54.24041061326335,2.0407601171722787,0.8520063775516099,B,1572,Correct
1,relearn,11,499,B,73.46743534345168,57.14257417822951,3.6733717671725845,0.8975934562276782,A,609,Incorrect
1,relearn,11,500,B,89.77127966655061,68.37279637865666,4.488563983327531,1.0739973740428927,B,853,Correct
1,relearn,11,501,B,72.24791006243908,52.34480448600166,3.6123955031219537,0.8222302661340843,B,671,Incorrect
1,relearn,11,502,A,20.689425720028222,47.95313376835847,1.0344712860014111,0.753246063816418,A,1632,Correct
1,relearn,11,503,A,42.78723484468871,56.514530960168834,2.1393617422344358,0.8877281764276966,B,927,Correct
1,relearn,11,504,A,26.44873388089112,53.3897083827318,1.322436694044556,0.8386435781624579,A,949,Correct
1,relearn,11,505,B,61.69988789610358,43.43560298713642,3.0849943948051792,0.6822848562431533,B,891,Incorrect
1,relearn,11,506,A,44.91328387451388,72.69425862597272,2.245664193725694,1.1418787442875618,A,878,Correct
1,relearn,11,507,A,65.21591111412097,88.46445409738239,3.260795555706048,1.38959639548084,B,511,Correct
1,relearn,11,508,B,57.02349543004673,45.26859329656512,2.8511747715023366,0.7110774006941658,A,1105,Correct
1,relearn,11,509,A,18.428569964550306,47.53297633453832,0.9214284982275153,0.7466462462792153,A,1060,Incorrect
1,relearn,11,510,B,67.90007239520314,36.01557118473783,3.395003619760157,0.5657312692440631,A,1326,Correct
1,relearn,11,511,B,78.89316578604686,65.85858711230301,3.9446582893023434,1.0345042672390727,A,516,Incorrect
1,relearn,11,512,B,59.75500042821009,52.322754818095184,2.987750021410504,0.8218839107605389,B,1985,Incorrect
1,relearn,11,513,B,41.468198280839964,13.945853008280196,2.0734099140419984,0.2190609467942809,A,797,Correct
1,relearn,11,514,A,46.509265337123686,76.98423837017516,2.3254632668561843,1.2092655885297388,B,672,Incorrect
1,relearn,11,515,B,64.08267903163573,35.02261362720216,3.204133951581787,0.5501339284036604,A,843,Incorrect
1,relearn,11,516,B,50.41568161413028,23.188417630189345,2.520784080706514,0.36424281237687445,A,556,Incorrect
1,relearn,11,517,B,85.5706574672295,66.05848208802315,4.278532873361474,1.0376442101751324,A,1047,Correct
1,relearn,11,518,A,55.8868827137354,73.11585331471254,2.7943441356867704,1.1485011381722492,A,1012,Correct
1,relearn,11,519,A,41.292600955567906,52.92725827145422,2.064630047778395,0.8313794288012508,B,628,Incorrect
1,relearn,11,520,A,52.50980326097032,64.77826824550526,2.625490163048516,1.0175346581617415,A,926,Incorrect
1,relearn,11,521,B,70.86326294202561,53.288331761204034,3.5431631471012803,0.8370511579152711,B,1077,Incorrect
1,relearn,11,522,A,33.18143139994401,61.91250819954403,1.6590715699972005,0.9725194046250267,B,1985,Correct
1,relearn,11,523,A,21.669829943419998,44.31933560947953,1.083491497171,0.696166495813607,A,1006,Correct
1,relearn,11,524,A,28.719771957489655,57.268022684285924,1.4359885978744829,0.8995639967528315,A,1197,Incorrect
1,relearn,11,525,B,59.84354016414358,36.26079334539821,2.9921770082071792,0.5695832099362035,B,3506,Correct
1,relearn,11,526,B,60.958712721494464,45.6378777541762,3.0479356360747234,0.7168781073897451,B,793,Correct
1,relearn,11,527,B,53.57621468923019,45.178777341143004,2.6788107344615093,0.7096665749655193,B,1471,Correct
1,relearn,11,528,B,48.05670277746192,20.042787572913916,2.4028351388730957,0.3148313709826358,A,2833,Correct
1,relearn,11,529,A,63.895314609581334,76.62344228034738,3.1947657304790664,1.2035982168035042,B,880,Correct
1,relearn,11,530,A,47.42523449919148,56.32107381780926,2.371261724959574,0.8846893587415899,A,848,Incorrect
1,relearn,11,531,A,56.92034932139714,80.36998272627469,2.8460174660698567,1.2624487365100157,B,1181,Incorrect
1,relearn,11,532,A,37.338868695281924,62.320411007807664,1.866943434764096,0.9789267269541253,A,1104,Incorrect
1,relearn,11,533,A,27.681975918034922,53.73050000521195,1.3840987959017463,0.843996720450401,B,1109,Correct
1,relearn,11,534,B,70.90967788503684,49.254799699020424,3.5454838942518423,0.7736925844423966,B,700,Incorrect
1,relearn,11,535,B,86.9126787166906,63.94479098119094,4.34563393583453,1.0044424279092214,A,606,Correct
1,relearn,11,536,A,63.51919743091963,84.56847736375632,3.175959871545982,1.3283985360562578,B,1014,Correct
1,relearn,11,537,B,49.90386045864367,36.77902617903419,2.4951930229321833,0.5777235922512024,A,567,Incorrect
1,relearn,11,538,B,58.620782788081605,44.04806704792708,2.93103913940408,0.6919054192129919,B,649,Correct
1,relearn,11,539,A,35.618863523414795,65.55080474622001,1.78094317617074,1.0296696331381185,B,1366,Correct
1,relearn,11,540,B,38.86910562082316,25.80848490480276,1.9434552810411583,0.4053987328860571,B,845,Incorrect
1,relearn,11,541,B,57.578659101485215,41.34545974531276,2.8789329550742604,0.6494529629758354,A,3531,Incorrect
1,relearn,11,542,B,85.32219553809924,59.59493293390423,4.266109776904962,0.9361150174816496,B,619,Incorrect
1,relearn,11,543,B,50.00183065523744,19.429416288455666,2.500091532761872,0.30519655737675094,B,1416,Incorrect
1,relearn,11,544,A,44.02185598347553,68.92586402868528,2.2010927991737765,1.0826849403742334,A,553,Incorrect
1,relearn,11,545,B,78.40398975496191,52.433473385143216,3.9201994877480955,0.8236230739448093,B,737,Incorrect
1,relearn,11,546,A,21.044646580300885,32.836701571975034,1.0522323290150442,0.5157977021331859,A,636,Incorrect
1,relearn,11,547,A,68.17102220217407,84.62928260461484,3.4085511101087036,1.3293536625461624,A,1007,Correct
1,relearn,11,548,A,11.870285793598917,36.67431299635071,0.5935142896799459,0.5760787614239403,A,1046,Incorrect
1,relearn,11,549,A,60.85436611291192,77.98890849146434,3.0427183056455958,1.225046909891355,A,863,Correct
1,relearn,11,550,A,45.67767507253313,73.16411043297674,2.2838837536266565,1.1492591592133603,B,796,Incorrect
1,relearn,11,551,B,42.25590701469318,20.20445150266729,2.112795350734659,0.3173707820529541,A,987,Correct
1,relearn,11,552,A,41.520211818362014,54.0645208566284,2.076010590918101,0.8492435077151796,B,1545,Correct
1,relearn,11,553,B,44.50098378436334,37.03703130722958,2.225049189218167,0.5817763273278381,B,860,Correct
1,relearn,11,554,A,49.25508371400839,62.95935553952788,2.4627541857004194,0.9889632441886431,B,488,Correct
1,relearn,11,555,A,23.33295272106839,41.84481116849649,1.1666476360534197,0.6572967567890036,A,720,Incorrect
1,relearn,11,556,B,58.86572899986051,49.1669351508981,2.943286449993025,0.772312411347936,B,725,Incorrect
1,relearn,11,557,A,40.9182177516368,52.473277097224205,2.04591088758184,0.8242483091921056,B,887,Incorrect
1,relearn,11,558,B,58.87893728128768,29.630529277653125,2.9439468640643844,0.46543526550326164,A,1148,Correct
1,relearn,11,559,A,14.127081565324719,37.333768360930264,0.7063540782662359,0.5864374620676078,A,967,Incorrect
1,relearn,11,560,A,59.51623288465781,70.76129085440887,2.975811644232891,1.1115157575337076,B,719,Incorrect
1,relearn,11,561,A,46.28700790478941,53.04573572913118,2.3143503952394706,0.8332404683545205,A,896,Incorrect
1,relearn,11,562,A,36.82507256691932,44.21863996994834,1.841253628345966,0.6945847724066085,A,521,Correct
1,relearn,11,563,A,35.56668254448471,55.353378452026696,1.7783341272242357,0.8694888354813131,A,734,Correct
1,relearn,11,564,A,19.4222955882328,43.0866265797599,0.9711147794116399,0.6768031476547022,B,815,Correct
1,relearn,11,565,B,43.50890223881633,17.3707620023977,2.175445111940817,0.2728592914699467,A,399,Correct
1,relearn,11,566,B,77.03030102358196,50.73106840683809,3.851515051179098,0.796881759078419,B,496,Correct
1,relearn,11,567,B,77.86648136828947,45.857507392758166,3.8933240684144734,0.7203280416851435,A,336,Incorrect
1,relearn,11,568,B,77.76531002557051,49.196761187009784,3.8882655012785254,0.7727809176276071,B,300,Correct
1,relearn,11,569,B,58.400783626487666,38.40076079151142,2.9200391813243836,0.6031977399743562,B,333,Incorrect
1,relearn,11,570,B,38.352398313047345,21.122116368218183,1.9176199156523672,0.33178542805331485,A,337,Correct
1,relearn,11,571,A,40.88728803779135,63.280106871387076,2.0443644018895673,0.9940015943276331,B,366,Correct
1,relearn,11,572,A,21.49394782762168,38.332752008317264,1.074697391381084,0.6021294605060444,A,347,Incorrect
1,relearn,11,573,B,68.47514900807157,57.52836402044881,3.4237574504035786,0.9036534288984067,B,378,Incorrect
1,relearn,11,574,B,82.40680626032297,54.414135057025895,4.120340313016149,0.8547352347329767,A,667,Incorrect
1,relearn,11,575,A,49.5962959356462,80.27218681941908,2.4798147967823096,1.260912561997372,107,1085,Correct
1,relearn,11,576,B,65.79006868165649,57.25129796370767,3.289503434082825,0.8993012854563214,B,404,Correct
1,relearn,11,577,A,36.53559776025726,54.85080795274496,1.826779888012863,0.861594476539041,A,563,Correct
1,relearn,11,578,A,14.408486503503568,34.145030326200676,0.7204243251751784,0.5363488821469636,A,443,Incorrect
1,relearn,11,579,A,31.079285130093666,52.47271867960585,1.5539642565046834,0.8242395375886683,B,442,Correct
1,relearn,11,580,A,55.829718038326696,67.86720977294134,2.791485901916335,1.0660556382115496,107,319,Incorrect
1,relearn,11,581,A,51.99921828339951,67.79167844872886,2.5999609141699755,1.0648691949452405,B,323,Incorrect
1,relearn,11,582,B,67.89886161581127,57.37767008780603,3.394943080790563,0.9012863341397511,B,584,Correct
1,relearn,11,583,B,41.261584674346445,33.0459421220899,2.063079233717322,0.5190844450085556,A,478,Correct
1,relearn,11,584,B,43.16588194903305,15.523552377202233,2.1582940974516527,0.24384339052917453,A,669,Correct
1,relearn,11,585,B,58.636009406617156,37.88887096995312,2.9318004703308578,0.5951569934600816,B,563,Correct
1,relearn,11,586,A,56.53784238329952,79.10170527144568,2.8268921191649756,1.2425266808359938,A,513,Correct
1,relearn,11,587,A,31.70875980478587,58.08695617866341,1.5854379902392934,0.9124277740014061,B,712,Correct
1,relearn,11,588,B,83.82810474736031,66.35389101467464,4.1914052373680155,1.0422844827439983,A,486,Incorrect
1,relearn,11,589,B,37.87877984913581,13.961572826597823,1.8939389924567904,0.21930787312299305,107,397,Correct
1,relearn,11,590,A,64.51054829328189,86.10452847466595,3.225527414664094,1.3525267704841186,B,185,Correct
1,relearn,11,591,B,50.35034651968482,28.268944028368935,2.517517325984241,0.44404753442132444,B,299,Incorrect
1,relearn,11,592,A,15.648942457444786,35.74833491593479,0.7824471228722394,0.5615335317498412,A,467,Correct
1,relearn,11,593,A,56.54297002431544,70.54353117873211,2.8271485012157718,1.1080951965469368,B,501,Incorrect
1,relearn,11,594,B,79.32282625122721,50.7816128324029,3.9661413125613603,0.7976757090585906,A,446,Correct
1,relearn,11,595,A,46.20384223284069,54.50639823361076,2.3101921116420345,0.856184501321756,A,377,Correct
1,relearn,11,596,A,15.63729007325168,39.65016588113724,0.781864503662584,0.6228233492289871,A,358,Correct
1,relearn,11,597,B,68.59392120978288,49.46657283626746,3.4296960604891438,0.7770191091034113,B,587,Correct
1,relearn,11,598,A,43.5521598521583,59.960672813929946,2.177607992607915,0.9418600460827177,B,947,Incorrect
1,relearn,11,599,B,66.50751894597104,41.703679506999514,3.325375947298552,0.6550798658342645,B,772,Incorrect
1,relearn,11,600,B,57.760155582876955,50.706876172218614,2.8880077791438477,0.7965017483456466,A,652,Incorrect
1,relearn,11,601,B,72.5492075397147,53.71945996118813,3.627460376985735,0.8438233038443983,A,4435,Incorrect
1,relearn,11,602,A,62.62838059279545,74.96751328427868,3.1314190296397726,1.1775869449589258,A,6582,Correct
1,relearn,11,603,B,89.13748031099416,64.35574379068092,4.456874015549708,1.0108976595455506,B,1068,Correct
1,relearn,11,604,B,67.72476004329783,40.11500178846949,3.3862380021648915,0.6301249745869859,A,1083,Incorrect
1,relearn,11,605,A,32.856508546274995,60.74571872735402,1.6428254273137497,0.9541915184544365,B,2505,Incorrect
1,relearn,11,606,B,52.87255683674249,26.685223627030844,2.6436278418371244,0.41917051253040427,B,969,Correct
1,relearn,11,607,B,51.8594967273543,44.98029875038971,2.592974836367715,0.7065488805524923,A,617,Incorrect
1,relearn,11,608,A,62.56351448804206,76.90690009046683,3.1281757244021033,1.2080507616728737,B,2310,Incorrect
1,relearn,11,609,B,40.96947518051449,18.56654308379083,2.048473759025725,0.2916425767729782,B,1297,Correct
1,relearn,11,610,A,54.348597053336654,62.0624427829455,2.717429852666833,0.9748745715536924,A,645,Correct
1,relearn,11,611,B,56.63804169594226,44.28171423237063,2.8319020847971133,0.6955755406038908,A,1145,Incorrect
1,relearn,11,612,B,67.99871935338982,36.0532054650857,3.3999359676694905,0.5663224271373831,B,1428,Correct
1,relearn,11,613,A,28.974320711239674,37.92515792519245,1.4487160355619837,0.5957269876200866,A,1975,Correct
1,relearn,11,614,A,47.99666771450212,63.62516264185672,2.3998333857251057,0.9994217176955641,B,1496,Incorrect
1,relearn,11,615,B,77.63312124012702,47.61705422192301,3.881656062006351,0.7479669386459008,B,1767,Correct
1,relearn,11,616,A,33.00944406835137,48.89394394816743,1.6504722034175685,0.7680242755629697,A,701,Correct
1,relearn,11,617,A,16.7347597755167,34.489897857245204,0.8367379887758349,0.5417660486569195,A,378,Correct
1,relearn,11,618,B,49.060441618537524,23.938888494620922,2.4530220809268766,0.3760311811490316,A,661,Incorrect
1,relearn,11,619,B,58.187591627971166,29.81538723472324,2.909379581398558,0.4683390075027072,B,606,Correct
1,relearn,11,620,A,25.563354724263363,35.819872973833775,1.278167736213168,0.5626572489355788,A,1531,Correct
1,relearn,11,621,B,59.0539867209039,40.94324125792626,2.952699336045195,0.6431349297502783,B,3950,Correct
1,relearn,11,622,A,42.46793257477733,70.37091896882522,2.1233966287388664,1.1053838102941196,A,1397,Correct
1,relearn,11,623,A,43.65217568843269,51.19951267511222,2.1826087844216344,0.8042400644375504,A,526,Correct
1,relearn,11,624,A,14.488670359888676,35.17305786896786,0.7244335179944338,0.5524971010271904,A,942,Correct
1,relearn,11,625,B,75.73861734690323,53.058431874447834,3.786930867345161,0.8334398989387992,B,523,Correct
1,relearn,11,626,B,84.75683450476723,64.99813265891835,4.237841725238361,1.0209882802915635,B,525,Correct
1,relearn,11,627,B,55.67639552013171,43.88849963781777,2.7838197760065855,0.689398940196233,B,433,Correct
1,relearn,11,628,A,29.630847687708624,54.775000813235856,1.4815423843854314,0.8604037007761836,A,788,Correct
1,relearn,11,629,A,26.16756143386248,46.94244905574092,1.3083780716931241,0.7373702654751441,A,660,Correct
1,relearn,11,630,A,41.961236038504,69.17883351514507,2.0980618019252,1.0866585757754557,A,648,Correct
1,relearn,11,631,B,43.89439293626785,19.52447646237156,2.1947196468133923,0.3066897590968667,A,989,Incorrect
1,relearn,11,632,A,52.10776910097215,74.41965032350167,2.6053884550486077,1.1689811336951705,B,882,Incorrect
1,relearn,11,633,A,39.855263446270094,72.29256884733877,1.9927631723135049,1.1355690159996692,A,753,Correct
1,relearn,11,634,B,87.94175308054555,63.58802698373127,4.397087654027278,0.9988383921417985,B,466,Correct
1,relearn,11,635,A,49.43410676071568,68.72507155776731,2.471705338035784,1.0795308996165731,A,681,Correct
1,relearn,11,636,A,52.50152538061124,71.660017452191,2.6250762690305622,1.125632921919598,A,502,Correct
1,relearn,11,637,B,56.89803297853304,33.71794589826361,2.8449016489266516,0.5296402556406152,A,1173,Incorrect
1,relearn,11,638,B,31.342303575960088,17.854770900284734,1.5671151787980044,0.2804620854593167,A,665,Incorrect
1,relearn,11,639,A,31.633985429872467,49.200624084595404,1.5816992714936233,0.7728415958809898,B,887,Incorrect
1,relearn,11,640,A,24.519468885015232,46.21607793632184,1.2259734442507615,0.72596045461241,A,1444,Correct
1,relearn,11,641,B,61.964227191534036,43.5069779421341,3.0982113595767022,0.6834060114145083,B,1585,Correct
1,relearn,11,642,A,54.85298940006691,64.37660247613269,2.7426494700033452,1.0112253070104447,B,790,Incorrect
1,relearn,11,643,B,74.18596723043656,62.64559817427495,3.709298361521828,0.9840347550202017,B,849,Correct
1,relearn,11,644,A,51.287430084790394,61.89558873597838,2.5643715042395194,0.9722536343128241,A,1188,Correct
1,relearn,11,645,A,44.617021591787,70.25873910167621,2.23085107958935,1.1036216930615397,A,653,Correct
1,relearn,11,646,A,49.89495788901276,62.586895539541445,2.494747894450638,0.983112656190076,B,1219,Incorrect
1,relearn,11,647,B,51.16696843331586,23.502693457265465,2.5583484216657926,0.3691794455245904,A,739,Incorrect
1,relearn,11,648,B,71.50663672930405,44.536873775001794,3.5753318364652023,0.6995835773270077,B,802,Correct
1,relearn,11,649,B,52.25076983120174,33.39059790508757,2.612538491560087,0.5244982853879693,A,1441,Incorrect
1,relearn,11,650,B,55.94324117115612,29.946160404328182,2.797162058557806,0.4703931876472949,A,678,Incorrect
1,relearn,11,651,A,19.258825794156174,46.97142496402669,0.9629412897078086,0.7378254179781523,B,706,Incorrect
1,relearn,11,652,A,52.687297830908335,68.21062189267053,2.6343648915454168,1.0714499431740243,A,921,Correct
1,relearn,11,653,B,64.08693423494789,36.680848632180556,3.2043467117473945,0.5761814229514882,B,739,Correct
1,relearn,11,654,A,62.96231925110327,78.20859129239003,3.1481159625551633,1.228497679258896,B,1858,Incorrect
1,relearn,11,655,B,55.35617561586378,48.109073425776344,2.7678087807931893,0.7556955582271545,B,1159,Correct
1,relearn,11,656,A,29.504119816592272,52.48918157232777,1.4752059908296136,0.8244981361028283,A,742,Correct
1,relearn,11,657,B,48.91085082095006,34.176040605683696,2.445542541047503,0.5368359904780119,A,598,Incorrect
1,relearn,11,658,A,47.84966898442026,73.85036155625177,2.3924834492210127,1.160038766650353,B,928,Incorrect
1,relearn,11,659,B,83.24063553188599,53.05213912194888,4.162031776594299,0.8333410526136914,B,823,Correct
1,relearn,11,660,A,51.077828094042104,81.33203890594088,2.5538914047021053,1.2775606796419154,A,636,Correct
1,relearn,11,661,A,17.364602100198383,46.01668245942294,0.8682301050099192,0.722828357785487,A,815,Correct
1,relearn,11,662,A,53.106825485592296,70.73686617556162,2.655341274279615,1.1111320955755437,A,1105,Correct
1,relearn,11,663,B,34.05023755837827,22.766925185246656,1.7025118779189137,0.35762202453399666,A,1145,Incorrect
1,relearn,11,664,B,55.0935729505344,28.129990603028713,2.7546786475267204,0.4418648591201246,B,611,Correct
1,relearn,11,665,B,63.6442408057425,49.14650742366236,3.1822120402871246,0.7719915333588694,B,388,Correct
1,relearn,11,666,B,43.1877343146768,29.214391890506796,2.15938671573384,0.45889859471154687,A,554,Incorrect
1,relearn,11,667,A,52.6534839477045,81.10381780792848,2.6326741973852252,1.2739757910173657,B,671,Incorrect
1,relearn,11,668,A,22.20681474547853,43.14326316482243,1.1103407372739265,0.6776927930524863,A,655,Correct
1,relearn,11,669,A,38.62594627571268,71.15487311229214,1.931297313785634,1.1176981331834543,A,477,Correct
1,relearn,11,670,B,85.30487563963453,67.1505361181544,4.265243781981726,1.0547981547670497,B,624,Correct
1,relearn,11,671,B,47.44092724639129,36.07846619757268,2.3720463623195642,0.56671922179541,A,964,Incorrect
1,relearn,11,672,B,68.0814462093668,49.915658126500816,3.40407231046834,0.7840733243465732,B,1020,Correct
1,relearn,11,673,A,52.715062574817416,73.99136244596738,2.635753128740871,1.162253603446754,B,2301,Incorrect
1,relearn,11,674,B,48.20624571896445,32.985063541931055,2.4103122859482227,0.5181281665076156,A,743,Incorrect
1,relearn,11,675,A,59.30672511751409,83.84187907654726,2.9653362558757044,1.3169851568502233,B,952,Incorrect
1,relearn,11,676,B,60.4234415842952,47.066143582327584,3.02117207921476,0.7393132545552136,A,853,Incorrect
1,relearn,11,677,A,48.46057525013842,63.2636004728109,2.423028762506921,0.9937423124251125,B,1370,Incorrect
1,relearn,11,678,B,52.216597084331234,38.93743023717821,2.6108298542165618,0.6116277239139206,A,795,Incorrect
1,relearn,11,679,B,68.76166288343083,58.14289342529622,3.4380831441715416,0.9133064342168244,A,812,Incorrect
1,relearn,11,680,B,79.45845562802693,54.73637716971829,3.972922781401346,0.8597970020025353,B,385,Correct
1,relearn,11,681,A,33.603594501372264,44.786108918504816,1.6801797250686132,0.7034985538062353,A,656,Correct
1,relearn,11,682,B,57.36014566125711,39.48403449614452,2.8680072830628554,0.6202137635358679,B,1199,Correct
1,relearn,11,683,A,34.90610486287855,54.446429226493734,1.7453052431439275,0.8552425103607466,A,1142,Correct
1,relearn,11,684,B,49.089990804602856,41.32307520915446,2.4544995402301426,0.6491013475040908,A,507,Incorrect
1,relearn,11,685,A,47.654406765951926,79.15334093621874,2.3827203382975966,1.2433377719615655,B,848,Incorrect
1,relearn,11,686,B,79.03238303557742,47.6801227975465,3.9516191517788712,0.7489576175151567,B,1163,Correct
1,relearn,11,687,B,78.89590005326332,54.38395731638909,3.9447950026631657,0.8542612038915443,B,609,Correct
1,relearn,11,688,A,28.733630394964056,42.28595417528754,1.4366815197482028,0.66422621493559,A,796,Correct
1,relearn,11,689,A,32.51955653222876,45.689027300125375,1.6259778266114382,0.717681562578687,A,573,Correct
1,relearn,11,690,B,35.21641836143732,16.77209723019108,1.760820918071866,0.26345548721831,B,873,Correct
1,relearn,11,691,B,52.12168680659349,33.399332005513706,2.6060843403296747,0.5246354803166415,B,673,Correct
1,relearn,11,692,B,49.34850704452849,40.2653908510414,2.4674253522264245,0.6324872804577667,B,462,Correct
1,relearn,11,693,A,36.766533696598486,66.44355110905046,1.8383266848299242,1.0436928602130544,A,795,Correct
1,relearn,11,694,B,70.93862200736383,58.13304420338474,3.546931100368192,0.9131517230008213,B,533,Correct
1,relearn,11,695,B,62.67754138591516,40.10199286338686,3.133877069295758,0.6299206308696323,B,661,Correct
1,relearn,11,696,B,40.70698126743185,30.1872078132605,2.0353490633715925,0.47417955149263796,B,781,Correct
1,relearn,11,697,B,68.75193962467537,49.76732845587529,3.437596981233769,0.7817433673288403,B,667,Correct
1,relearn,11,698,A,49.327975440153374,73.31658013850253,2.4663987720076688,1.1516541477472342,A,659,Correct
1,relearn,11,699,A,22.914869092573028,42.56842824811555,1.1457434546286513,0.6686633072957202,B,626,Incorrect
1,relearn,11,700,A,61.4251604712954,76.61875970070628,3.07125802356477,1.203524663014503,A,1853,Correct
1,relearn,11,701,B,80.56483904639737,67.09811979488106,4.028241952319869,1.053974801086431,B,633,Correct
1,relearn,11,702,B,57.50733027300662,44.49629320075848,2.875366513650331,0.6989461391574014,A,870,Incorrect
1,relearn,11,703,A,45.499053491094465,74.10386648657301,2.274952674554723,1.1640208127840832,B,541,Incorrect
1,relearn,11,704,A,35.92893685700473,56.22757088951709,1.7964468428502363,0.8832206181785309,A,451,Correct
1,relearn,11,705,B,68.17525604588982,48.68889328464232,3.408762802294491,0.7648033472722487,A,460,Incorrect
1,relearn,11,706,A,25.62503851343648,36.648475336483635,1.281251925671824,0.5756729044118186,B,622,Incorrect
1,relearn,11,707,A,32.02639610575797,55.014097145903875,1.6013198052878983,0.8641594171872342,A,592,Correct
1,relearn,11,708,B,61.01096812454736,43.83200113217465,3.0505484062273682,0.688511463744897,B,785,Correct
1,relearn,11,709,B,53.534167749209495,34.977537910745944,2.676708387460475,0.5494258807052897,A,2071,Incorrect
1,relearn,11,710,A,10.670749402867862,33.447591103166985,0.5335374701433931,0.5253935324499236,A,779,Correct
1,relearn,11,711,B,84.11610888746094,60.705809874420424,4.205805444373047,0.9535646316584896,B,1699,Correct
1,relearn,11,712,B,53.83336015346274,38.313503223849224,2.691668007673137,0.6018271013066679,100,658,Correct
1,relearn,11,713,A,28.974894673583112,50.23852224433965,1.4487447336791555,0.7891448620501241,A,981,Correct
1,relearn,11,714,A,28.589436501355507,49.501591031375085,1.4294718250677756,0.7775691736258719,A,825,Correct
1,relearn,11,715,A,22.735902853046966,48.44802151158082,1.1367951426523484,0.7610197423087127,A,444,Correct
1,relearn,11,716,B,47.60025486841319,21.621751387290214,2.380012743420659,0.33963367658027926,B,750,Correct
1,relearn,11,717,A,22.07904650125208,37.37240192654979,1.103952325062604,0.5870443166972692,A,479,Correct
1,relearn,11,718,A,53.25897145386183,81.48155599237167,2.6629485726930913,1.279909288543501,B,511,Incorrect
1,relearn,11,719,B,38.48103891915183,27.742460053002368,1.9240519459575915,0.4357775434751027,A,981,Incorrect
1,relearn,11,720,B,81.6397899026866,56.82685705763757,4.08198949513433,0.8926341832943573,B,466,Correct
1,relearn,11,721,A,58.504552343403844,70.33422404752048,2.925227617170192,1.1048074078181445,B,561,Incorrect
1,relearn,11,722,B,65.32626760840452,36.06957690050534,3.2663133804202262,0.5665795890435983,A,633,Incorrect
1,relearn,11,723,B,43.84745973893516,22.577624179785158,2.192372986946758,0.35464849129362164,B,485,Correct
1,relearn,11,724,A,43.11649362017891,67.93470207236267,2.1558246810089456,1.0671158047717293,B,1025,Incorrect
1,relearn,11,725,B,80.70698143369557,50.18209837239369,4.035349071684778,0.7882585579421617,A,147,Incorrect
1,relearn,11,726,A,13.787708504565561,36.513190630585896,0.6893854252282781,0.5735478572208615,A,775,Correct
1,relearn,11,727,B,78.36464503304637,48.157642025096784,3.9182322516523187,0.7564584720012557,B,678,Correct
1,relearn,11,728,A,51.048767369665555,61.539664105771436,2.5524383684832777,0.9666627832953752,B,470,Incorrect
1,relearn,11,729,B,85.55935725482789,56.80077824643995,4.277967862741394,0.8922245382859934,A,1235,Incorrect
1,relearn,11,730,B,46.668037904573524,35.87313804315181,2.333401895228676,0.5634939346878913,A,4417,Incorrect
1,relearn,11,731,A,47.8868147688953,66.22651637003818,2.394340738444765,1.0402836865047806,A,458,Correct
1,relearn,11,732,A,51.46025672607918,80.57636657493788,2.5730128363039593,1.265690606423915,A,432,Correct
1,relearn,11,733,B,81.11532926604423,64.3332406996335,4.055766463302211,1.0105441818179626,B,651,Correct
1,relearn,11,734,B,42.26766291597022,21.18145278634728,2.113383145798511,0.33271748232973836,A,530,Incorrect
1,relearn,11,735,B,33.62477271037258,12.125899706810511,1.681238635518629,0.19047318718541267,A,420,Incorrect
1,relearn,11,736,A,47.03644216542699,70.3241670573872,2.3518221082713495,1.1046494329865448,A,1075,Correct
1,relearn,11,737,B,46.80591288453727,37.74350953094059,2.3402956442268636,0.5928736613154966,B,1383,Correct
1,relearn,11,738,B,45.204569361085966,28.62978728815686,2.260228468054298,0.44971564709156014,B,572,Correct
1,relearn,11,739,A,18.364413269840796,47.695787274200846,0.9182206634920398,0.7492036745390547,A,699,Correct
1,relearn,11,740,A,31.3802865881606,44.504939279056735,1.56901432940803,0.6990819514377222,A,576,Correct
1,relearn,11,741,A,18.482157248587107,44.78785978499359,0.9241078624293553,0.703526056352728,A,748,Correct
1,relearn,11,742,B,82.43989358170225,60.377862997787396,4.1219946790851125,0.9484132541664994,B,602,Correct
1,relearn,11,743,A,32.69877617086709,51.150470931483326,1.6349388085433545,0.8034697185300314,A,654,Correct
1,relearn,11,744,B,52.26136200250232,28.32589709172502,2.6130681001251155,0.4449421510485191,B,1015,Correct
1,relearn,11,745,B,38.275612216693304,22.462194605211952,1.913780610834665,0.35283532777619075,A,664,Incorrect
1,relearn,11,746,A,31.787387255735787,40.55806822906679,1.5893693627867893,0.6370846459611491,B,703,Incorrect
1,relearn,11,747,B,78.56551408711125,65.0616503584074,3.9282757043555625,1.0219860139820023,B,758,Correct
1,relearn,11,748,B,40.201780856461696,18.391197611656803,2.010089042823085,0.28888825653749584,A,623,Incorrect
1,relearn,11,749,A,39.75937921564136,70.47811514655294,1.987968960782068,1.1070676439163312,A,3214,Correct
1,relearn,11,750,B,64.52647613418308,43.659200776930476,3.2263238067091544,0.6857971221120328,B,1729,Correct
1,relearn,11,751,B,31.02681640291228,16.003638026323337,1.5513408201456143,0.2513845582710383,A,822,Incorrect
1,relearn,11,752,B,72.12173516808502,42.23158222696974,3.6060867584042513,0.6633721423686071,B,548,Correct
1,relearn,11,753,B,54.88196569665037,23.326917867064374,2.744098284832518,0.36641836901030955,A,1425,Incorrect
1,relearn,11,754,A,18.424567332755373,34.5128844433768,0.9212283666377686,0.54212712110753,A,679,Correct
1,relearn,11,755,B,50.382471811628044,39.78316303216161,2.5191235905814024,0.6249124635920198,B,699,Correct
1,relearn,11,756,B,34.62008949434855,17.872840251070354,1.7310044747174274,0.28074591815773287,B,819,Correct
1,relearn,11,757,B,72.00803583738815,46.78806421571185,3.6004017918694076,0.7349451940788392,B,644,Correct
1,relearn,11,758,A,30.115157641536683,46.96749049007537,1.5057578820768343,0.7377636154058461,A,762,Correct
1,relearn,11,759,B,42.256497623831564,30.0489242885294,2.112824881191578,0.4720073989655994,A,628,Incorrect
1,relearn,11,760,B,53.422118660221656,36.16708651217723,2.671105933011083,0.5681112664420124,A,1353,Incorrect
1,relearn,11,761,A,46.69719640998989,71.90847049202522,2.3348598204994944,1.1295356131431242,B,423,Incorrect
1,relearn,11,762,A,67.13168016754994,88.48627604041572,3.356584008377497,1.3899391737604427,B,914,Incorrect
1,relearn,11,763,A,48.38717038061841,69.94509582336634,2.4193585190309204,1.0986949959666092,A,1036,Correct
1,relearn,11,764,B,69.88132112623198,48.24714724200165,3.494066056311599,0.7578644166606872,A,849,Incorrect
1,relearn,11,765,A,30.14086101526439,50.67554925469631,1.5070430507632195,0.7960096662759082,A,593,Correct
1,relearn,11,766,B,41.73130424931574,26.51602693565113,2.086565212465787,0.4165127771171533,A,675,Incorrect
1,relearn,11,767,B,82.08253677078298,52.30058138642444,4.104126838539149,0.8215356113103304,B,844,Correct
1,relearn,11,768,A,30.4683339289175,47.42514898686359,1.5234166964458749,0.7449524982626604,A,820,Correct
1,relearn,11,769,B,82.92242255194012,57.39678222109176,4.146121127597006,0.9015865468273756,B,702,Correct
1,relearn,11,770,B,66.2723258048362,58.42676405408173,3.3136162902418103,0.9177654636266368,B,528,Correct
1,relearn,11,771,A,43.79801821292395,63.80273041563726,2.1899009106461973,1.0022109457636803,A,696,Correct
1,relearn,11,772,A,45.35908180810053,52.66241902650349,2.2679540904050266,0.8272193436696536,A,950,Correct
1,relearn,11,773,B,78.96534906295082,54.69877869707301,3.9482674531475412,0.8592064065752922,B,660,Correct
1,relearn,11,774,A,27.256009171384683,44.35944646001134,1.3628004585692342,0.6967965555804069,A,570,Correct
1,relearn,11,775,B,34.53813811262583,19.941249384683672,1.7269069056312916,0.313236412851621,A,742,Incorrect
1,relearn,11,776,A,30.88173395606979,42.626502440545494,1.5440866978034895,0.6695755345772255,B,922,Incorrect
1,relearn,11,777,B,45.09267219053606,23.72831627808941,2.254633609526803,0.37272352050650404,A,1116,Incorrect
1,relearn,11,778,B,47.56161748314881,20.666333720065193,2.3780808741574404,0.3246260109579591,B,562,Correct
1,relearn,11,779,A,60.32598505490331,77.56629584485685,3.0162992527451653,1.218408525961874,B,1070,Incorrect
1,relearn,11,780,A,45.93390229357029,54.9823753907335,2.296695114678515,0.8636611330222229,A,825,Correct
1,relearn,11,781,B,69.45007625535835,38.01790357583927,3.4725038127679175,0.5971838328937089,A,819,Incorrect
1,relearn,11,782,B,50.883964425646,23.51365675809807,2.5441982212823,0.36935165665136444,A,713,Incorrect
1,relearn,11,783,B,57.39521906067407,41.58358262791964,2.8697609530337034,0.6531933884690824,B,511,Correct
1,relearn,11,784,A,18.428168223129997,46.93004366769696,0.9214084111565,0.7371754020954249,A,993,Correct
1,relearn,11,785,B,85.71190660307158,63.393452831923355,4.28559533015358,0.9957820285123073,B,800,Correct
1,relearn,11,786,A,54.10070430202696,83.7706151498661,2.7050352151013484,1.315865745707586,A,897,Correct
1,relearn,11,787,A,50.57737346069966,68.30589416647359,2.5288686730349834,1.0729464765513768,A,470,Correct
1,relearn,11,788,A,35.301270139298644,68.10415773546374,1.7650635069649323,1.0697776081032668,A,486,Correct
1,relearn,11,789,A,14.011880982755148,41.504257503707706,0.7005940491377574,0.6519473523317358,A,628,Correct
1,relearn,11,790,A,12.651850037337269,32.482009639636004,0.6325925018668634,0.5102262142885665,A,523,Correct
1,relearn,11,791,A,35.33426607163969,59.028448474830746,1.7667133035819844,0.9272167004066595,B,459,Incorrect
1,relearn,11,792,A,53.90180292680382,82.50015775605036,2.6950901463401906,1.2959094476320339,A,1472,Correct
1,relearn,11,793,A,34.23574178177907,58.33471083130645,1.7117870890889535,0.9163194949845864,A,686,Correct
1,relearn,11,794,A,35.370492880432764,53.73975368967827,1.7685246440216382,0.8441420769860912,A,821,Correct
1,relearn,11,795,B,54.28128566210117,34.97838887891605,2.714064283105058,0.549439247682048,B,514,Correct
1,relearn,11,796,A,45.356512348012444,69.83873181628134,2.2678256174006224,1.0970242340502858,B,626,Incorrect
1,relearn,11,797,B,78.39102090259024,49.399032802600324,3.919551045129512,0.7759581927354519,A,632,Incorrect
1,relearn,11,798,A,53.50415713283857,61.64631121452023,2.675207856641929,0.9683379921622343,B,622,Incorrect
1,relearn,11,799,A,54.58953551923177,62.357577576193584,2.7294767759615883,0.9795105380451269,A,997,Correct
1,relearn,11,800,A,59.589727621498454,79.89482580533594,2.979486381074923,1.2549849890493983,A,659,Correct
1,relearn,11,801,A,50.37441163140541,62.42748783868948,2.5187205815702702,0.980608685880465,A,535,Correct
1,relearn,11,802,B,52.19245185475507,22.727222094251324,2.609622592737754,0.35699836983901795,A,378,Incorrect
1,relearn,11,803,B,65.16388367207003,50.27132428600278,3.2581941836035013,0.7896601153156825,B,519,Correct
1,relearn,11,804,A,44.12441109160221,56.47382780934445,2.206220554580111,0.8870888128296573,A,600,Correct
1,relearn,11,805,B,57.333041836628134,45.82342336222599,2.8666520918314067,0.7197926509855203,A,589,Incorrect
1,relearn,11,806,A,64.49037177047056,85.53646712376352,3.2245185885235284,1.3436036836502017,A,784,Correct
1,relearn,11,807,A,53.230644655718436,79.1983475705383,2.661532232785922,1.244044734520271,A,366,Correct
1,relearn,11,808,A,54.43246804022472,83.0728953123054,2.721623402011236,1.304905988127863,A,331,Correct
1,relearn,11,809,A,42.72770622985053,64.97754389961294,2.1363853114925266,1.0206648728166614,B,695,Incorrect
1,relearn,11,810,B,72.82793617845303,53.16642476185274,3.6413968089226514,0.835136247247355,B,518,Correct
1,relearn,11,811,B,86.96634293547342,65.44036606606272,4.348317146773671,1.027934866406847,B,483,Correct
1,relearn,11,812,A,46.12916871705529,60.984716633387315,2.3064584358527647,0.9579456887835242,B,871,Incorrect
1,relearn,11,813,B,79.9049861151335,55.34370947121969,3.995249305756675,0.8693369554859581,B,673,Correct
1,relearn,11,814,B,38.79151400431512,28.153730736503636,1.9395757002157559,0.44223776826472494,A,530,Incorrect
1,relearn,11,815,B,35.48501376596849,25.184769620980997,1.7742506882984244,0.39560143611812654,A,406,Incorrect
1,relearn,11,816,B,62.07476196724011,31.578726312275865,3.103738098362005,0.4960374729618428,B,775,Correct
1,relearn,11,817,A,63.04382128152723,82.08149327181084,3.1521910640763617,1.289333081292005,B,1365,Incorrect
1,relearn,11,818,B,49.82919362078128,29.957759960365053,2.491459681039064,0.4705753930474465,B,644,Correct
1,relearn,11,819,A,50.10044496250419,70.87550439505529,2.5050222481252096,1.1133098196348838,B,644,Incorrect
1,relearn,11,820,A,19.993203216844403,40.75097182115681,0.9996601608422202,0.6401147684999546,A,1559,Correct
1,relearn,11,821,A,24.372707176478077,47.008565467826465,1.2186353588239038,0.7384088196475924,A,472,Correct
1,relearn,11,822,B,68.35002583416264,41.061935743450185,3.417501291708132,0.6449993783689962,B,548,Correct
1,relearn,11,823,A,34.76210005924529,63.01018413467503,1.7381050029622644,0.989761657894176,A,692,Correct
1,relearn,11,824,B,54.167368290956574,44.759881999689846,2.7083684145478286,0.7030865823288582,A,486,Incorrect
1,relearn,11,825,B,49.51715604749129,23.013906688307035,2.4758578023745645,0.3615016009119319,B,730,Correct
1,relearn,11,826,B,47.26807629329272,37.83488756810418,2.363403814664636,0.5943090241667593,B,571,Correct
1,relearn,11,827,B,67.78765756743316,49.4103371948415,3.3893828783716575,0.7761357617135429,B,558,Correct
1,relearn,11,828,A,11.494151201302618,33.04786868818036,0.5747075600651308,0.5191147074379379,A,1044,Correct
1,relearn,11,829,B,70.14755641237936,51.08502730357051,3.507377820618968,0.8024417324266557,107,412,Incorrect
1,relearn,11,830,A,27.333225563862808,45.89492472760972,1.3666612781931402,0.7209157918065761,107,441,Correct
1,relearn,11,831,B,86.11944597460572,68.45817656985501,4.3059722987302855,1.075338522950047,B,305,Correct
1,relearn,11,832,A,48.210968518171256,76.29914148962851,2.410548425908563,1.1985041118951256,A,708,Correct
1,relearn,11,833,A,43.21268358759824,70.95771366553457,2.160634179379912,1.1146011598358574,A,1443,Correct
1,relearn,11,834,A,14.125404067719206,38.40979667402567,0.7062702033859602,0.6033396752849837,A,631,Correct
1,relearn,11,835,B,37.20596816668274,19.436312779627208,1.860298408334137,0.30530488720675125,A,500,Incorrect
1,relearn,11,836,A,51.03142913276129,68.47005810255438,2.5515714566380643,1.0755251576292555,B,391,Incorrect
1,relearn,11,837,A,39.70423349757548,59.649700008376556,1.9852116748787738,0.9369752966757541,100,418,Incorrect
1,relearn,11,838,A,47.74265911571038,59.05797619133827,2.387132955785519,0.927680520692946,A,431,Correct
1,relearn,11,839,A,38.4680057138619,71.41067287578221,1.9234002856930947,1.1217162264723066,A,503,Correct
1,relearn,11,840,A,17.197102652409246,46.538290298536765,0.8598551326204622,0.7310217545625612,A,707,Correct
1,relearn,11,841,B,54.990774706492935,33.30795771395599,2.7495387353246468,0.5232001763012182,A,561,Incorrect
1,relearn,11,842,A,29.41462166657395,58.05782792581485,1.4707310833286977,0.9119702284756013,B,602,Incorrect
1,relearn,11,843,A,53.816955103701915,64.59009609260656,2.6908477551850956,1.0145788568959577,A,590,Correct
1,relearn,11,844,B,47.40062580700615,27.67990955411196,2.3700312903503074,0.43479500253614023,A,1250,Incorrect
1,relearn,11,845,A,63.22172709018154,74.06444041970789,3.161086354509077,1.1634015095739663,B,497,Incorrect
1,relearn,11,846,A,50.42481259300037,76.2662796503634,2.521240629650018,1.197987919331032,B,1015,Incorrect
1,relearn,11,847,A,58.58123946758012,85.4503973769173,2.929061973379006,1.3422517032282595,B,627,Incorrect
1,relearn,11,848,B,36.12652110731,13.459168214449825,1.8063260553654998,0.21141611992972414,B,718,Correct
1,relearn,11,849,B,79.23483083733254,50.41298977244274,3.961741541866627,0.7918853915730175,B,716,Correct
1,relearn,11,850,B,53.76367911727736,44.706104599567865,2.6881839558638685,0.7022418489030963,B,453,Correct
1,relearn,11,851,A,21.475332135788506,50.67965322675566,1.0737666067894254,0.7960741313182693,A,568,Correct
1,relearn,11,852,A,16.30455231215054,45.60926400022936,0.8152276156075271,0.7164286435937899,A,411,Correct
1,relearn,11,853,A,52.501075004966054,60.084813455441925,2.625053750248303,0.9438100427196474,A,1444,Correct
1,relearn,11,854,A,59.83699264044231,75.04020765323925,2.9918496320221157,1.178728825436345,A,1541,Correct
1,relearn,11,855,B,82.29612310484478,59.42180776088758,4.114806155242239,0.9333955736231471,A,542,Incorrect
1,relearn,11,856,A,38.677008712269895,65.37329801555558,1.9338504356134947,1.026881363933028,B,1332,Incorrect
1,relearn,11,857,A,34.139959784946164,54.58584833732901,1.7069979892473084,0.8574325006325973,A,611,Correct
1,relearn,11,858,B,33.95185880725475,21.223921364266914,1.6975929403627377,0.333384577191742,A,810,Incorrect
1,relearn,11,859,A,56.41709716852357,65.06846972344346,2.820854858426179,1.0220931323174993,B,1057,Incorrect
1,relearn,11,860,B,54.01304692646143,22.114364183001552,2.7006523463230714,0.3473716202806346,A,809,Incorrect
1,relearn,11,861,B,84.81519420663622,61.22189913257607,4.240759710331811,0.9616713427685816,A,316,Incorrect
1,relearn,11,862,A,55.456556822677385,67.47561767808165,2.772827841133869,1.0599045239694742,B,876,Incorrect
1,relearn,11,863,B,52.40235411628894,39.58939181049948,2.620117705814447,0.6218687123597654,B,531,Correct
1,relearn,11,864,B,66.07376835203368,45.81541169295639,3.3036884176016836,0.7196668039789186,B,576,Correct
1,relearn,11,865,B,49.72938012422323,40.97090458203328,2.486469006211162,0.6435694642292206,B,789,Correct
1,relearn,11,866,A,57.278701925307466,84.4067339009809,2.863935096265373,1.3258578756841508,A,629,Correct
1,relearn,11,867,B,43.28496033435363,14.597887925782864,2.164248016717681,0.22930308732783294,B,733,Correct
1,relearn,11,868,B,61.71708154947522,39.46220407416073,3.085854077473761,0.6198708520692228,B,986,Correct
1,relearn,11,869,B,54.14917460549282,35.40145778815746,2.7074587302746407,0.5560847985682232,B,418,Correct
1,relearn,11,870,A,48.37095819430135,67.73937409799724,2.4185479097150675,1.0640476001251942,A,646,Correct
1,relearn,11,871,B,39.29084511605814,24.365271322226487,1.9645422558029069,0.38272878694314405,B,697,Correct
1,relearn,11,872,A,44.37809583254423,69.95254410936285,2.2189047916272115,1.0988119933694513,B,608,Incorrect
1,relearn,11,873,A,27.016965714029247,55.373286954269425,1.3508482857014625,0.8698015575032618,A,852,Correct
1,relearn,11,874,A,32.76061770453359,45.03613452434992,1.6380308852266794,0.7074259468388968,A,416,Correct
1,relearn,11,875,A,34.90320388777222,58.248708235926365,1.7451601943886113,0.9149685693754078,A,456,Correct
1,relearn,11,876,B,60.76084136705209,49.08701577635521,3.0380420683526044,0.771057040748219,B,750,Correct
1,relearn,11,877,A,38.10995280994063,50.959542209222874,1.9054976404970316,0.8004706171739678,A,2528,Correct
1,relearn,11,878,A,44.58716463828752,75.2235607810264,2.2293582319143757,1.1816089296326893,A,720,Correct
1,relearn,11,879,A,14.43911118312981,33.4377549553804,0.7219555591564906,0.5252390266017938,A,767,Correct
1,relearn,11,880,B,36.55277389678862,17.385701491364866,1.827638694839431,0.2730939604138849,B,1162,Correct
1,relearn,11,881,B,56.68136309842887,49.625695343745996,2.8340681549214435,0.779518599605988,A,770,Incorrect
1,relearn,11,882,A,54.23344160532726,82.9567386876895,2.7116720802663625,1.3030814041350676,107,989,Incorrect
1,relearn,11,883,B,83.79050874859374,69.30934867142477,4.189525437429687,1.0887087030562077,A,556,Incorrect
1,relearn,11,884,A,35.936599510243134,51.78704346478727,1.7968299755121566,0.8134689765005549,A,2151,Correct
1,relearn,11,885,B,58.52011295938697,41.04763899333274,2.926005647969349,0.6447748055433002,B,496,Correct
1,relearn,11,886,B,55.8930824205313,28.038198528765758,2.794654121026565,0.4404229925893133,B,649,Correct
1,relearn,11,887,B,87.05058362315353,61.566532718372834,4.352529181157677,0.9670848344751786,B,826,Correct
1,relearn,11,888,A,62.375445337383724,82.70739314704831,3.118772266869186,1.2991646935416485,B,517,Incorrect
1,relearn,11,889,A,14.35439472962722,42.098399568319294,0.717719736481361,0.6612801140585981,A,634,Correct
1,relearn,11,890,B,59.04430404042553,48.1487049493736,2.9522152020212764,0.756318088744073,A,546,Incorrect
1,relearn,11,891,B,73.83439324247473,57.963969137358745,3.6917196621237367,0.9104958980741588,B,930,Correct
1,relearn,11,892,B,57.17653803283202,34.94984424288198,2.858826901641601,0.5489908695877278,B,371,Correct
1,relearn,11,893,A,15.610096187867097,30.58415526279595,0.7805048093933549,0.48041478744924676,A,470,Correct
1,relearn,11,894,A,64.22444674603756,75.65903141162829,3.211222337301878,1.188449286302454,B,306,Incorrect
1,relearn,11,895,A,42.61157495671117,59.027479982919566,2.1305787478355587,0.9272014873712934,A,700,Correct
1,relearn,11,896,A,58.26409889218337,78.76791360805856,2.9132049446091686,1.2372834936483614,A,536,Correct
1,relearn,11,897,B,76.90210342466119,55.73771428681537,3.8451051712330595,0.8755259686567302,A,573,Incorrect
1,relearn,11,898,B,67.26350695754476,54.30722830687126,3.3631753478772386,0.8530559474284519,B,505,Correct
