experiment,condition,subject,trial,cat,x,y,xt,yt,resp,rt,fb
1,new_learn,12,0,A,35.88321222591416,50.417286009100465,1.7941606112957078,0.7919528767006274,A,6500,Correct
1,new_learn,12,1,B,75.79047620787952,46.285042281750236,3.789523810393976,0.7270437440171975,B,4537,Correct
1,new_learn,12,2,A,57.64676652471813,77.93813692760529,2.8823383262359066,1.2242493920312008,B,3133,Incorrect
1,new_learn,12,3,B,63.8722304818074,52.6141941002042,3.19361152409037,0.8264618282987447,B,2515,Correct
1,new_learn,12,4,B,63.51728297497551,47.46066687004225,3.1758641487487758,0.7455104118669862,B,2341,Correct
1,new_learn,12,5,A,29.06565482639116,44.53369589175599,1.453282741319558,0.6995336592537129,A,2137,Correct
1,new_learn,12,6,B,75.43883955707362,54.59216868957282,3.7719419778536807,0.8575317804934836,B,1105,Correct
1,new_learn,12,7,B,33.216825770260314,17.047004768334684,1.6608412885130155,0.2677737247295521,A,1407,Incorrect
1,new_learn,12,8,B,67.27276701690022,48.262206841234885,3.3636383508450107,0.7581009722922728,B,1338,Correct
1,new_learn,12,9,B,54.65164984781301,28.603181361118374,2.7325824923906503,0.44929772216692987,A,1982,Incorrect
1,new_learn,12,10,B,56.73117254969798,24.243694468092016,2.836558627484899,0.38081906218416695,B,861,Correct
1,new_learn,12,11,A,18.145052686750898,36.77303378635561,0.9072526343375449,0.5776294639671202,A,1375,Correct
1,new_learn,12,12,B,74.55476677073108,63.57934531075499,3.727738338536554,0.9987020207415825,B,872,Correct
1,new_learn,12,13,B,31.42080925058409,14.659449919704006,1.5710404625292045,0.2302701008670479,A,1256,Incorrect
1,new_learn,12,14,A,26.431116289462416,37.58822724367603,1.3215558144731208,0.5904344928509816,A,852,Correct
1,new_learn,12,15,B,69.44837895045131,41.218786694410724,3.472418947522566,0.6474631873452272,B,703,Correct
1,new_learn,12,16,A,53.41287432057101,77.72843484211006,2.6706437160285503,1.2209553993750293,B,865,Incorrect
1,new_learn,12,17,B,42.8359530265592,22.105311283713895,2.14179765132796,0.34722941767115567,B,1978,Correct
1,new_learn,12,18,A,32.3194339773292,55.2529628173543,1.6159716988664599,0.8679115103803514,B,2151,Incorrect
1,new_learn,12,19,B,73.835727189852,55.42132937763641,3.6917863594925997,0.8705562061248135,B,1398,Correct
1,new_learn,12,20,A,13.011268712901536,39.059299055508106,0.6505634356450769,0.613542034835755,A,851,Correct
1,new_learn,12,21,B,49.52892201545335,31.88324514301741,2.4764461007726677,0.5008208435695298,B,1772,Correct
1,new_learn,12,22,A,46.80338189198142,65.20904058625442,2.3401690945990707,1.0243012142670778,A,2172,Correct
1,new_learn,12,23,B,86.06296352890361,68.4229892397065,4.30314817644518,1.074785801660577,B,1007,Correct
1,new_learn,12,24,A,50.63232054647968,64.13894041302598,2.531616027323984,1.0074921200529796,B,1110,Incorrect
1,new_learn,12,25,A,58.283274738658505,83.17092105298099,2.9141637369329256,1.3064457728617085,B,754,Incorrect
1,new_learn,12,26,B,68.32932127198065,56.42930286491576,3.416466063599032,0.8863894166380641,B,847,Correct
1,new_learn,12,27,A,55.635580785059105,71.19366408100683,2.7817790392529553,1.118307460295153,B,795,Incorrect
1,new_learn,12,28,B,38.168331110318945,27.389091946479155,1.9084165555159474,0.43022685023777135,A,683,Incorrect
1,new_learn,12,29,B,71.62684932237052,39.01424690924477,3.581342466118526,0.6128343573771085,B,743,Correct
1,new_learn,12,30,B,57.25677898787799,41.6477481720153,2.8628389493938995,0.6542012984788049,B,2061,Correct
1,new_learn,12,31,B,49.23651896530778,34.24439787614877,2.461825948265389,0.5379097439715744,A,6836,Incorrect
1,new_learn,12,32,B,59.3165362541749,30.359905922884412,2.965826812708745,0.47689228705505454,B,1039,Correct
1,new_learn,12,33,B,34.07173564643141,18.78118530346102,1.7035867823215705,0.2950141688753087,A,3933,Incorrect
1,new_learn,12,34,B,58.20844142436384,30.20974718083716,2.9104220712181923,0.4745335990506149,B,924,Correct
1,new_learn,12,35,A,17.38833453191123,33.35681767256834,0.8694167265955615,0.5239676667363744,A,4136,Correct
1,new_learn,12,36,A,59.131705689394124,72.57919261523459,2.9565852844697065,1.1400712916174978,B,3879,Incorrect
1,new_learn,12,37,B,37.04168828258207,14.509551927230387,1.8520844141291035,0.22791550870733307,B,1569,Correct
1,new_learn,12,38,B,50.29692129620643,32.88631752127745,2.5148460648103215,0.5165770676423326,B,3146,Correct
1,new_learn,12,39,A,38.547782537735095,70.51257332438763,1.9273891268867547,1.107608911708039,A,2072,Correct
1,new_learn,12,40,B,44.1727262058869,35.69083601171189,2.208636310294345,0.5606303410743605,B,2536,Correct
1,new_learn,12,41,A,43.448141200469706,50.60274919113344,2.1724070600234855,0.7948661255515584,B,2078,Incorrect
1,new_learn,12,42,B,62.760671087327175,46.74327108502559,3.1380335543663587,0.7342415852273629,B,953,Correct
1,new_learn,12,43,B,75.31020372226904,52.056089830349066,3.7655101861134517,0.8176951469281748,B,2636,Correct
1,new_learn,12,44,B,47.62448970447463,17.797335605801358,2.3812244852237314,0.27955989396328795,A,2636,Incorrect
1,new_learn,12,45,B,44.12386384180759,22.74773965270133,2.2061931920903795,0.3573206588934987,B,840,Correct
1,new_learn,12,46,B,45.61477676925554,25.113456413186913,2.280738838462777,0.3944812508695775,B,1548,Correct
1,new_learn,12,47,A,51.99363265449651,61.10145142620863,2.5996816327248258,0.9597793546212531,A,1832,Correct
1,new_learn,12,48,B,41.45478821680081,23.35778588127416,2.0727394108400405,0.3669032426436714,B,2060,Correct
1,new_learn,12,49,A,15.485173537451626,41.24960093707706,0.7742586768725813,0.6479472163371598,A,1609,Correct
1,new_learn,12,50,A,46.251048570024054,74.23396581795132,2.3125524285012027,1.1660644083025582,A,1217,Correct
1,new_learn,12,51,A,19.432588626555038,37.188080011905456,0.9716294313277518,0.584148994832558,A,1839,Correct
1,new_learn,12,52,B,41.36847654735189,18.74886821787359,2.0684238273675946,0.2945065332819741,B,1538,Correct
1,new_learn,12,53,A,41.09781598463183,70.3647215985439,2.0548907992315915,1.1052864622293828,A,2317,Correct
1,new_learn,12,54,B,63.578589388088425,32.76683464528022,3.1789294694044212,0.5147002350150193,B,978,Correct
1,new_learn,12,55,A,47.34296586461287,55.00691806227823,2.3671482932306436,0.8640466484053448,A,3031,Correct
1,new_learn,12,56,B,35.770295894868596,18.252158350732962,1.7885147947434297,0.28670423293410136,B,1081,Correct
1,new_learn,12,57,A,61.124148724832935,78.31703212142295,3.056207436241647,1.2302010638180911,A,1131,Correct
1,new_learn,12,58,A,27.40561007433179,37.03662589222473,1.3702805037165893,0.5817699590838336,B,4783,Incorrect
1,new_learn,12,59,A,21.749129601448942,53.487071907962786,1.087456480072447,0.8401729608404244,A,940,Correct
1,new_learn,12,60,B,40.443182812439005,28.306606384697474,2.0221591406219503,0.44463913333111754,B,3729,Correct
1,new_learn,12,61,A,40.83918843656993,65.84995661065668,2.0419594218284964,1.0343686996362282,A,1378,Correct
1,new_learn,12,62,B,72.47214921805363,59.363977639444585,3.6236074609026816,0.9324871801997392,B,1914,Correct
1,new_learn,12,63,A,41.05824184748312,51.456803691693906,2.052912092374156,0.8082815822751885,107,1573,Incorrect
1,new_learn,12,64,A,46.43147874639462,70.60562365862069,2.321573937319731,1.1090705429402423,A,1255,Correct
1,new_learn,12,65,A,51.79630598789804,69.52034093212606,2.589815299394902,1.092022961737125,B,1334,Incorrect
1,new_learn,12,66,A,63.62786751372471,79.64939774582271,3.1813933756862354,1.2511298141056402,A,777,Correct
1,new_learn,12,67,A,16.680866162613945,39.121664587183986,0.8340433081306972,0.614521670316506,A,1290,Correct
1,new_learn,12,68,A,59.51931159109735,86.9822893246645,2.975965579554867,1.3663146056739395,A,1019,Correct
1,new_learn,12,69,B,60.753086692774495,32.460178103259594,3.0376543346387246,0.509883285317083,B,1218,Correct
1,new_learn,12,70,B,77.67236231862853,51.941789221783736,3.8836181159314265,0.8158997171673265,B,3080,Correct
1,new_learn,12,71,B,76.0636698818004,58.31615053119315,3.8031834940900193,0.9160279504721647,B,1074,Correct
1,new_learn,12,72,A,45.59058348114599,55.2952184960116,2.2795291740572994,0.8685752610285624,B,1779,Incorrect
1,new_learn,12,73,A,14.275060680046312,43.15016817641737,0.7137530340023156,0.6778012567209843,A,776,Correct
1,new_learn,12,74,A,39.53301653742074,56.7097904618838,1.976650826871037,0.8907953055083534,B,1110,Incorrect
1,new_learn,12,75,A,24.36286639841787,47.4012403474888,1.2181433199208938,0.7445769422335745,B,1936,Incorrect
1,new_learn,12,76,B,50.44348341569104,43.55874862274129,2.522174170784552,0.6842192233638429,B,1312,Correct
1,new_learn,12,77,B,57.72421810691619,32.76457377997033,2.8862109053458096,0.5146647214257777,B,1011,Correct
1,new_learn,12,78,A,57.50110326817289,66.50149772842836,2.8750551634086445,1.0446030835817441,A,1070,Correct
1,new_learn,12,79,A,16.401550554127155,42.42576107422935,0.8200775277063578,0.6664222965687737,A,769,Correct
1,new_learn,12,80,A,31.682701753868592,60.52692726998675,1.5841350876934297,0.9507547502787705,B,1347,Incorrect
1,new_learn,12,81,B,55.684141210528395,48.95699365930133,2.78420706052642,0.7690146581095159,B,837,Correct
1,new_learn,12,82,A,45.262588108012466,56.85950476337883,2.2631294054006235,0.8931470122569239,B,1684,Incorrect
1,new_learn,12,83,B,45.18380550613681,26.97254241914016,2.2591902753068407,0.42368370556304896,B,1541,Correct
1,new_learn,12,84,A,28.86148553843861,55.6678955446574,1.4430742769219305,0.8744292584194981,A,1631,Correct
1,new_learn,12,85,B,62.62344747556944,46.68638392185704,3.1311723737784725,0.7333480037578936,B,654,Correct
1,new_learn,12,86,B,33.81784145776942,21.409041522317132,1.6908920728884709,0.3362924378345517,B,2113,Correct
1,new_learn,12,87,B,61.910003688198195,45.963363656840755,3.09550018440991,0.7219908279930352,B,898,Correct
1,new_learn,12,88,A,64.32123195009326,76.98441623304868,3.216061597504663,1.2092683823932227,A,814,Correct
1,new_learn,12,89,B,73.5405538272815,47.41094390647143,3.6770276913640747,0.7447293653816421,B,2814,Correct
1,new_learn,12,90,A,26.570271190488086,37.416779096738686,1.3285135595244042,0.5877413916565319,A,6946,Correct
1,new_learn,12,91,A,21.20295172001612,45.534932351674755,1.060147586000806,0.7152610447886482,B,3213,Incorrect
1,new_learn,12,92,B,42.80956413357808,27.950796279868683,2.140478206678904,0.43905008127410194,B,1303,Correct
1,new_learn,12,93,B,74.86153498336307,56.18241737070733,3.7430767491681536,0.8825113483636485,B,3223,Correct
1,new_learn,12,94,B,76.8631530374372,64.4632517012568,3.84315765187186,1.0125863898558902,B,1477,Correct
1,new_learn,12,95,B,50.85956571528562,35.60336519460696,2.542978285764281,0.5592563526922588,B,2387,Correct
1,new_learn,12,96,A,52.1297711699967,74.9840717209748,2.6064885584998354,1.177847044274323,A,1214,Correct
1,new_learn,12,97,B,61.969202230774705,35.60134049601835,3.0984601115387354,0.5592245488012003,B,911,Correct
1,new_learn,12,98,B,46.90907590473205,32.83137101493956,2.3454537952366024,0.515713969939075,B,1038,Correct
1,new_learn,12,99,A,64.8790229980406,76.18365021041791,3.2439511499020295,1.1966899791235168,A,1332,Correct
1,new_learn,12,100,B,56.79579305350257,43.846146299502195,2.8397896526751287,0.6887336555136969,B,837,Correct
1,new_learn,12,101,B,48.89033868399926,22.611287583633583,2.444516934199963,0.3551772748047468,B,1323,Correct
1,new_learn,12,102,A,19.0551527101595,49.899592984126706,0.9527576355079751,0.7838209736802662,A,958,Correct
1,new_learn,12,103,B,87.79249992408924,61.02134986199037,4.3896249962044624,0.9585211221928075,B,1958,Correct
1,new_learn,12,104,B,67.83485500477218,47.266435441095304,3.391742750238609,0.7424594317156061,B,938,Correct
1,new_learn,12,105,B,68.9778651822773,58.88119078343823,3.448893259113865,0.924903581999343,B,633,Correct
1,new_learn,12,106,B,79.08195604783496,54.992501906302714,3.9540978023917486,0.8638201999568166,B,1006,Correct
1,new_learn,12,107,A,34.167834575300475,60.28855997234858,1.7083917287650237,0.9470104855231898,B,753,Incorrect
1,new_learn,12,108,B,42.721039777972635,34.87570229727608,2.1360519888986316,0.547826250629536,B,1913,Correct
1,new_learn,12,109,B,50.32166100117129,27.52647834516688,2.5160830500585645,0.43238491074187396,B,1040,Correct
1,new_learn,12,110,B,59.65265301837621,33.20737318370881,2.9826326509188106,0.5216201981947715,B,871,Correct
1,new_learn,12,111,B,49.10226798708093,33.972877208598284,2.455113399354046,0.5336447072992025,B,1060,Correct
1,new_learn,12,112,A,50.29397314205002,67.02259452355335,2.514698657102501,1.0527884528986136,A,1201,Correct
1,new_learn,12,113,A,35.80781675578905,46.20191654046277,1.7903908377894524,0.7257380079264331,B,786,Incorrect
1,new_learn,12,114,B,54.93330460409714,25.28099833278801,2.7466652302048566,0.3971129931885131,B,695,Correct
1,new_learn,12,115,B,53.769089129868405,35.563237684272295,2.68845445649342,0.5586260312338877,B,1061,Correct
1,new_learn,12,116,A,38.941137219728844,54.42174271601429,1.947056860986442,0.8548547355609216,B,1138,Incorrect
1,new_learn,12,117,A,20.669798109997604,35.01417484972427,1.03348990549988,0.5500013723970113,A,731,Correct
1,new_learn,12,118,B,54.88689505268284,30.35443117397329,2.744344752634142,0.4768062899002574,B,756,Correct
1,new_learn,12,119,A,29.12301410800446,58.92695711376416,1.4561507054002232,0.9256224778350115,A,869,Correct
1,new_learn,12,120,A,62.768369279042616,85.33971071651695,3.138418463952131,1.340513041232439,B,865,Incorrect
1,new_learn,12,121,B,86.64506853599167,61.89579997820453,4.332253426799583,0.9722569524979532,B,2334,Correct
1,new_learn,12,122,A,37.064622842489634,67.51199716713758,1.8532311421244816,1.0604759716472716,B,1470,Incorrect
1,new_learn,12,123,B,76.08587859524988,59.95388141186034,3.804293929762494,0.9417533669884707,B,881,Correct
1,new_learn,12,124,B,79.56149101106769,49.02743056257183,3.9780745505533845,0.7701210783987968,B,1555,Correct
1,new_learn,12,125,B,74.3353130133141,49.901799896183746,3.7167656506657054,0.7838556397737938,B,1112,Correct
1,new_learn,12,126,B,51.63243622108425,32.69611630411245,2.581621811054213,0.5135893939095857,B,1767,Correct
1,new_learn,12,127,A,53.758925536837026,78.11007817202265,2.687946276841851,1.226950238782754,A,1064,Correct
1,new_learn,12,128,A,19.631934979549428,49.15981030671752,0.9815967489774714,0.7722004945572577,A,914,Correct
1,new_learn,12,129,A,44.64280835124038,55.09179768067064,2.232140417562019,0.8653799343332503,B,1236,Incorrect
1,new_learn,12,130,A,33.49860510546296,46.146138340799865,1.6749302552731478,0.7248618460149757,A,807,Correct
1,new_learn,12,131,A,64.74916417951968,79.04326631822755,3.237458208975984,1.241608723905426,B,748,Incorrect
1,new_learn,12,132,A,21.800664325793765,39.13720111917999,1.0900332162896882,0.6147657175904104,A,707,Correct
1,new_learn,12,133,B,79.18882245189882,60.34476036973382,3.959441122594941,0.9478932793009613,B,1971,Correct
1,new_learn,12,134,B,79.95839539740462,67.0683580365926,3.9979197698702307,1.0535073044804464,B,1036,Correct
1,new_learn,12,135,A,38.13201828150425,46.4543138224282,1.9066009140752127,0.729702655160476,A,1419,Correct
1,new_learn,12,136,B,63.687656089681504,45.95980304610875,3.184382804484075,0.7219348980504452,B,1180,Correct
1,new_learn,12,137,B,78.02546011850613,52.55740663105829,3.9012730059253067,0.8255698128193211,B,882,Correct
1,new_learn,12,138,A,37.66217654432674,64.15559061808665,1.883108827216337,1.0077536608624764,A,1270,Correct
1,new_learn,12,139,B,38.40355335510753,12.051552651562464,1.9201776677553766,0.1893053463724961,A,2538,Incorrect
1,new_learn,12,140,A,32.177233707677104,43.32076351525428,1.608861685383855,0.6804809620371178,A,1083,Correct
1,new_learn,12,141,B,36.82504645862257,11.187674380976397,1.8412523229311288,0.1757355782301509,B,1020,Correct
1,new_learn,12,142,B,45.81953309114084,23.485109022239072,2.290976654557042,0.3689032298651082,B,1170,Correct
1,new_learn,12,143,B,61.7418680949023,45.25708209873435,3.087093404745115,0.7108965832214699,B,1032,Correct
1,new_learn,12,144,A,48.22844773250857,74.39095508994944,2.4114223866254285,1.168530390020567,A,2137,Correct
1,new_learn,12,145,A,27.312235283951466,59.52941571247806,1.3656117641975731,0.9350858753740694,A,1172,Correct
1,new_learn,12,146,B,70.64758724217073,55.855477374726455,3.5323793621085366,0.8773757869159576,B,756,Correct
1,new_learn,12,147,B,85.39368839927775,69.0736964711275,4.2696844199638875,1.085007086949927,B,733,Correct
1,new_learn,12,148,A,33.32339485036066,54.81561889381533,1.666169742518033,0.8610417280939404,A,815,Correct
1,new_learn,12,149,B,41.20551942799799,30.062285966693565,2.0602759713998995,0.4722172837154002,B,2959,Correct
1,new_learn,12,150,B,53.14456725855081,42.7653257949034,2.6572283629275404,0.6717561667282129,B,1058,Correct
1,new_learn,12,151,A,38.36467711025536,62.180818120418145,1.9182338555127678,0.9767340070065438,A,1016,Correct
1,new_learn,12,152,B,81.81137490742826,56.556697833136795,4.090568745371413,0.8883905321194017,B,764,Correct
1,new_learn,12,153,A,33.201301195802465,62.160737958208216,1.6600650597901234,0.9764185885561357,A,1013,Correct
1,new_learn,12,154,B,55.9125518749945,35.885032920582404,2.7956275937497246,0.5636807789856478,B,1727,Correct
1,new_learn,12,155,A,27.773456309990873,42.53555969473706,1.3886728154995436,0.6681470092665802,A,2572,Correct
1,new_learn,12,156,A,27.631091661541735,39.38970223330253,1.3815545830770868,0.6187319958161636,A,3767,Correct
1,new_learn,12,157,A,26.93203817718308,43.348119245714656,1.3466019088591539,0.6809106648463575,A,1379,Correct
1,new_learn,12,158,B,73.97765219085687,44.416278611900545,3.6988826095428435,0.697689272934721,B,1194,Correct
1,new_learn,12,159,B,77.88452284211897,61.366231960210754,3.894226142105948,0.9639385175234264,B,1209,Correct
1,new_learn,12,160,B,49.918998276012005,23.780426351552265,2.4959499138006005,0.3735420636263486,B,1762,Correct
1,new_learn,12,161,B,43.16924567350555,28.710869783832663,2.1584622836752776,0.4509892879553093,B,1611,Correct
1,new_learn,12,162,A,62.638650527092366,76.83149348697685,3.131932526354618,1.2068662775150927,A,4561,Correct
1,new_learn,12,163,A,53.65786204786012,67.35919812493941,2.682893102393006,1.0580758099050451,B,3395,Incorrect
1,new_learn,12,164,B,52.5908174283005,29.19174482258098,2.629540871415025,0.45854285540044143,B,778,Correct
1,new_learn,12,165,B,61.781386748030606,36.34554855530926,3.08906933740153,0.5709145416602535,B,942,Correct
1,new_learn,12,166,B,35.30858205182463,19.47298984805597,1.7654291025912314,0.3058810092504063,B,2670,Correct
1,new_learn,12,167,A,32.6121673114319,64.13971788643966,1.6306083655715948,1.0075043325768034,A,1281,Correct
1,new_learn,12,168,A,29.392832319504468,52.05709362175526,1.4696416159752235,0.8177109144467121,A,1587,Correct
1,new_learn,12,169,B,70.21377442349915,46.797421603634504,3.5106887211749576,0.735092179584612,B,698,Correct
1,new_learn,12,170,B,47.00471624409436,25.279474700749976,2.3502358122047182,0.3970890600324258,B,1153,Correct
1,new_learn,12,171,A,47.68342949173399,58.478809472700554,2.3841714745866995,0.9185829911505664,B,3029,Incorrect
1,new_learn,12,172,B,43.95969598585956,18.296980587437105,2.197984799292978,0.28740829898183734,B,1013,Correct
1,new_learn,12,173,B,73.6773561182994,50.39418025526783,3.6838678059149697,0.7915899323681461,B,1342,Correct
1,new_learn,12,174,A,24.257055266901215,45.56993212505964,1.2128527633450608,0.7158108199433643,A,1060,Correct
1,new_learn,12,175,B,71.85495843041521,44.56301666021267,3.5927479215207603,0.6999942288076183,B,856,Correct
1,new_learn,12,176,B,56.26401589030141,48.737634113486465,2.8132007945150703,0.7655689664213818,B,1840,Correct
1,new_learn,12,177,A,48.168004871514796,58.40775791962331,2.40840024357574,0.9174669159646982,A,1201,Correct
1,new_learn,12,178,A,33.86121574447766,63.133357427513594,1.693060787223883,0.9916964594536765,A,1318,Correct
1,new_learn,12,179,A,19.895310832106013,42.70303569974058,0.9947655416053007,0.6707777162014383,A,1341,Correct
1,new_learn,12,180,B,74.03886401259886,64.06620497145751,3.7019432006299433,1.0063495944085439,B,753,Correct
1,new_learn,12,181,B,60.70320910549246,48.08689084238866,3.035160455274623,0.7553471150221126,B,1187,Correct
1,new_learn,12,182,B,69.4466785376228,43.24792588225332,3.47233392688114,0.6793368311734146,B,842,Correct
1,new_learn,12,183,A,32.90095667778212,64.60690374826915,1.645047833889106,1.0148428709337263,A,1039,Correct
1,new_learn,12,184,A,22.326511569799962,53.107572211855384,1.1163255784899981,0.8342117935537715,A,1033,Correct
1,new_learn,12,185,B,71.44807898650384,47.71929990835581,3.5724039493251922,0.7495730101326935,B,902,Correct
1,new_learn,12,186,B,72.10385474405986,51.7514204446572,3.6051927372029926,0.8129094114088583,B,1607,Correct
1,new_learn,12,187,B,52.891344101068015,32.7999899166884,2.6445672050534004,0.515221036800438,B,1285,Correct
1,new_learn,12,188,A,23.719830467195543,51.73544216844946,1.1859915233597773,0.812658425233102,A,1011,Correct
1,new_learn,12,189,B,53.763234325883246,21.926715315623582,2.6881617162941622,0.3444240387645892,B,934,Correct
1,new_learn,12,190,A,51.05702734032056,63.18804499985569,2.5528513670160278,0.9925554898312395,A,891,Correct
1,new_learn,12,191,B,72.96569646812303,44.248845284503055,3.6482848234061516,0.6950592363781308,B,619,Correct
1,new_learn,12,192,B,40.13804518009191,17.222265687871015,2.0069022590045957,0.27052671681593576,A,746,Incorrect
1,new_learn,12,193,B,41.26512580941628,27.229043325341678,2.063256290470814,0.42771281237585806,B,1781,Correct
1,new_learn,12,194,B,58.0011718183996,40.33168489474713,2.90005859091998,0.6335286248611799,B,1201,Correct
1,new_learn,12,195,B,51.3021566161929,42.07083235046465,2.5651078308096453,0.6608470892131376,B,1402,Correct
1,new_learn,12,196,A,16.62684452254306,37.59703534382157,0.8313422261271529,0.5905728501645282,A,875,Correct
1,new_learn,12,197,B,43.709773681213484,24.432935315572678,2.185488684060674,0.3837916504651887,B,1030,Correct
1,new_learn,12,198,A,55.97731490152686,72.46816182487943,2.798865745076343,1.1383272240409876,A,925,Correct
1,new_learn,12,199,A,21.06115005162937,50.76483979617683,1.0530575025814684,0.7974122388216595,A,948,Correct
1,new_learn,12,200,A,41.997874679209794,52.031782993038945,2.0998937339604895,0.8173133360205476,B,686,Incorrect
1,new_learn,12,201,A,51.88958716899721,62.06291403321808,2.59447935844986,0.974881973935664,B,679,Incorrect
1,new_learn,12,202,A,17.372771468551644,35.4417029511102,0.8686385734275822,0.5567169681095975,A,672,Correct
1,new_learn,12,203,A,22.306039642797522,38.821103665592354,1.115301982139876,0.6098004704003636,A,933,Correct
1,new_learn,12,204,B,76.06545012008647,62.80383144169415,3.803272506004323,0.9865202773725901,B,833,Correct
1,new_learn,12,205,A,40.30365110027939,69.12622060943512,2.0151825550139693,1.0858321341851436,B,3583,Incorrect
1,new_learn,12,206,A,56.79902038857236,73.93502171673312,2.8399510194286175,1.1613686053414531,B,625,Incorrect
1,new_learn,12,207,A,48.81039252680969,62.40252634938623,2.4405196263404845,0.9802165917233762,B,1064,Incorrect
1,new_learn,12,208,A,20.44605749178489,33.74594501955301,1.0223028745892446,0.5300800648093641,A,971,Correct
1,new_learn,12,209,B,37.449287402685044,23.438874104837897,1.8724643701342523,0.36817697348087386,B,633,Correct
1,new_learn,12,210,B,80.84928107385119,62.80320636697091,4.04246405369256,0.9865104587217977,B,1489,Correct
1,new_learn,12,211,A,55.15911587799539,81.45471288902294,2.75795579389977,1.2794876380621014,A,916,Correct
1,new_learn,12,212,B,64.85844194411975,31.884062728510436,3.2429220972059873,0.5008336861724226,B,715,Correct
1,new_learn,12,213,A,34.12792832919261,57.61341102066267,1.7063964164596308,0.9049893440538153,B,2316,Incorrect
1,new_learn,12,214,B,39.380396862992484,22.687475080566788,1.9690198431496242,0.3563740252080506,B,822,Correct
1,new_learn,12,215,A,42.233377911176675,67.2736524336667,2.1116688955588336,1.056732061328802,B,5709,Incorrect
1,new_learn,12,216,B,65.8463919250734,45.65287743621275,3.2923195962536704,0.717113721844206,B,705,Correct
1,new_learn,12,217,B,57.379942839140504,31.405729754755072,2.8689971419570255,0.4933200493908245,B,3334,Correct
1,new_learn,12,218,A,33.701862752723,43.40547878553953,1.6850931376361502,0.6818116663909931,A,1499,Correct
1,new_learn,12,219,B,58.69549241380652,50.542573648475894,2.934774620690326,0.7939208903378646,B,1554,Correct
1,new_learn,12,220,A,21.74894538939018,43.307906153895104,1.087447269469509,0.6802789990771653,A,2192,Correct
1,new_learn,12,221,B,73.1043707231725,48.63144429761549,3.6552185361586247,0.7639009406942503,B,3076,Correct
1,new_learn,12,222,A,55.58828455348932,83.7363280341634,2.7794142276744664,1.315327164953564,B,5285,Incorrect
1,new_learn,12,223,A,32.55080534259558,52.97779917727958,1.6275402671297792,0.8321733234934846,B,1503,Incorrect
1,new_learn,12,224,A,28.261789537748996,41.32515418190266,1.4130894768874498,0.6491340039316545,A,1239,Correct
1,new_learn,12,225,B,50.965803589566704,27.586160130783988,2.548290179478335,0.4333223900381131,B,775,Correct
1,new_learn,12,226,B,47.879976658235734,25.725436803542696,2.3939988329117865,0.40409421636199117,B,2088,Correct
1,new_learn,12,227,A,41.528248620611045,60.346469584794875,2.076412431030552,0.9479201275883574,A,2184,Correct
1,new_learn,12,228,B,45.3777657533478,21.664583115341404,2.26888828766739,0.34030647579121015,B,1642,Correct
1,new_learn,12,229,A,52.36229897074875,80.34155275460695,2.6181149485374373,1.26200215955935,A,1658,Correct
1,new_learn,12,230,A,14.474225168478487,38.559223450058184,0.7237112584239243,0.6056868655941502,A,2664,Correct
1,new_learn,12,231,A,34.601374301276884,45.54650986769638,1.730068715063844,0.7154429039850498,B,1577,Incorrect
1,new_learn,12,232,A,16.108707140018048,30.59327921070942,0.8054353570009024,0.4805581060879303,A,1334,Correct
1,new_learn,12,233,B,61.65675446364918,43.914843988314814,3.082837723182459,0.6898127562861586,B,1381,Correct
1,new_learn,12,234,A,67.90731622630872,84.55414591671337,3.3953658113154357,1.3281734182125304,A,1624,Correct
1,new_learn,12,235,A,49.79007177017408,65.0071426849844,2.489503588508704,1.0211298094500523,B,1287,Incorrect
1,new_learn,12,236,A,33.63320978934511,61.78162621347613,1.6816604894672553,0.970463515195436,A,793,Correct
1,new_learn,12,237,A,46.896231410337585,78.90486727369901,2.344811570516879,1.2394347567976525,A,712,Correct
1,new_learn,12,238,A,31.956575832576654,42.211093590021065,1.5978287916288325,0.6630503076120069,B,787,Incorrect
1,new_learn,12,239,B,65.82570293662937,43.07757908738677,3.291285146831468,0.676661029976838,B,2171,Correct
1,new_learn,12,240,B,75.57569196324926,50.73678387623531,3.7787845981624626,0.7969715374617694,B,2653,Correct
1,new_learn,12,241,A,19.45306085087006,44.82127312867936,0.9726530425435029,0.7040509119280034,A,2289,Correct
1,new_learn,12,242,B,63.955586388264585,50.76072470747564,3.1977793194132293,0.7973475991594968,B,2731,Correct
1,new_learn,12,243,A,31.356507092266703,47.97342214486831,1.5678253546133352,0.7535647528894008,A,1978,Correct
1,new_learn,12,244,A,27.234209110664068,52.77252151277065,1.3617104555332034,0.828948829479648,A,2187,Correct
1,new_learn,12,245,B,44.696904287197356,16.550017926723708,2.2348452143598676,0.2599670736768729,B,1050,Correct
1,new_learn,12,246,A,45.531545196903096,72.74971257301794,2.276577259845155,1.142749812850811,A,2071,Correct
1,new_learn,12,247,A,28.51903068631428,39.861001400633285,1.425951534315714,0.6261351458248099,B,832,Incorrect
1,new_learn,12,248,A,65.75196044456735,86.86739575337394,3.287598022228367,1.3645098616763838,A,1423,Correct
1,new_learn,12,249,A,21.825048555342157,46.21799172001576,1.0912524277671078,0.725990516256377,A,1834,Correct
1,new_learn,12,250,B,62.27189283693783,30.567590140524356,3.1135946418468916,0.48015458311707554,B,891,Correct
1,new_learn,12,251,B,75.74754402058791,52.67810866156833,3.787377201029395,0.8274657958809395,B,1063,Correct
1,new_learn,12,252,B,48.315970883924464,28.323600021724662,2.4157985441962233,0.4449060687573295,A,1277,Incorrect
1,new_learn,12,253,A,43.6630849216078,61.31406479493689,2.18315424608039,0.9631190776075116,A,939,Correct
1,new_learn,12,254,A,26.0846456613982,42.68702906029197,1.30423228306991,0.6705262844969363,A,841,Correct
1,new_learn,12,255,A,25.84657087023848,38.08311099076096,1.292328543511924,0.5982081085720967,A,2303,Correct
1,new_learn,12,256,A,23.786751741318984,46.58711025733914,1.189337587065949,0.7317886166821718,A,956,Correct
1,new_learn,12,257,B,71.55037770131025,57.58089073167771,3.577518885065513,0.9044785165489766,B,1182,Correct
1,new_learn,12,258,B,39.80095002230438,23.812012267951072,1.990047501115219,0.3740382140409256,A,998,Incorrect
1,new_learn,12,259,B,61.427229533847665,52.4997261091072,3.071361476692383,0.824663769299237,B,2411,Correct
1,new_learn,12,260,B,56.84984873965112,44.48301522869717,2.842492436982556,0.6987375692599895,B,1136,Correct
1,new_learn,12,261,B,74.63610477086613,58.618823916180915,3.7318052385433065,0.9207823328857382,B,989,Correct
1,new_learn,12,262,A,46.28877247186714,71.50041729400489,2.314438623593357,1.123125928497252,A,2357,Correct
1,new_learn,12,263,B,66.88903328375511,49.26057579566086,3.3444516641877557,0.7737833151562568,B,1572,Correct
1,new_learn,12,264,B,57.257030466939106,49.05961574566072,2.862851523346955,0.7706266420725293,B,1834,Correct
1,new_learn,12,265,B,59.940425247266006,34.163703015862836,2.9970212623633006,0.5366421920702907,B,1388,Correct
1,new_learn,12,266,B,66.97094413309478,49.5541255819951,3.348547206654739,0.7783943844173091,B,1064,Correct
1,new_learn,12,267,B,52.70322276289125,29.936766603221386,2.6351611381445625,0.4702456301645628,B,1147,Correct
1,new_learn,12,268,A,38.59593629124248,62.572762679902155,1.929796814562124,0.9828906577499908,A,1847,Correct
1,new_learn,12,269,B,76.10461032965475,45.65109017889023,3.8052305164827374,0.7170856476718336,B,891,Correct
1,new_learn,12,270,A,31.421907193784836,42.35510306446271,1.5710953596892419,0.6653124031467729,A,3548,Correct
1,new_learn,12,271,A,17.980134854910837,32.68467667746451,0.8990067427455418,0.5134097006744007,A,927,Correct
1,new_learn,12,272,A,47.661011684205135,59.974131033027994,2.383050584210257,0.9420714472939618,B,809,Incorrect
1,new_learn,12,273,B,80.4625313726505,65.23259669613172,4.0231265686325255,1.024671232775766,B,1026,Correct
1,new_learn,12,274,B,63.62560452404922,31.909948144340643,3.181280226202461,0.501240293333459,A,2370,Incorrect
1,new_learn,12,275,B,55.91802646762873,45.16280957735067,2.7959013233814365,0.7094157539183982,B,1194,Correct
1,new_learn,12,276,A,47.207919001194036,68.91562881208134,2.3603959500597016,1.0825241659677791,A,1033,Correct
1,new_learn,12,277,B,43.889565048802794,20.92934114011782,2.19447825244014,0.3287573218513438,B,1251,Correct
1,new_learn,12,278,A,24.376509281822873,46.19340285648688,1.2188254640911438,0.7256042752912647,A,2293,Correct
1,new_learn,12,279,A,15.769251675950276,42.98254439539471,0.7884625837975138,0.6751682285258457,A,1020,Correct
1,new_learn,12,280,B,53.35620676495488,37.86311982097257,2.667810338247744,0.5947524953577876,A,1226,Incorrect
1,new_learn,12,281,B,43.09828229385971,24.19354733407069,2.1549141146929855,0.3800313528449671,B,903,Correct
1,new_learn,12,282,B,51.78728624417771,44.24036254664393,2.5893643122088856,0.694925989843428,B,1050,Correct
1,new_learn,12,283,B,68.79917224488229,45.81563017360813,3.4399586122441144,0.7196702358649707,B,1270,Correct
1,new_learn,12,284,A,53.68831659970375,69.1874014675057,2.6844158299851877,1.0867931608564179,A,831,Correct
1,new_learn,12,285,A,55.336084282587464,62.72304389895084,2.7668042141293734,0.9852512696186703,A,2652,Correct
1,new_learn,12,286,A,29.970430276515128,51.755770991589074,1.4985215138257564,0.8129777496402599,A,1220,Correct
1,new_learn,12,287,B,50.247372705471975,42.78062262073202,2.5123686352735985,0.6719964487064451,B,789,Correct
1,new_learn,12,288,A,10.974539434361372,35.60785945799094,0.5487269717180686,0.5593269484164108,A,917,Correct
1,new_learn,12,289,A,49.05102120146167,79.98308193131052,2.4525510600730835,1.2563713130343783,A,956,Correct
1,new_learn,12,290,A,57.787826264979785,81.97499652558716,2.8893913132489892,1.2876602343141672,A,905,Correct
1,new_learn,12,291,A,28.106295810844962,42.301539086605146,1.405314790542248,0.664471022150101,A,1304,Correct
1,new_learn,12,292,A,66.66676152145666,81.42739561366913,3.3333380760728333,1.2790585393042633,A,1281,Correct
1,new_learn,12,293,A,34.59413905915406,63.52185470781178,1.729706952957703,0.9977989604622987,A,1411,Correct
1,new_learn,12,294,B,77.21757079219536,59.34062363567726,3.860878539609768,0.9321203363664027,B,1153,Correct
1,new_learn,12,295,B,71.05439638023809,60.67575442473611,3.5527198190119043,0.9530925217588467,B,1103,Correct
1,new_learn,12,296,A,59.274376021033746,83.74341487430966,2.9637188010516873,1.3154384847782672,A,1111,Correct
1,new_learn,12,297,A,11.946052669493309,38.44602136772001,0.5973026334746655,0.603908691442927,A,970,Correct
1,new_learn,12,298,A,22.174860740407937,43.26758246821677,1.1087430370203968,0.6796455961037017,A,976,Correct
1,new_learn,12,299,B,43.92950927261613,16.24975623980099,2.1964754636308066,0.25525057412791846,B,1260,Correct
1,new_learn,12,300,A,26.707405794763275,43.71730046802741,1.3353702897381639,0.6867097499256627,A,1197,Incorrect
1,new_learn,12,301,B,63.70820249441041,41.182465658720126,3.1854101247205207,0.6468926578507455,B,778,Incorrect
1,new_learn,12,302,A,45.67299596045106,62.67550723307499,2.283649798022553,0.9845045654172118,A,1092,Correct
1,new_learn,12,303,B,55.62315944783034,35.52983052581506,2.781157972391517,0.5581012728159548,B,667,Correct
1,new_learn,12,304,A,20.99636791419059,51.50480608663341,1.0498183957095295,0.8090356021316719,A,989,Incorrect
1,new_learn,12,305,A,54.295019875207544,83.85065916778423,2.7147509937603775,1.3171230742008626,A,882,Correct
1,new_learn,12,306,A,39.06487409079728,59.18103403904456,1.953243704539864,0.9296135088445494,B,2983,Incorrect
1,new_learn,12,307,A,69.30770387923747,85.68898618295668,3.465385193961873,1.3459994474296701,B,668,Incorrect
1,new_learn,12,308,A,47.66029724343142,71.08482146942514,2.383014862171571,1.1165977645504401,A,719,Correct
1,new_learn,12,309,B,80.11288151422008,54.22702968355586,4.005644075711004,0.8517961903992737,B,1273,Correct
1,new_learn,12,310,B,34.385269869953405,17.06798937974844,1.71926349349767,0.26810335023483156,B,1824,Incorrect
1,new_learn,12,311,A,39.85072983134272,49.44506185630136,1.992536491567136,0.7766812154202462,B,942,Incorrect
1,new_learn,12,312,B,85.09246117858606,55.707045077781075,4.254623058929303,0.8750442178477622,B,831,Incorrect
1,new_learn,12,313,A,42.48749474523085,58.1012981469218,2.124374737261542,0.9126530571119988,A,1385,Incorrect
1,new_learn,12,314,B,53.8523080274863,25.595888115178802,2.692615401374315,0.4020592703237601,B,1360,Correct
1,new_learn,12,315,A,23.08379046630495,45.84104810199895,1.1541895233152475,0.7200694997504812,A,985,Correct
1,new_learn,12,316,A,59.58002572031407,69.64322238255833,2.979001286015704,1.0939531790468275,B,726,Correct
1,new_learn,12,317,B,85.30037517427641,66.35487962463124,4.26501875871382,1.042300011792883,B,702,Incorrect
1,new_learn,12,318,B,49.78684113517533,42.47940552873676,2.4893420567587667,0.6672649416897053,B,4246,Incorrect
1,new_learn,12,319,A,52.84817427684837,60.67816393406262,2.642408713842418,0.9531303702428412,A,846,Correct
1,new_learn,12,320,A,54.78349431815883,84.60827775294557,2.7391747159079416,1.3290237191076926,A,1765,Incorrect
1,new_learn,12,321,A,52.88103624561911,75.48347629756591,2.6440518122809555,1.1856916730192617,B,1209,Incorrect
1,new_learn,12,322,A,44.283687203875076,71.74595856310485,2.214184360193754,1.1269828817330394,A,936,Incorrect
1,new_learn,12,323,B,53.17439470665081,32.913015835675225,2.6587197353325407,0.5169964437842091,B,1867,Incorrect
1,new_learn,12,324,B,75.02884891092924,52.36763542539087,3.751442445546462,0.8225888936913829,A,2991,Correct
1,new_learn,12,325,B,50.85441692063273,33.806524678682536,2.5427208460316364,0.5310316478697555,A,3670,Correct
1,new_learn,12,326,A,19.863975858574722,41.71069267801366,0.993198792928736,0.6551900284669464,A,734,Incorrect
1,new_learn,12,327,B,75.63896585136803,55.10917255147485,3.7819482925684014,0.8656528581656283,A,1359,Incorrect
1,new_learn,12,328,A,38.0054222699414,48.11446527024485,1.9002711134970698,0.7557802531220122,A,9394,Correct
1,new_learn,12,329,A,30.14462752456126,50.20061925539443,1.507231376228063,0.7885494832920272,A,1415,Correct
1,new_learn,12,330,B,47.19646262067547,40.0948382137248,2.3598231310337736,0.6298082458955457,A,3017,Incorrect
1,new_learn,12,331,B,79.47413842218012,51.32853032654859,3.9737069211090055,0.8062666689672298,B,612,Incorrect
1,new_learn,12,332,A,59.883636703464965,75.49459210952533,2.9941818351732485,1.1858662797852138,A,1486,Correct
1,new_learn,12,333,B,60.00374162672637,27.091690643907448,3.0001870813363185,0.4255552815011348,A,4013,Incorrect
1,new_learn,12,334,B,46.223882950554284,31.287509147863688,2.3111941475277145,0.49146304444026,B,967,Incorrect
1,new_learn,12,335,A,31.496753333204083,61.515134207382395,1.5748376666602042,0.9662774685525137,A,1503,Incorrect
1,new_learn,12,336,B,76.41602454150578,58.22515768925213,3.8208012270752887,0.9145986382533086,A,2158,Correct
1,new_learn,12,337,B,70.88360838432196,50.161205463563405,3.544180419216098,0.787930372897695,B,1812,Correct
1,new_learn,12,338,A,45.8358076549146,74.01951494374313,2.2917903827457304,1.1626958218477166,A,1253,Incorrect
1,new_learn,12,339,A,32.687715590651045,53.181780781859615,1.6343857795325523,0.8353774590455649,B,1333,Correct
1,new_learn,12,340,B,50.54639766561483,23.13544872237302,2.5273198832807418,0.3634107787185522,A,2990,Incorrect
1,new_learn,12,341,A,35.63762161809465,50.040011899546215,1.7818810809047323,0.786026668845801,A,4880,Correct
1,new_learn,12,342,A,17.230282276404413,46.6770292677393,0.8615141138202206,0.7332010611946278,A,1306,Correct
1,new_learn,12,343,A,48.58027026929954,64.45038545869602,2.429013513464977,1.0123842873903492,B,3302,Correct
1,new_learn,12,344,B,58.37795734934015,35.46724662532219,2.9188978674670074,0.5571182072058479,B,2791,Correct
1,new_learn,12,345,B,57.412055089504996,28.448309468113656,2.8706027544752497,0.44686500016037406,B,1559,Correct
1,new_learn,12,346,A,52.483227748774055,64.35048306074158,2.624161387438703,1.0108150241929008,A,1013,Incorrect
1,new_learn,12,347,A,24.75581163740663,46.41087904617237,1.2377905818703314,0.7290203832904979,A,1014,Incorrect
1,new_learn,12,348,A,33.48671522967741,41.9107628922407,1.6743357614838703,0.6583327240430354,B,774,Correct
1,new_learn,12,349,B,48.17943151490522,37.3732391027873,2.408971575745261,0.587057467030857,B,1220,Correct
1,new_learn,12,350,B,46.587365702799225,26.448969423806723,2.329368285139961,0.41545944018426134,A,961,Incorrect
1,new_learn,12,351,B,44.326199028153546,30.542755931966674,2.2163099514076774,0.47976448828126284,B,795,Incorrect
1,new_learn,12,352,B,43.46736914776156,28.439997339715724,2.173368457388078,0.4467344335528209,B,2491,Correct
1,new_learn,12,353,A,57.80133183055078,75.32356474111488,2.890066591527539,1.1831797881644084,A,1103,Correct
1,new_learn,12,354,A,35.708812452716906,48.129773267704444,1.7854406226358452,0.7560207105838135,A,923,Incorrect
1,new_learn,12,355,A,45.06150687891694,55.87803275103195,2.253075343945847,0.8777300859384591,B,644,Incorrect
1,new_learn,12,356,A,63.30702541512697,79.0486000810721,3.1653512707563487,1.241692506456268,A,1917,Incorrect
1,new_learn,12,357,B,48.012231159647776,19.353043756588484,2.400611557982389,0.30399690045150096,B,12630,Correct
1,new_learn,12,358,A,45.0143009944546,68.35973167546652,2.25071504972273,1.0737921541650755,B,4134,Incorrect
1,new_learn,12,359,A,33.611942857678926,58.76000167680872,1.6805971428839461,0.922999947963931,A,2638,Incorrect
1,new_learn,12,360,A,40.60522616387848,57.35425220387367,2.030261308193924,0.9009184868791287,A,8288,Incorrect
1,new_learn,12,361,B,86.4473207678317,64.16692842035786,4.322366038391585,1.007931754644092,B,1316,Incorrect
1,new_learn,12,362,A,28.61114977245644,38.16127799287932,1.430557488622822,0.5994359529701375,A,1401,Incorrect
1,new_learn,12,363,A,43.54448381707252,63.616205531231905,2.177224190853626,0.9992810197308826,A,5009,Incorrect
1,new_learn,12,364,A,51.344127707694426,65.1904317063565,2.5672063853847216,1.0240089066651836,B,2159,Incorrect
1,new_learn,12,365,B,52.76073950987358,40.63209288660901,2.6380369754936788,0.6382474225627448,B,8631,Correct
1,new_learn,12,366,B,59.87025950592079,32.699476849208835,2.99351297529604,0.5136421812285199,B,1777,Incorrect
1,new_learn,12,367,B,52.70054008001866,32.63874879224081,2.6350270040009334,0.5126882671403323,A,2516,Incorrect
1,new_learn,12,368,B,64.30794165651551,50.12585018493097,3.2153970828257754,0.7873750134796085,A,1695,Correct
1,new_learn,12,369,A,17.627102009232793,41.48686770436935,0.8813551004616397,0.651674194002492,B,1140,Correct
1,new_learn,12,370,A,32.06561096500678,63.11842514805829,1.6032805482503392,0.991461903756486,A,4274,Correct
1,new_learn,12,371,A,50.28900627804957,63.01106768030759,2.5144503139024783,0.9897755365965178,A,3461,Correct
1,new_learn,12,372,A,38.21681208921937,70.97932253733283,1.9108406044609683,1.1149405912003263,B,2853,Correct
1,new_learn,12,373,B,61.74718975028264,42.058865637841095,3.0873594875141315,0.6606591165308088,A,2428,Correct
1,new_learn,12,374,A,34.921681270252805,46.963879354595555,1.7460840635126402,0.7377068918223739,B,1300,Correct
1,new_learn,12,375,A,41.33806962409794,72.20432237346492,2.066903481204897,1.1341828436295325,A,2502,Correct
1,new_learn,12,376,A,15.113583416006712,42.40432058632755,0.7556791708003356,0.6660855101723653,B,1553,Incorrect
1,new_learn,12,377,B,38.575279936305236,19.18249502755417,1.928763996815262,0.30131792728043466,B,4339,Incorrect
1,new_learn,12,378,B,42.277678652872396,30.537319282412163,2.1138839326436196,0.47967908958975997,A,808,Incorrect
1,new_learn,12,379,A,13.223335538056016,40.42172445839387,0.6611667769028009,0.6349429630196052,A,1487,Correct
1,new_learn,12,380,B,87.65252424676379,68.66012163698852,4.38262621233819,1.0785106686467238,B,1411,Incorrect
1,new_learn,12,381,B,49.858726539791625,19.290595808518287,2.4929363269895815,0.3030159703770555,B,3660,Correct
1,new_learn,12,382,B,43.229335411139964,33.854032190427766,2.161466770556998,0.5317778941192012,A,2270,Incorrect
1,new_learn,12,383,B,74.2251676678726,60.745717842956395,3.7112583833936297,0.9541915045623511,A,2088,Incorrect
1,new_learn,12,384,A,32.562269229035266,43.015878354042705,1.6281134614517634,0.6756918371238638,A,2497,Incorrect
1,new_learn,12,385,B,80.93263805799504,59.47269204135906,4.046631902899752,0.9341948620317088,B,700,Incorrect
1,new_learn,12,386,A,35.31836847321317,47.93446059839617,1.7659184236606587,0.752952746348554,B,1069,Correct
1,new_learn,12,387,B,38.87230895708069,27.697984699786968,1.9436154478540346,0.4350789262604662,A,1526,Correct
1,new_learn,12,388,A,36.950337324227846,52.41581978727204,1.8475168662113923,0.8233457718779018,B,3039,Correct
1,new_learn,12,389,B,45.996322126937734,25.07525312383609,2.2998161063468867,0.3938811550037398,A,6828,Correct
1,new_learn,12,390,A,56.927077887923346,71.61334187065907,2.8463538943961675,1.1248997435993844,A,3680,Incorrect
1,new_learn,12,391,B,82.09981320426095,59.6516180061249,4.104990660213048,0.9370054245139331,A,3536,Incorrect
1,new_learn,12,392,B,58.18939045839562,42.9929332308777,2.909469522919781,0.6753314159720095,B,5507,Correct
1,new_learn,12,393,A,32.17449467430197,62.18436256062802,1.6087247337150985,0.9767896829431657,A,2275,Correct
1,new_learn,12,394,B,47.01570717512119,29.23384067093547,2.3507853587560597,0.45920409544012697,B,2062,Correct
1,new_learn,12,395,A,42.29706458614238,67.11752889932524,2.114853229307119,1.054279678586104,A,1562,Correct
1,new_learn,12,396,A,44.43368771092443,76.83819188874364,2.2216843855462214,1.2069714957639992,B,1074,Incorrect
1,new_learn,12,397,A,33.40147861643392,59.805730149187816,1.6700739308216959,0.9394262123963104,B,848,Incorrect
1,new_learn,12,398,A,24.292138078294478,35.432001975892554,1.2146069039147238,0.5565645855472154,A,1028,Correct
1,new_learn,12,399,B,53.91686963241746,37.53870727462248,2.695843481620873,0.5896566349960585,B,3041,Correct
1,new_learn,12,400,A,40.39230152395691,47.330545143209115,2.0196150761978457,0.743466464561529,A,1373,Correct
1,new_learn,12,401,B,40.972482423293286,12.8865961909334,2.0486241211646643,0.2024221796160729,B,1659,Correct
1,new_learn,12,402,B,69.57065664236117,55.068321035811564,3.478532832118059,0.8650111640581494,B,1172,Incorrect
1,new_learn,12,403,B,72.45560971274688,52.74397780964033,3.622780485637344,0.8285004660393456,A,1471,Correct
1,new_learn,12,404,B,61.0164650064026,36.186846592864924,3.05082325032013,0.5684216570636264,A,890,Incorrect
1,new_learn,12,405,B,76.90688609430364,44.77991347324421,3.8453443047151823,0.703401235979653,B,1170,Correct
1,new_learn,12,406,A,35.17474492176083,60.76795074675226,1.7587372460880417,0.9545407381985165,A,1602,Correct
1,new_learn,12,407,A,24.0818831182481,43.86764842885627,1.204094155912405,0.6890714101717734,A,2954,Correct
1,new_learn,12,408,A,29.921899603621576,60.97468896777693,1.4960949801810788,0.9577881745804531,A,827,Incorrect
1,new_learn,12,409,A,64.48918545167382,86.07011621420945,3.224459272583691,1.3519862239609008,A,1141,Incorrect
1,new_learn,12,410,B,76.75748829951426,51.66147764148715,3.837874414975713,0.8114965931604469,B,734,Correct
1,new_learn,12,411,B,39.67031515314275,31.18210263272918,1.9835157576571376,0.4898073227723247,A,1663,Correct
1,new_learn,12,412,A,15.586909244412858,34.471768653401256,0.7793454622206428,0.5414812757888615,A,1558,Correct
1,new_learn,12,413,B,74.59572898132127,42.575995067111045,3.7297864490660633,0.6687821666105567,B,714,Incorrect
1,new_learn,12,414,B,51.82027488651379,33.171873073620844,2.5910137443256893,0.5210625637695016,A,873,Incorrect
1,new_learn,12,415,B,71.9340947423227,46.273857446998946,3.596704737116135,0.7268680530437662,B,4028,Incorrect
1,new_learn,12,416,B,57.503087478140486,39.49922430307628,2.8751543739070247,0.6204523644651994,A,9467,Incorrect
1,new_learn,12,417,A,55.35376214805581,73.04007718814564,2.7676881074027904,1.147310849559549,A,5036,Incorrect
1,new_learn,12,418,B,70.46284657900013,41.82290292391911,3.523142328950007,0.6569526228879167,B,883,Correct
1,new_learn,12,419,A,20.16215790343297,37.90779036382359,1.0081078951716484,0.5954541786040507,A,750,Incorrect
1,new_learn,12,420,A,60.45778170432639,71.26336638053557,3.02288908521632,1.119402341455842,B,1346,Incorrect
1,new_learn,12,421,A,51.930350893135156,80.80443031182737,2.5965175446567574,1.2692730232257263,A,1387,Correct
1,new_learn,12,422,A,29.905975871393935,54.97995928258585,1.4952987935696966,0.8636231808841883,B,1498,Correct
1,new_learn,12,423,A,47.00359633253123,74.13868231281648,2.3501798166265617,1.1645676985038589,A,2027,Correct
1,new_learn,12,424,B,57.57500852046947,27.43417786987566,2.878750426023473,0.43093505826638534,A,1864,Incorrect
1,new_learn,12,425,B,35.143820194426056,22.091171180432827,1.7571910097213026,0.3470073054482116,B,2135,Correct
1,new_learn,12,426,A,39.78359162052509,59.74964982047584,1.9891795810262545,0.9385453046528481,B,2439,Incorrect
1,new_learn,12,427,B,40.35531908767021,30.788146478166666,2.0177659543835107,0.4836190739672744,B,1572,Incorrect
1,new_learn,12,428,B,66.5055669603541,36.69817491991771,3.325278348017705,0.5764535836428334,B,1592,Incorrect
1,new_learn,12,429,B,60.334312607173786,30.976914919019883,3.0167156303586893,0.48658424170234466,A,947,Correct
1,new_learn,12,430,A,22.021617107262628,39.65717238484978,1.1010808553631315,0.6229334071319405,B,1045,Incorrect
1,new_learn,12,431,A,35.49870388969729,63.79417885954968,1.7749351944848644,1.002076618234773,A,1071,Correct
1,new_learn,12,432,A,64.8294425231293,86.05442402567047,3.2414721261564647,1.3517397316397368,B,1669,Incorrect
1,new_learn,12,433,A,59.801643390025475,77.59634309033811,2.9900821695012736,1.2188805069901965,A,1393,Incorrect
1,new_learn,12,434,A,69.73402434993159,86.24811931600155,3.4867012174965795,1.354782290145432,B,2491,Incorrect
1,new_learn,12,435,A,46.59121428676312,66.10359070268622,2.329560714338156,1.038352774637328,B,1772,Incorrect
1,new_learn,12,436,A,52.69824907424905,61.24517358699731,2.634912453712452,0.962036937043712,A,829,Incorrect
1,new_learn,12,437,A,50.78006502815764,77.64813987019738,2.539003251407882,1.2196941289056238,B,1283,Incorrect
1,new_learn,12,438,B,71.47595070537612,55.705438095974316,3.573797535268806,0.8750189754365696,A,7866,Incorrect
1,new_learn,12,439,A,42.56920195933705,64.7284149648119,2.1284600979668524,1.0167515646598235,B,1955,Incorrect
1,new_learn,12,440,B,77.70910114691061,65.42162942057924,3.8854550573455304,1.027640551867828,B,1050,Correct
1,new_learn,12,441,A,55.01684517914099,70.83484667350868,2.7508422589570496,1.1126711696382714,B,1743,Correct
1,new_learn,12,442,A,51.519453668917805,78.36145969570806,2.57597268344589,1.2308989305230456,B,1666,Correct
1,new_learn,12,443,A,63.5355614891322,83.36644081336041,3.1767780744566103,1.3095169900759067,B,1042,Incorrect
1,new_learn,12,444,B,42.46700428553491,30.940434091979903,2.123350214276746,0.4860112022112162,A,1123,Correct
1,new_learn,12,445,B,61.6317537413413,53.348225690034376,3.081587687067065,0.8379919695493113,B,896,Incorrect
1,new_learn,12,446,B,85.7280597493406,57.950534578819074,4.286402987467031,0.9102848685220964,B,895,Incorrect
1,new_learn,12,447,A,44.191442879012,72.89885753777791,2.2095721439506004,1.14509257647886,A,2672,Incorrect
1,new_learn,12,448,A,57.38313238753757,73.32702139028952,2.8691566193768785,1.1518181585467757,A,2526,Incorrect
1,new_learn,12,449,B,59.8162356593299,39.22164231829487,2.990811782966495,0.6160921168444086,B,980,Incorrect
1,new_learn,12,450,B,74.47579411848248,52.89142943403397,3.7237897059241245,0.8308166307391203,B,656,Correct
1,new_learn,12,451,A,23.89697919264247,54.536068988707534,1.1948489596321235,0.8566505684529487,A,955,Correct
1,new_learn,12,452,A,35.13153742567491,66.33018390084389,1.7565768712837453,1.0419120922707557,A,1034,Incorrect
1,new_learn,12,453,A,46.22921685119835,64.41690465225612,2.3114608425599177,1.0118583721126098,B,1151,Incorrect
1,new_learn,12,454,A,58.45389284401962,73.6046821042842,2.9226946422009807,1.1561796428431566,B,6536,Incorrect
1,new_learn,12,455,B,58.87534679060204,29.831561935618566,2.943767339530102,0.46859307911024106,A,1975,Correct
1,new_learn,12,456,A,35.4963613326868,46.306874517913265,1.77481806663434,0.7273866839809036,A,1966,Incorrect
1,new_learn,12,457,A,27.42253421455868,46.87951375280515,1.3711267107279341,0.7363816800483717,A,1184,Correct
1,new_learn,12,458,B,63.64674425460911,44.01097562965416,3.1823372127304554,0.6913227885772047,B,1594,Correct
1,new_learn,12,459,B,82.26177284356972,66.00929865913226,4.113088642178486,1.0368716386807224,B,943,Incorrect
1,new_learn,12,460,B,57.11482690971417,38.038573994996895,2.8557413454857086,0.5975085230785699,A,649,Incorrect
1,new_learn,12,461,B,46.90150235697239,28.933383502552257,2.3450751178486193,0.45448452527557137,A,1254,Incorrect
1,new_learn,12,462,B,61.7147860512496,37.47457283914287,3.0857393025624797,0.5886492136393342,A,709,Incorrect
1,new_learn,12,463,A,34.81888933752499,65.54670542387952,1.7409444668762495,1.0296052411333707,A,753,Incorrect
1,new_learn,12,464,A,40.69125822361939,65.76633000701857,2.0345629111809695,1.0330550960180576,B,436,Correct
1,new_learn,12,465,A,66.49733900712965,80.93608790223692,3.3248669503564825,1.2713410958198261,B,498,Correct
1,new_learn,12,466,B,59.15792851665114,37.243640353000416,2.957896425832557,0.5850217346296324,B,720,Incorrect
1,new_learn,12,467,A,35.94066124695276,63.8192335023083,1.7970330623476378,1.0024701756429168,B,1669,Correct
1,new_learn,12,468,B,35.966333203748746,19.470799544637853,1.7983166601874374,0.3058466040447688,A,642,Correct
1,new_learn,12,469,B,73.03055861340913,44.65306558888317,3.6515279306704564,0.7014087140714927,B,880,Correct
1,new_learn,12,470,B,60.34738102249285,46.31349225570768,3.0173690511246423,0.7274906351630951,A,794,Correct
1,new_learn,12,471,A,49.987975224039346,59.123994973123715,2.4993987612019675,0.9287175412922266,B,457,Correct
1,new_learn,12,472,A,24.417505163513614,39.85118626424608,1.2208752581756805,0.6259809700229698,B,631,Incorrect
1,new_learn,12,473,B,68.80488843090424,57.17602959335444,3.4402444215452124,0.8981189726595745,A,283,Incorrect
1,new_learn,12,474,B,81.60826910255125,66.06509989754997,4.080413455127562,1.0377481624840939,A,261,Incorrect
1,new_learn,12,475,B,62.278588914452946,53.96488736143998,3.1139294457226474,0.8476784684325025,B,406,Incorrect
1,new_learn,12,476,B,38.41028048135773,29.491771239945592,1.9205140240678866,0.46325565934381907,B,5500,Correct
1,new_learn,12,477,B,43.345571325703915,25.480898119527414,2.167278566285196,0.4002530116958865,B,2820,Correct
1,new_learn,12,478,B,81.27450869074072,53.1093280937892,4.063725434537036,0.834239374882691,B,2550,Incorrect
1,new_learn,12,479,A,52.02113622292994,68.16293249042631,2.6010568111464973,1.0707008397953017,A,963,Incorrect
1,new_learn,12,480,A,41.216297711760426,49.09930922859349,2.0608148855880213,0.7712501458444142,B,1595,Correct
1,new_learn,12,481,A,47.94892971965962,65.30430600862563,2.397446485982981,1.0257976400223905,B,680,Incorrect
1,new_learn,12,482,B,72.6891232548411,44.656089519862675,3.634456162742055,0.7014562138682436,A,646,Incorrect
1,new_learn,12,483,B,52.689794312829065,27.3575394028379,2.634489715641453,0.4297312240412442,B,2299,Incorrect
1,new_learn,12,484,A,36.508932046234314,49.54404104485589,1.8254466023117157,0.7782359768783522,A,1367,Incorrect
1,new_learn,12,485,B,69.67423400998399,49.00210991712122,3.4837117004991995,0.7697233426301378,A,628,Correct
1,new_learn,12,486,B,37.7537577777916,12.380275089944625,1.88768788888958,0.19446890635995379,A,909,Incorrect
1,new_learn,12,487,B,57.94104322266513,40.47873134368718,2.8970521611332565,0.6358384250798128,A,526,Incorrect
1,new_learn,12,488,A,40.00452770498851,57.413338097266546,2.0002263852494253,0.9018466059221979,B,631,Incorrect
1,new_learn,12,489,A,60.56978428844593,84.58341415192643,3.0284892144222963,1.328633162576175,A,1134,Correct
1,new_learn,12,490,A,31.84273003248578,58.5078398809941,1.592136501624289,0.919038999737695,A,2147,Incorrect
1,new_learn,12,491,A,42.66520748486571,70.73230992656038,2.1332603742432856,1.1110605261835924,A,2471,Incorrect
1,new_learn,12,492,A,24.976715513816394,52.581877485382584,1.2488357756908197,0.8259542001001824,A,1037,Correct
1,new_learn,12,493,A,56.290779856963255,85.072619650312,2.8145389928481626,1.3363175845752941,A,1284,Correct
1,new_learn,12,494,A,56.99956854764959,84.98914769293691,2.8499784273824793,1.3350064101349426,B,2133,Incorrect
1,new_learn,12,495,B,60.20711771829291,48.73761855457056,3.0103558859146453,0.7655687220225024,B,1219,Correct
1,new_learn,12,496,B,79.20600145707478,61.14429061601217,3.9603000728537388,0.9604522710411159,B,1424,Correct
1,new_learn,12,497,A,32.082802728401404,43.317013964847646,1.6041401364200703,0.6804220642370592,A,756,Correct
1,new_learn,12,498,A,21.338234402093697,41.349497793736845,1.0669117201046847,0.6495163924921551,A,1990,Correct
1,new_learn,12,499,A,34.00279016229668,44.6432643014916,1.7001395081148336,0.7012547558091673,B,1134,Incorrect
1,new_learn,12,500,B,60.76991018351596,51.78585609181436,3.0384955091757977,0.813450325289511,B,764,Correct
1,new_learn,12,501,B,71.8461543572333,57.775477357070486,3.5923077178616656,0.9075350761130804,B,655,Correct
1,new_learn,12,502,B,47.55427420422571,23.502993194009633,2.3777137102112857,0.3691841537783579,B,1548,Correct
1,new_learn,12,503,B,49.32401862712719,24.264717657814685,2.4662009313563598,0.3811492936761057,B,1067,Incorrect
1,new_learn,12,504,B,41.335920947064004,17.006592330775447,2.0667960473532,0.26713892764480335,A,931,Correct
1,new_learn,12,505,B,82.2102820681798,59.83139163045912,4.11051410340899,0.939829302001521,B,1956,Incorrect
1,new_learn,12,506,A,34.09110748694723,65.97021581697022,1.7045553743473616,1.0362577268316342,A,1002,Correct
1,new_learn,12,507,B,75.56926316222435,63.37829375975468,3.778463158111217,0.9955439103635058,A,1323,Incorrect
1,new_learn,12,508,B,73.46658374416496,41.439944362897535,3.673329187208248,0.6509371238782433,B,1359,Correct
1,new_learn,12,509,B,69.0921771358185,54.26031856014016,3.4546088567909248,0.852319090849891,B,811,Correct
1,new_learn,12,510,A,27.913106463436442,44.728144432819235,1.395655323171822,0.7025880497942407,A,700,Correct
1,new_learn,12,511,A,41.528210153562426,62.06450904862273,2.0764105076781214,0.974907028379052,B,812,Incorrect
1,new_learn,12,512,A,58.27457952458326,70.68056077368112,2.913728976229163,1.1102476523910176,B,1548,Correct
1,new_learn,12,513,A,46.243682743519614,71.76294132005376,2.312184137175981,1.1272496462553816,A,908,Correct
1,new_learn,12,514,B,31.920879078679743,17.594619648418057,1.596043953933987,0.276375639150884,B,1503,Incorrect
1,new_learn,12,515,A,26.674111703540405,50.083439293995255,1.3337055851770203,0.7867088247626293,A,1528,Incorrect
1,new_learn,12,516,B,52.14108849568903,24.29886106870868,2.6070544247844514,0.3816856171202711,A,685,Correct
1,new_learn,12,517,B,87.26047755301266,68.72070536042352,4.363023877650633,1.0794623155490763,B,1204,Incorrect
1,new_learn,12,518,A,62.853067298674134,73.67681777647879,3.142653364933707,1.1573127473322982,A,509,Correct
1,new_learn,12,519,A,31.780383942801464,40.797235007289686,1.5890191971400731,0.640841468928388,B,1466,Incorrect
1,new_learn,12,520,A,66.73936799574118,86.13226224162916,3.336968399787059,1.3529624114768586,A,857,Incorrect
1,new_learn,12,521,B,67.10898128595034,56.575583402125545,3.3554490642975168,0.8886871859433713,B,850,Correct
1,new_learn,12,522,B,47.85345269549054,21.04383112821483,2.392672634774527,0.3305557263789196,B,1265,Incorrect
1,new_learn,12,523,B,41.84539053118999,20.04683799593566,2.0922695265594995,0.31489499487868094,A,881,Incorrect
1,new_learn,12,524,B,86.21367517689738,68.5081218960663,4.310683758844869,1.0761230622995797,A,1558,Incorrect
1,new_learn,12,525,A,60.37188479266719,83.427486097318,3.018594239633359,1.310475887153994,A,1287,Correct
1,new_learn,12,526,B,59.51228929358279,40.621415158619875,2.9756144646791394,0.6380796972037063,B,612,Incorrect
1,new_learn,12,527,A,29.733777160900637,54.5549620484485,1.486688858045032,0.8569473399413788,A,600,Correct
1,new_learn,12,528,A,19.972804962091757,37.29620905523599,0.9986402481045878,0.5858474818733926,A,873,Incorrect
1,new_learn,12,529,A,21.350528483235546,36.55247954745998,1.0675264241617775,0.5741650060839573,A,1004,Correct
1,new_learn,12,530,A,48.36274659141899,58.44308106498089,2.4181373295709494,0.9180217706344834,B,2781,Incorrect
1,new_learn,12,531,A,33.64555801634992,59.364115704166814,1.6822779008174962,0.9324893489153246,A,610,Incorrect
1,new_learn,12,532,B,50.90960611160654,24.147578511224367,2.5454803055803272,0.3793092762642261,B,528,Incorrect
1,new_learn,12,533,A,31.956672577473185,51.3851455638136,1.5978336288736592,0.8071559790345949,A,1798,Correct
1,new_learn,12,534,B,53.41543035902648,37.124643887274495,2.6707715179513243,0.5831525425169938,B,1881,Correct
1,new_learn,12,535,B,65.12134434957366,42.48537729711793,3.256067217478683,0.6673587460080813,A,1671,Correct
1,new_learn,12,536,A,47.64453597403467,78.10218900853235,2.3822267987017334,1.2268263160924335,A,1011,Incorrect
1,new_learn,12,537,B,61.06818148121707,52.330671258038954,3.0534090740608533,0.8220082619083886,B,736,Correct
1,new_learn,12,538,A,67.32789069247715,85.62451458876679,3.3663945346238573,1.344986729996309,A,989,Incorrect
1,new_learn,12,539,B,31.227456252532132,14.016128302900643,1.5613728126266064,0.2201648285408232,A,740,Incorrect
1,new_learn,12,540,A,24.967758520268028,53.48396048152455,1.2483879260134014,0.8401240866682216,B,1636,Correct
1,new_learn,12,541,B,48.56064515301568,37.65015116078324,2.428032257650784,0.5914071914663093,A,885,Incorrect
1,new_learn,12,542,A,24.61550584805625,45.76893908556864,1.2307752924028126,0.718936813969106,B,710,Incorrect
1,new_learn,12,543,A,49.95788160969327,66.49401806224468,2.4978940804846634,1.0444855932600743,A,1047,Incorrect
1,new_learn,12,544,B,65.64106934143271,48.72257253644537,3.282053467071636,0.7653323797224628,A,8135,Correct
1,new_learn,12,545,B,75.12101526586383,52.091695356606174,3.7560507632931914,0.8182544372267575,A,1961,Correct
1,new_learn,12,546,A,54.35799144648456,75.3274036570851,2.717899572324228,1.1832400897154574,B,2350,Incorrect
1,new_learn,12,547,A,14.589846653933524,42.994191910821854,0.7294923326966761,0.6753511872703383,B,1067,Incorrect
1,new_learn,12,548,B,55.73088866975937,30.467851491203625,2.7865444334879688,0.4785878920771507,A,2152,Incorrect
1,new_learn,12,549,A,20.473043113323307,48.03618501568579,1.0236521556661655,0.7545506297587928,A,1023,Incorrect
1,new_learn,12,550,B,70.48238942700192,48.93679969579796,3.524119471350096,0.7686974520725705,A,2492,Correct
1,new_learn,12,551,B,57.40075597187859,26.58709354589883,2.870037798593929,0.41762908882050187,B,2597,Correct
1,new_learn,12,552,B,65.54215489364638,51.92781365960149,3.2771077446823194,0.8156801895499188,A,1716,Correct
1,new_learn,12,553,A,29.95635478595422,58.00403340923279,1.4978177392977108,0.9111252261851134,B,1829,Incorrect
1,new_learn,12,554,B,55.41961572217807,37.94666257377589,2.7709807861089035,0.5960647818501253,B,2644,Correct
1,new_learn,12,555,A,38.05192581048009,56.908752989804526,1.9025962905240048,0.8939206015886302,A,1747,Correct
1,new_learn,12,556,A,40.355513449698385,50.94575111256719,2.017775672484919,0.8002539871342755,B,1245,Correct
1,new_learn,12,557,A,39.352894340696984,47.95812857507818,1.9676447170348492,0.7533245220569018,A,879,Incorrect
1,new_learn,12,558,B,73.81369311053014,60.53876750028843,3.690684655526507,0.9509407361814332,B,905,Incorrect
1,new_learn,12,559,B,40.95786535056778,27.398167694318374,2.047893267528389,0.430369411751459,B,729,Incorrect
1,new_learn,12,560,B,62.5347369798183,43.747995134226926,3.1267368489909146,0.6871919006148468,A,571,Correct
1,new_learn,12,561,A,42.51771544206155,52.59669167992166,2.1258857721030777,0.8261869009238465,A,859,Correct
1,new_learn,12,562,B,65.38359417475785,48.87414349959549,3.269179708737892,0.7677132508441127,A,814,Incorrect
1,new_learn,12,563,A,64.78469707281711,81.64826604083184,3.2392348536408555,1.2825279638611113,A,1708,Correct
1,new_learn,12,564,B,43.283544318295185,25.822969588624836,2.1641772159147594,0.4056262577674822,B,1181,Incorrect
1,new_learn,12,565,A,25.446884142975765,37.12887936018653,1.2723442071487883,0.5832190731699185,A,1353,Incorrect
1,new_learn,12,566,A,45.38537635018034,63.79251908454387,2.2692688175090168,1.0020505465499485,A,1041,Incorrect
1,new_learn,12,567,B,78.03884882905804,60.54727895642978,3.9019424414529023,0.9510744338218583,B,922,Correct
1,new_learn,12,568,A,38.246173932723615,50.34490038496218,1.9123086966361809,0.7908158459755356,A,813,Incorrect
1,new_learn,12,569,B,78.7639798742155,57.808454537931006,3.9381989937107744,0.9080530804587178,B,869,Correct
1,new_learn,12,570,A,19.951028806308702,35.29740669209542,0.9975514403154351,0.5544503677732908,A,791,Incorrect
1,new_learn,12,571,B,50.97647686641349,20.566516618249672,2.5488238433206747,0.32305808758912785,B,709,Incorrect
1,new_learn,12,572,A,24.2330880679797,55.328899027037004,1.2116544033989851,0.8691043135727544,B,1094,Incorrect
1,new_learn,12,573,A,20.804500877239224,45.62664716201666,1.0402250438619611,0.7167016976606256,A,490,Incorrect
1,new_learn,12,574,A,68.67132797704421,83.77412477379794,3.4335663988522107,1.3159208747513915,B,730,Correct
1,new_learn,12,575,A,18.133341463835784,42.86519970031273,0.9066670731917893,0.6733249823658094,A,952,Incorrect
1,new_learn,12,576,A,36.098904951510235,68.91009242605449,1.8049452475755117,1.0824372006194323,B,745,Correct
1,new_learn,12,577,A,24.601150386460873,43.659375620621155,1.2300575193230436,0.6857998685503036,B,1341,Correct
1,new_learn,12,578,A,55.02446260340801,68.41050997280801,2.7512231301704,1.0745897777945248,A,1540,Correct
1,new_learn,12,579,B,55.294664536479864,37.786055129344454,2.7647332268239935,0.5935419660124372,B,1641,Incorrect
1,new_learn,12,580,B,71.07221618566747,50.753354057868584,3.5536108092833736,0.7972318212662084,A,541,Incorrect
1,new_learn,12,581,A,47.32096589277366,72.99838985335592,2.3660482946386825,1.1466560264359333,B,1074,Correct
1,new_learn,12,582,B,85.684341899707,67.88061210214545,4.284217094985349,1.0662661615063929,B,1250,Correct
1,new_learn,12,583,B,83.21797810928659,56.47293112995306,4.16089890546433,0.8870747278227143,B,1145,Correct
1,new_learn,12,584,A,34.59527970388134,49.541604486713474,1.729763985194067,0.7781977035125509,A,1096,Correct
1,new_learn,12,585,B,72.36784067346018,58.74706654657228,3.6183920336730093,0.9227967634133108,B,733,Incorrect
1,new_learn,12,586,A,34.7427749485855,47.105865717540986,1.7371387474292748,0.7399372083960702,A,1054,Incorrect
1,new_learn,12,587,B,72.42511327009744,47.730314129952795,3.621255663504872,0.749746021120964,B,949,Correct
1,new_learn,12,588,B,54.76702150147517,25.63200860568307,2.738351075073758,0.40262664966182143,A,2061,Incorrect
1,new_learn,12,589,B,43.92942604361541,23.236511668363484,2.1964713021807705,0.3649982717619211,B,1047,Correct
1,new_learn,12,590,B,65.47266996493444,47.30699557446329,3.273633498246722,0.7430965488006936,A,2487,Incorrect
1,new_learn,12,591,B,44.655735758266275,19.810041245175437,2.2327867879133136,0.3111754002157698,A,1555,Incorrect
1,new_learn,12,592,A,41.240858734417586,70.93177662233346,2.0620429367208795,1.1141937417139751,B,609,Incorrect
1,new_learn,12,593,B,64.577529220291,37.26265860026802,3.22887646101455,0.5853204725591327,B,1102,Incorrect
1,new_learn,12,594,B,48.135539551083504,30.41619254952469,2.406776977554175,0.4777764353187968,A,1571,Correct
1,new_learn,12,595,B,39.17431716455501,29.999088425442643,1.9587158582277509,0.471224579058806,A,1325,Incorrect
1,new_learn,12,596,B,72.57446485310295,43.833956147035515,3.6287232426551475,0.6885421730465195,B,1049,Correct
1,new_learn,12,597,A,61.23944294240994,75.80503935913376,3.061972147120497,1.1907427737786986,A,1214,Correct
1,new_learn,12,598,A,34.164737760813274,51.02190321839261,1.7082368880406635,0.8014501816153583,B,1381,Incorrect
1,new_learn,12,599,B,42.29002522198836,27.152896618108862,2.114501261099418,0.4265167026956697,A,1233,Correct
1,new_learn,12,600,A,54.5549620484485,70.26622283909936,2.727748102422425,1.1037392473340892,B,1611,Incorrect
1,new_learn,12,601,B,23.485109022239072,54.18046690885916,1.1742554511119536,0.8510647840446841,A,2441,Incorrect
1,new_learn,12,602,B,29.56723609417459,53.70171014071163,1.4783618047087292,0.8435444903163408,B,3047,Correct
1,new_learn,12,603,B,47.9264507186291,37.77488272826269,2.396322535931455,0.5933664703466301,A,1981,Incorrect
1,new_learn,12,604,A,65.30430600862563,52.05107028034038,3.2652153004312816,0.8176163000210168,B,803,Incorrect
1,new_learn,12,605,B,25.113456413186913,54.38522323074446,1.2556728206593457,0.8542810888277387,B,1808,Correct
1,new_learn,12,606,B,44.24036254664393,48.21271375582229,2.2120181273321964,0.7573235367245943,A,826,Incorrect
1,new_learn,12,607,B,50.20846465042311,28.557503369085396,2.5104232325211555,0.4485802139459223,B,1599,Correct
1,new_learn,12,608,B,52.6141941002042,36.1277695181926,2.63070970501021,0.5674936765446956,B,689,Correct
1,new_learn,12,609,A,41.809365574966776,81.03329402870621,2.0904682787483386,1.2728680060838256,A,1267,Correct
1,new_learn,12,610,A,63.133357427513594,66.13878425552234,3.1566678713756797,1.0389055936725462,B,4382,Incorrect
1,new_learn,12,611,B,58.62595359738886,27.859376020132714,2.931297679869443,0.43761405519222296,B,1079,Correct
1,new_learn,12,612,B,48.63144429761549,26.895629276827506,2.431572214880774,0.42247555674877935,B,1136,Correct
1,new_learn,12,613,B,43.09771058660225,47.13081472668188,2.1548855293301123,0.7403291065152271,B,1024,Correct
1,new_learn,12,614,A,47.105865717540986,65.25722505141451,2.3552932858770492,1.0250580940758982,A,825,Correct
1,new_learn,12,615,B,26.846274391967356,45.2670256663954,1.3423137195983679,0.711052776417042,A,2521,Incorrect
1,new_learn,12,616,B,19.353043756588484,51.987768840352224,0.9676521878294241,0.8166219633268746,B,878,Correct
1,new_learn,12,617,B,17.047004768334688,66.78317422973969,0.8523502384167344,1.049027647717787,B,1193,Correct
1,new_learn,12,618,B,37.243640353000416,40.84207148334886,1.8621820176500208,0.6415457586473898,A,817,Incorrect
1,new_learn,12,619,B,35.830068911883,34.776538278195645,1.7915034455941496,0.5462685858603185,B,3662,Correct
1,new_learn,12,620,B,49.05961574566072,42.742969533060894,2.4529807872830363,0.6714049953883822,B,726,Correct
1,new_learn,12,621,B,18.296980587437105,56.04030401414044,0.9148490293718552,0.8802790369788108,A,823,Incorrect
1,new_learn,12,622,B,40.47873134368718,42.05895677733487,2.023936567184359,0.6606605481466293,B,839,Correct
1,new_learn,12,623,B,17.06798937974844,65.6147301300466,0.853399468987422,1.0306737707191562,B,1477,Correct
1,new_learn,12,624,B,52.67810866156833,24.25245597941209,2.6339054330784166,0.38095668768215435,A,1773,Incorrect
1,new_learn,12,625,B,23.502993194009633,52.44572579577429,1.1751496597004816,0.8238155343609462,B,1677,Correct
1,new_learn,12,626,B,46.31349225570768,39.65261897750715,2.315674612785384,0.6228618823766584,A,2993,Incorrect
1,new_learn,12,627,A,73.6854755162332,44.37583646428942,3.6842737758116595,0.6970540091655686,B,1458,Incorrect
1,new_learn,12,628,B,52.4997261091072,38.572770466152335,2.62498630545536,0.6058996616253476,A,1065,Incorrect
1,new_learn,12,629,B,23.438874104837897,62.550712597314956,1.1719437052418948,0.9825442958626559,B,678,Correct
1,new_learn,12,630,A,73.3942357631686,51.74250515036006,3.6697117881584296,0.812769370293516,B,769,Incorrect
1,new_learn,12,631,A,86.13226224162916,33.260632004258824,4.306613112081458,0.5224567857916653,A,698,Correct
1,new_learn,12,632,A,35.432001975892554,75.70786192170553,1.7716000987946277,1.1892163141611025,B,767,Incorrect
1,new_learn,12,633,A,72.99838985335592,52.67903410722634,3.6499194926677956,0.8274803327473421,A,995,Correct
1,new_learn,12,634,B,17.60565760843113,54.26128892678016,0.8802828804215566,0.8523343333334288,B,1005,Correct
1,new_learn,12,635,B,47.730314129952795,27.57488672990256,2.3865157064976397,0.4331453078711628,A,1838,Incorrect
1,new_learn,12,636,A,83.74341487430966,40.725623978966254,4.187170743715483,0.6397166055259035,A,1292,Correct
1,new_learn,12,637,B,50.9468843523702,36.599565430576206,2.54734421761851,0.5749046294063856,B,948,Correct
1,new_learn,12,638,A,87.46519679159577,40.426829600430494,4.373259839579789,0.6350231544031941,A,997,Correct
1,new_learn,12,639,B,34.09671065346222,49.01999499004209,1.704835532673111,0.7700042806986234,B,1109,Correct
1,new_learn,12,640,B,30.467851491203625,44.26911133024063,1.523392574560181,0.6953775746801631,B,1537,Correct
1,new_learn,12,641,B,28.710869783832663,56.83075432649445,1.4355434891916332,0.8926954014504065,B,1510,Correct
1,new_learn,12,642,A,35.29740669209542,80.0489711936913,1.7648703346047712,1.2574062991476078,B,1007,Incorrect
1,new_learn,12,643,A,73.69280254198891,46.28576807380878,3.6846401270994456,0.7270551447321933,A,571,Correct
1,new_learn,12,644,B,41.182465658720126,36.29179750558959,2.059123282936006,0.5700702221456432,B,869,Correct
1,new_learn,12,645,B,51.941789221783736,22.32763768137147,2.597089461089187,0.35072171255905626,A,1359,Incorrect
1,new_learn,12,646,B,54.22702968355586,19.887118485779922,2.711351484177793,0.31238612667997984,B,892,Correct
1,new_learn,12,647,B,49.26057579566086,33.11096671624489,2.463028789783043,0.5201058489450555,A,651,Incorrect
1,new_learn,12,648,A,75.48347629756591,47.11896375438089,3.7741738148782957,0.7401429518776337,B,381,Incorrect
1,new_learn,12,649,A,63.11842514805829,67.93438903499322,3.1559212574029147,1.0671108875922284,A,924,Correct
1,new_learn,12,650,A,75.49459210952533,40.116363296535035,3.7747296054762667,0.6301463611056684,A,1062,Correct
1,new_learn,12,651,A,64.13971788643966,67.3878326885681,3.2069858943219827,1.0585256005787183,A,773,Correct
1,new_learn,12,652,A,60.067055172243094,62.8510127541983,3.0033527586121544,0.9872613996963389,A,437,Correct
1,new_learn,12,653,B,45.25708209873435,38.2581319050977,2.2628541049367175,0.600957330665621,B,733,Correct
1,new_learn,12,654,A,64.45038545869602,51.41972973070046,3.222519272934801,0.8076992258577061,A,658,Correct
1,new_learn,12,655,B,12.886596190933403,59.027517576706714,0.6443298095466702,0.9272020778931208,B,910,Correct
1,new_learn,12,656,B,51.16789186666199,34.39690345718648,2.5583945933330994,0.5403052960366721,A,483,Incorrect
1,new_learn,12,657,B,14.50955192723039,62.95831171741793,0.7254775963615195,0.9889468478692817,B,693,Correct
1,new_learn,12,658,B,60.745717842956395,25.774832332127403,3.03728589214782,0.40487011951060065,A,1043,Incorrect
1,new_learn,12,659,A,74.48923704572108,55.99017430348662,3.7244618522860544,0.879491601325228,B,409,Incorrect
1,new_learn,12,660,A,37.416779096738686,73.42972880951191,1.8708389548369342,1.153431482915267,A,1852,Correct
1,new_learn,12,661,A,71.74595856310485,55.716312796124924,3.587297928155243,0.8751897948270851,A,1163,Correct
1,new_learn,12,662,A,42.40432058632755,84.88641658399328,2.1202160293163774,1.3333927136491803,A,591,Correct
1,new_learn,12,663,A,55.2952184960116,54.40941651885401,2.76476092480058,0.8546611161086944,A,1317,Correct
1,new_learn,12,664,A,61.78162621347613,66.3667902106549,3.0890813106738064,1.0424871028406422,A,417,Correct
1,new_learn,12,665,B,20.072261894366065,58.135088880788636,1.0036130947183033,0.9131838407183764,B,595,Correct
1,new_learn,12,666,A,72.73897246771092,53.592909048309934,3.636948623385546,0.8418354467533822,A,600,Correct
1,new_learn,12,667,A,80.80443031182737,48.069649106864844,4.0402215155913686,0.7550762824738289,B,815,Incorrect
1,new_learn,12,668,B,48.262206841234885,32.72723298309978,2.4131103420617444,0.5140781735601393,B,1389,Correct
1,new_learn,12,669,A,47.37628381291225,75.77268056883506,2.3688141906456126,1.1902344830892915,B,1334,Incorrect
1,new_learn,12,670,B,30.567590140524356,37.72810716306217,1.5283795070262178,0.5926317214866228,B,608,Correct
1,new_learn,12,671,A,37.59703534382157,83.37315547745695,1.8798517671910784,1.309622463772892,A,970,Correct
1,new_learn,12,672,A,51.3851455638136,68.04332742252681,2.56925727819068,1.068822087782076,A,756,Correct
1,new_learn,12,673,A,64.60690374826915,67.09904332221788,3.230345187413457,1.0539893078199147,A,642,Correct
1,new_learn,12,674,B,42.351570410634245,41.04068019705704,2.1175785205317124,0.6446654970270126,B,761,Correct
1,new_learn,12,675,A,46.41087904617237,75.24418836259338,2.3205439523086184,1.1819329469262496,A,556,Correct
1,new_learn,12,676,A,79.98308193131052,50.94897879853833,3.9991540965655257,0.8003046875069507,A,494,Correct
1,new_learn,12,677,B,28.104323517588767,46.564377688632185,1.4052161758794384,0.7314315343279367,B,374,Correct
1,new_learn,12,678,A,43.32076351525428,67.8227662923229,2.1660381757627136,1.0653575216504951,A,557,Correct
1,new_learn,12,679,A,51.17956262112786,58.10016013521647,2.5589781310563926,0.912635181265933,A,421,Correct
1,new_learn,12,680,B,51.06213187216111,32.08145041865072,2.5531065936080553,0.5039342447586915,A,505,Incorrect
1,new_learn,12,681,B,32.76457377997033,42.27578189308381,1.6382286889985165,0.6640664291003825,B,650,Correct
1,new_learn,12,682,A,42.98254439539471,84.23074832404973,2.1491272197697358,1.323093500706027,A,563,Correct
1,new_learn,12,683,B,37.86311982097257,46.64379323504512,1.8931559910486286,0.7326789908138952,A,637,Incorrect
1,new_learn,12,684,B,38.038573994996895,42.88517309028583,1.9019286997498448,0.6736387236418433,B,764,Correct
1,new_learn,12,685,B,52.091695356606174,24.878984734136168,2.6045847678303087,0.39079817834767394,A,505,Incorrect
1,new_learn,12,686,A,79.0486000810721,36.69297458487303,3.9524300040536047,0.5763718969709704,A,590,Correct
1,new_learn,12,687,A,43.317013964847646,67.9171972715986,2.1658506982423824,1.0668408400043146,B,577,Incorrect
1,new_learn,12,688,A,60.8808331908717,63.168222555997744,3.044041659543585,0.9922441196112378,A,384,Correct
1,new_learn,12,689,A,56.34311321687238,59.48995509512671,2.817155660843619,0.9344660294461838,A,422,Correct
1,new_learn,12,690,A,66.20254561776338,51.764901156243994,3.3101272808881688,0.8131211659312896,A,406,Correct
1,new_learn,12,691,A,61.00967851460905,51.24173500396097,3.0504839257304526,0.8049032912281937,A,386,Correct
1,new_learn,12,692,B,52.74397780964033,27.544390287253123,2.6371988904820167,0.4326662708702223,A,705,Incorrect
1,new_learn,12,693,A,66.50149772842836,42.49889673182711,3.3250748864214184,0.6675711087918965,A,517,Correct
1,new_learn,12,694,A,39.861001400633285,71.48096931368572,1.9930500700316642,1.1228204403367625,B,1541,Incorrect
1,new_learn,12,695,B,32.241925526265376,34.364224271816255,1.612096276313269,0.5397919725932501,A,552,Incorrect
1,new_learn,12,696,B,35.60336519460696,49.14043428471438,1.780168259730348,0.7718961367153535,B,596,Correct
1,new_learn,12,697,B,12.278233293676351,62.599573388638994,0.6139116646838175,0.9833117993780168,B,539,Correct
1,new_learn,12,698,A,79.31724581216505,35.12898427162699,3.965862290608253,0.5518047945790737,A,420,Correct
1,new_learn,12,699,B,27.091690643907448,39.99625837327363,1.3545845321953722,0.6282597573827785,B,767,Correct
1,new_learn,12,700,A,33.43275186071725,81.36040620335889,1.6716375930358622,1.2780062721077685,B,1291,Incorrect
1,new_learn,12,701,B,39.279569469322375,48.94267383867857,1.9639784734661188,0.7687897228931698,A,464,Incorrect
1,new_learn,12,702,B,42.058865637841095,38.25281024971736,2.102943281892055,0.600873738298382,A,970,Incorrect
1,new_learn,12,703,A,61.05659871962315,67.2637346026046,3.0528299359811575,1.056576272402781,A,914,Correct
1,new_learn,12,704,B,53.348225690034376,38.3682462586587,2.6674112845017186,0.6026870028866311,A,488,Incorrect
1,new_learn,12,705,A,39.127912290786355,75.46839831168145,1.9563956145393178,1.1854548285708342,B,552,Incorrect
1,new_learn,12,706,A,74.09350390953368,42.41798666410213,3.704675195476684,0.6663001764200653,A,554,Correct
1,new_learn,12,707,B,20.92934114011782,56.110434951197206,1.0464670570058912,0.8813806511620454,B,561,Correct
1,new_learn,12,708,A,59.974131033027994,52.338988315794865,2.9987065516513995,0.8221389059461158,A,298,Correct
1,new_learn,12,709,A,86.86739575337394,34.248039555432655,4.343369787668697,0.5379669473359994,A,520,Correct
1,new_learn,12,710,B,32.460178103259594,39.246913307225505,1.6230089051629795,0.6164890726102757,B,428,Correct
1,new_learn,12,711,B,54.91880800916818,18.11983992782092,2.745940400458409,0.2846257800073261,A,524,Incorrect
1,new_learn,12,712,A,43.8632788364892,67.77363057091156,2.19316394182446,1.0645856995434217,B,522,Incorrect
1,new_learn,12,713,A,71.76294132005376,53.756317256480386,3.588147066002688,0.8444022568850051,100,405,Correct
1,new_learn,12,714,B,37.53870727462248,46.08313036758254,1.8769353637311241,0.7238721190860901,A,462,Incorrect
1,new_learn,12,715,B,26.946620602598745,43.67586176960954,1.3473310301299373,0.6860588323730431,B,695,Correct
1,new_learn,12,716,A,66.5917201932806,44.66260869239758,3.3295860096640295,0.7015586167909594,A,475,Correct
1,new_learn,12,717,B,37.65015116078324,51.43935484698432,1.8825075580391621,0.8080074964634223,B,490,Correct
1,new_learn,12,718,A,78.11007817202265,46.241074463162974,3.905503908601133,0.7263530991378568,A,575,Correct
1,new_learn,12,719,B,51.14809180348133,35.03946422352536,2.5574045901740665,0.5503986169517483,A,798,Incorrect
1,new_learn,12,720,A,54.536068988707534,76.10302080735752,2.7268034494353763,1.1954234554219278,A,614,Correct
1,new_learn,12,721,B,41.6477481720153,42.74322101212201,2.082387408600765,0.671408945612237,B,445,Correct
1,new_learn,12,722,B,44.77991347324421,23.093113905696356,2.2389956736622105,0.3627457849732399,A,938,Incorrect
1,new_learn,12,723,A,58.76000167680872,66.38805714232107,2.938000083840436,1.0428211630220765,A,565,Correct
1,new_learn,12,724,A,61.10145142620863,48.00636734550349,3.0550725713104314,0.7540822548908335,B,618,Incorrect
1,new_learn,12,725,A,38.821103665592354,77.69396035720249,1.9410551832796177,1.2204138754324196,A,754,Correct
1,new_learn,12,726,B,29.491771239945592,61.58971951864227,1.4745885619972796,0.9674490518821123,A,626,Incorrect
1,new_learn,12,727,A,57.27606720941466,69.6983410783053,2.8638033604707336,1.0948189814949982,A,587,Correct
1,new_learn,12,728,A,48.11446527024485,61.9945777300586,2.4057232635122427,0.9738085497957675,B,594,Incorrect
1,new_learn,12,729,B,43.09493768662065,33.53031923468377,2.1547468843310327,0.5266930229010154,A,1162,Incorrect
1,new_learn,12,730,A,56.7097904618838,60.46698346257926,2.83548952309419,0.9498131551538725,A,559,Correct
1,new_learn,12,731,A,52.581877485382584,75.0232844861836,2.629093874269129,1.1784629969498575,A,500,Correct
1,new_learn,12,732,A,79.77209621885662,35.90938841774542,3.988604810942831,0.564063354240457,A,501,Correct
1,new_learn,12,733,B,44.56301666021267,28.14504156958479,2.228150833010633,0.4421012791499346,B,775,Correct
1,new_learn,12,734,A,83.85065916778423,45.704980124792456,4.1925329583892115,0.7179321489625773,A,617,Correct
1,new_learn,12,735,A,39.63992613169629,80.5824799523263,1.9819963065848145,1.2657866351313751,B,631,Incorrect
1,new_learn,12,736,B,69.0736964711275,14.60631160072225,3.453684823556375,0.22943540610436197,A,551,Incorrect
1,new_learn,12,737,A,71.5696691167505,55.21580013383275,3.5784834558375254,0.8673277603126565,B,700,Incorrect
1,new_learn,12,738,A,51.3212449469683,76.22059579406123,2.5660622473484147,1.197270318994299,A,898,Correct
1,new_learn,12,739,B,20.566516618249672,49.02352313358651,1.0283258309124834,0.7700597006478231,B,497,Correct
1,new_learn,12,740,A,55.00691806227823,52.65703413538713,2.750345903113912,0.8271347579977959,A,540,Correct
1,new_learn,12,741,B,41.38593982359401,50.493110467859665,2.0692969911797006,0.793143924513629,A,645,Incorrect
1,new_learn,12,742,B,48.95699365930133,44.315858789471605,2.4478496829650664,0.6961118820526333,B,886,Correct
1,new_learn,12,743,B,63.37829375975468,24.430736837775655,3.1689146879877343,0.3837571168567076,A,542,Incorrect
1,new_learn,12,744,B,47.85445377139323,44.72345457859321,2.3927226885696613,0.7025143817363262,B,476,Correct
1,new_learn,12,745,A,77.59634309033811,40.198356609974525,3.8798171545169056,0.6314343090613934,B,364,Incorrect
1,new_learn,12,746,A,57.413338097266546,59.99547229501149,2.8706669048633273,0.9424066750532901,A,539,Correct
1,new_learn,12,747,B,64.4632517012568,23.1368469625628,3.22316258506284,0.363432742224093,A,1015,Incorrect
1,new_learn,12,748,A,58.1012981469218,57.51250525476915,2.9050649073460897,0.9034043199896358,B,689,Incorrect
1,new_learn,12,749,A,44.66437602642363,75.29408072861338,2.233218801321182,1.1827166543790428,B,1064,Incorrect
1,new_learn,12,750,B,52.89142943403397,25.524205881517517,2.644571471701698,0.4009332884304441,A,622,Incorrect
1,new_learn,12,751,A,47.95812857507818,60.647105659303016,2.3979064287539087,0.9526425080037517,A,302,Correct
1,new_learn,12,752,A,37.13804324458971,79.63728485839,1.8569021622294855,1.2509395453147787,B,893,Incorrect
1,new_learn,12,753,A,68.62748228290951,52.433229820324506,3.4313741141454757,0.8236192480375836,A,834,Correct
1,new_learn,12,754,B,43.78527328972899,40.59752752848942,2.1892636644864494,0.6377044711870589,A,511,Incorrect
1,new_learn,12,755,A,83.77412477379794,31.328672022955786,4.188706238689897,0.49210962937020986,A,656,Correct
1,new_learn,12,756,B,66.35487962463124,14.699624825723589,3.317743981231562,0.23090116681509687,B,829,Correct
1,new_learn,12,757,B,61.89579997820453,13.354931464008331,3.094789998910226,0.20977877288261876,B,840,Correct
1,new_learn,12,758,B,19.18249502755417,61.424720063694764,0.9591247513777086,0.9648572465045653,B,608,Correct
1,new_learn,12,759,B,25.279474700749976,52.99528375590564,1.2639737350374987,0.8324479706122982,B,705,Correct
1,new_learn,12,760,A,71.08482146942514,52.33970275656858,3.554241073471257,0.8221501283555465,A,481,Correct
1,new_learn,12,761,A,57.58093135120962,54.463799354236016,2.879046567560481,0.8555153596892819,A,573,Correct
1,new_learn,12,762,A,53.48396048152455,75.03224147973197,2.6741980240762273,1.1786036930755064,B,761,Incorrect
1,new_learn,12,763,B,28.933383502552257,53.09849764302761,1.4466691751276128,0.8340692505599525,B,556,Correct
1,new_learn,12,764,A,84.98914769293691,43.00043145235041,4.2494573846468455,0.6754491977594778,A,553,Correct
1,new_learn,12,765,A,39.88801515405599,81.14942830364456,1.9944007577027998,1.2746922390087068,B,617,Incorrect
1,new_learn,12,766,B,48.71894275796948,30.559734108256592,2.435947137898474,0.4800311808507817,B,763,Correct
1,new_learn,12,767,A,45.84104810199895,76.91620953369505,2.2920524050999473,1.2081969940651478,A,1799,Correct
1,new_learn,12,768,A,57.21562333817099,75.19685784722145,2.86078116690855,1.1811894809293346,B,999,Incorrect
1,new_learn,12,769,B,42.48537729711793,34.87865565042634,2.1242688648558965,0.5478726417923376,B,512,Correct
1,new_learn,12,770,A,80.14422415241128,37.92267847326283,4.007211207620564,0.5956880404802514,A,920,Correct
1,new_learn,12,771,B,34.87570229727608,57.278960222027365,1.7437851148638037,0.8997358031939158,B,641,Correct
1,new_learn,12,772,A,68.10439187096945,59.50726320835406,3.4052195935484724,0.9347379046529964,A,689,Correct
1,new_learn,12,773,A,46.963879354595555,65.0783187297472,2.348193967729778,1.022247840146744,A,749,Correct
1,new_learn,12,774,B,29.23384067093547,52.98429282487881,1.4616920335467736,0.8322753254714483,A,553,Incorrect
1,new_learn,12,775,A,45.54650986769638,65.39862569872312,2.277325493384819,1.0272792102498862,A,543,Correct
1,new_learn,12,776,A,54.97995928258585,70.09402412860607,2.748997964129293,1.1010343563148726,A,683,Correct
1,new_learn,12,777,A,76.18365021041791,35.1209770019594,3.8091825105208956,0.5516790166812586,B,928,Incorrect
1,new_learn,12,778,B,56.54027449130204,32.125333348203526,2.827013724565102,0.504623556204197,A,670,Incorrect
1,new_learn,12,779,A,79.64939774582271,36.37213248627529,3.9824698872911357,0.5713321210713856,A,564,Correct
1,new_learn,12,780,B,44.65306558888317,26.969441386590873,2.232653279444159,0.4236349946576721,B,675,Correct
1,new_learn,12,781,B,55.707045077781075,14.907538821413937,2.7853522538890534,0.2341670722222933,A,531,Incorrect
1,new_learn,12,782,B,24.243694468092016,43.26882745030202,1.2121847234046008,0.679665152236566,B,470,Correct
1,new_learn,12,783,B,27.77144316248065,47.41392045252459,1.3885721581240325,0.7447761208577104,B,449,Correct
1,new_learn,12,784,B,17.59461964841806,68.07912092132025,0.879730982420903,1.0693843307463544,B,547,Correct
1,new_learn,12,785,B,35.52983052581506,44.37684055216966,1.7764915262907528,0.6970697813411092,A,682,Incorrect
1,new_learn,12,786,A,63.40642890967873,58.213657967593804,3.170321445483937,0.914418001047908,B,638,Incorrect
1,new_learn,12,787,B,55.705438095974316,28.52404929462388,2.785271904798716,0.4480547185731175,A,847,Incorrect
1,new_learn,12,788,A,46.1176407912628,70.83449225966626,2.30588203956314,1.1126656025186528,A,1184,Correct
1,new_learn,12,789,A,65.76633000701857,59.30874177638061,3.2883165003509283,0.9316195372916569,A,588,Correct
1,new_learn,12,790,B,28.448309468113656,42.587944910495004,1.4224154734056826,0.6689698743114897,B,1621,Correct
1,new_learn,12,791,B,63.57934531075499,25.445233229268922,3.1789672655377497,0.3996927889097507,A,550,Incorrect
1,new_learn,12,792,A,59.74964982047584,60.21640837947491,2.987482491023792,0.9458771309526063,B,583,Incorrect
1,new_learn,12,793,B,27.586160130783988,49.034196410433296,1.3793080065391994,0.7702273560884814,B,570,Correct
1,new_learn,12,794,A,43.26758246821677,77.82513925959206,2.163379123410839,1.222474428812685,A,747,Correct
1,new_learn,12,795,A,74.23396581795132,53.748951429975946,3.711698290897566,0.844286554752835,A,532,Correct
1,new_learn,12,796,A,51.73544216844946,76.28016953280445,2.586772108422473,1.1982061010942122,A,619,Correct
1,new_learn,12,797,B,50.73678387623531,24.424308036750745,2.5368391938117654,0.3836561334863514,A,754,Incorrect
1,new_learn,12,798,A,70.60562365862069,53.56852125360538,3.5302811829310343,0.8414523641699768,A,816,Correct
1,new_learn,12,799,A,72.20432237346492,58.66193037590206,3.610216118673246,0.9214594475716492,A,634,Correct
1,new_learn,12,800,B,13.637547101007307,59.52321505676029,0.6818773550503653,0.9349884757018174,B,520,Correct
1,new_learn,12,801,A,67.35919812493941,46.34213795213988,3.3679599062469707,0.7279406007104369,A,522,Correct
1,new_learn,12,802,B,23.13544872237302,49.45360233438517,1.1567724361186509,0.7768153689362775,B,822,Correct
1,new_learn,12,803,B,51.78585609181436,39.23008981648404,2.589292804590718,0.61622480983567,A,529,Incorrect
1,new_learn,12,804,A,69.04870396624183,56.755644304559134,3.4524351983120916,0.8915155759847918,A,1509,Correct
1,new_learn,12,805,B,57.808454537931006,21.236020125784506,2.89042272689655,0.33357462409324806,A,472,Incorrect
1,new_learn,12,806,B,43.79994179815597,43.33217543666518,2.1899970899077985,0.6806602200794571,B,282,Correct
1,new_learn,12,807,B,31.75540015381889,44.19799607765043,1.5877700076909447,0.6942604989046853,B,512,Correct
1,new_learn,12,808,B,48.55091004842948,24.64311901362413,2.427545502421474,0.3870932082737025,A,530,Incorrect
1,new_learn,12,809,B,64.23898807489553,10.534153514678664,3.2119494037447764,0.16547009646750796,A,926,Incorrect
1,new_learn,12,810,A,59.364115704166814,66.35444198365008,2.9682057852083408,1.042293137344426,B,657,Incorrect
1,new_learn,12,811,A,44.728144432819235,72.08689353656357,2.236407221640962,1.1323382757728881,A,1084,Correct
1,new_learn,12,812,A,86.07011621420945,35.51081454832618,4.3035058107104724,0.5578025705400554,A,780,Correct
1,new_learn,12,813,A,37.58822724367603,73.56888371053759,1.8794113621838016,1.1556173229891336,A,2730,Correct
1,new_learn,12,814,B,44.248845284503055,27.034303531876972,2.2124422642251527,0.42465384685330654,B,689,Correct
1,new_learn,12,815,B,37.3050160956137,31.069172220891318,1.865250804780685,0.4880334160113412,A,485,Incorrect
1,new_learn,12,816,A,30.59327921070942,83.89129285998195,1.529663960535471,1.3177613467453457,A,457,Correct
1,new_learn,12,817,A,35.39036904045544,78.26296446640883,1.7695184520227718,1.229351771079145,A,401,Correct
1,new_learn,12,818,A,59.66690133997733,55.80242198506421,2.983345066998867,0.8765423948039764,A,397,Correct
1,new_learn,12,819,B,50.76072470747564,36.044413611735415,2.538036235373782,0.5661843250278996,B,460,Correct
1,new_learn,12,820,B,61.02134986199037,12.207500075910758,3.0510674930995183,0.19175496278589038,A,290,Incorrect
1,new_learn,12,821,A,73.6046821042842,41.54610715598038,3.6802341052142094,0.6526047251324114,B,612,Incorrect
1,new_learn,12,822,A,67.2736524336667,57.766622088823325,3.363682621683335,0.9073959778847261,A,574,Correct
1,new_learn,12,823,B,58.88119078343823,31.0221348177227,2.9440595391719113,0.4872945542101489,B,598,Correct
1,new_learn,12,824,A,68.37193343321812,51.061231095733284,3.418596671660906,0.8020679424680319,A,320,Correct
1,new_learn,12,825,B,19.290595808518287,50.141273460208375,0.9645297904259144,0.7876172817211374,B,657,Correct
1,new_learn,12,826,B,27.3575394028379,47.310205687170935,1.3678769701418951,0.7431469731331912,A,352,Incorrect
1,new_learn,12,827,A,62.180818120418145,61.63532288974464,3.109040906020907,0.9681653879602831,B,463,Incorrect
1,new_learn,12,828,B,26.766422413706998,52.94466392666346,1.33832112068535,0.8316528361939323,B,593,Correct
1,new_learn,12,829,A,65.84995661065668,59.16081156343007,3.292497830532834,0.9292958549404099,A,409,Correct
1,new_learn,12,830,B,18.78118530346102,65.9282643535686,0.9390592651730509,1.0355987547854848,B,495,Correct
1,new_learn,12,831,B,26.836762142620138,45.28425821558677,1.3418381071310068,0.7113234646667531,B,533,Correct
1,new_learn,12,832,B,54.1763461419414,33.24919854916868,2.7088173070970702,0.5222771894990837,A,583,Incorrect
1,new_learn,12,833,B,23.35778588127416,58.54521178319919,1.1678892940637082,0.9196260362047858,B,334,Correct
1,new_learn,12,834,A,74.26231787674831,50.852904891356076,3.7131158938374154,0.7987955621019235,B,253,Incorrect
1,new_learn,12,835,B,35.885032920582404,44.0874481250055,1.7942516460291202,0.6925240157251918,B,560,Correct
1,new_learn,12,836,B,42.47940552873676,50.21315886482467,2.1239702764368382,0.7887464550163519,A,352,Incorrect
1,new_learn,12,837,A,84.60827775294557,45.21650568184117,4.230413887647279,0.7102592103553669,B,11,Incorrect
1,new_learn,12,838,A,50.60274919113344,56.551858799530294,2.530137459556672,0.8883145207572584,B,548,Incorrect
1,new_learn,12,839,A,76.83819188874364,55.56631228907557,3.8419095944371815,0.8728335923721803,A,434,Correct
1,new_learn,12,840,A,70.93177662233346,58.759141265582414,3.546588831116673,0.9229864326559929,A,409,Correct
1,new_learn,12,841,B,28.603181361118374,45.34835015218699,1.4301590680559186,0.7123302184526411,B,424,Correct
1,new_learn,12,842,B,19.242968548710426,61.061175109507815,0.9621484274355212,0.9591466957179484,B,470,Correct
1,new_learn,12,843,A,58.00403340923279,70.04364521404578,2.900201670461639,1.1002430061754804,A,518,Correct
1,new_learn,12,844,B,16.249756239800988,56.07049072738387,0.8124878119900494,0.8807532087616189,B,416,Correct
1,new_learn,12,845,B,39.649906679388764,28.244141236947087,1.9824953339694382,0.44365793308472745,A,505,Incorrect
1,new_learn,12,846,B,37.94666257377589,44.58038427782193,1.8973331286887944,0.7002670387070764,B,347,Correct
1,new_learn,12,847,B,39.22164231829487,40.1837643406701,1.9610821159147434,0.6312050942311636,B,343,Correct
1,new_learn,12,848,B,40.30969488496647,52.62295475186251,2.0154847442483232,0.8265994402931968,B,570,Correct
1,new_learn,12,849,A,85.33971071651695,37.231630720957384,4.266985535825848,0.5848330877706389,A,342,Correct
1,new_learn,12,850,A,43.015878354042705,67.43773077096473,2.1507939177021353,1.0593093978241457,A,406,Correct
1,new_learn,12,851,A,52.09384515367816,72.80653310104452,2.604692257683908,1.1436423476179178,A,269,Correct
1,new_learn,12,852,A,71.26336638053557,39.54221829567361,3.5631683190267784,0.6211277125216605,B,225,Incorrect
1,new_learn,12,853,A,55.23704940065032,54.8158165303026,2.761852470032516,0.8610448325606229,A,416,Correct
1,new_learn,12,854,A,59.805730149187816,66.59852138356608,2.990286507459391,1.0461271275927697,A,368,Correct
1,new_learn,12,855,A,68.35973167546652,54.9856990055454,3.4179865837733256,0.8637133402416052,A,254,Correct
1,new_learn,12,856,B,43.07757908738677,34.17429706337063,2.1538789543693384,0.536808602979402,A,298,Incorrect
1,new_learn,12,857,A,37.12887936018653,74.55311585702424,1.8564439680093268,1.17107760539328,B,444,Incorrect
1,new_learn,12,858,A,69.52034093212606,48.20369401210196,3.476017046606303,0.7571818549215491,B,207,Incorrect
1,new_learn,12,859,A,75.90156893905298,51.45432339304206,3.7950784469526493,0.8082426218350719,A,328,Correct
1,new_learn,12,860,B,24.19354733407069,56.90171770614029,1.2096773667035345,0.893810091611253,A,314,Incorrect
1,new_learn,12,861,B,55.407942681169764,20.690805324509597,2.7703971340584883,0.3250104100216796,A,731,Incorrect
1,new_learn,12,862,B,25.822969588624836,56.716455681704815,1.2911484794312418,0.8909000025364746,B,587,Correct
1,new_learn,12,863,A,42.42576107422935,83.59844944587284,2.1212880537114676,1.3131613731532592,A,496,Correct
1,new_learn,12,864,B,28.439997339715724,56.53263085223844,1.421999866985786,0.8880124888674799,A,288,Incorrect
1,new_learn,12,865,A,52.031782993038945,58.002125320790206,2.6015891496519474,0.9110952540019452,A,368,Correct
1,new_learn,12,866,A,63.616205531231905,56.45551618292748,3.180810276561595,0.8868011744745233,A,517,Correct
1,new_learn,12,867,B,52.29855044518419,18.489441749386046,2.61492752225921,0.29043147184423806,A,464,Incorrect
1,new_learn,12,868,A,50.417286009100465,64.11678777408585,2.520864300455023,1.0071441472142197,A,605,Correct
1,new_learn,12,869,B,40.67453198100835,42.556884117640145,2.0337265990504174,0.6684819725182521,B,778,Correct
1,new_learn,12,870,A,85.68898618295668,30.692296120762535,4.284449309147834,0.48211346007395034,A,772,Correct
1,new_learn,12,871,B,67.0683580365926,20.041604602595385,3.35341790182963,0.31481278892832526,B,797,Correct
1,new_learn,12,872,B,41.82290292391911,29.53715342099987,2.0911451461959554,0.46396852097683916,A,376,Incorrect
1,new_learn,12,873,A,55.55806899162166,56.1100451267254,2.777903449581083,0.8813745278135616,A,314,Correct
1,new_learn,12,874,A,38.38142652095338,86.04406670937769,1.919071326047669,1.351577039295855,B,297,Incorrect
1,new_learn,12,875,A,58.44308106498089,51.63725340858101,2.9221540532490446,0.811116079799763,A,83,Correct
1,new_learn,12,876,B,39.982652891006786,47.10347816176668,1.9991326445503392,0.7398997047576674,107,230,Incorrect
1,new_learn,12,877,A,35.60785945799094,89.02546056563862,1.7803929728995471,1.3984086644772906,A,314,Correct
1,new_learn,12,878,A,47.97342214486831,68.6434929077333,2.3986711072434157,1.07824946517839,B,295,Incorrect
1,new_learn,12,879,A,43.86764842885627,75.9181168817519,2.1933824214428137,1.1925189913504153,A,270,Correct
1,new_learn,12,880,B,43.914843988314814,38.34324553635082,2.195742199415741,0.602294292458947,A,224,Incorrect
1,new_learn,12,881,A,75.3274036570851,45.64200855351544,3.7663701828542546,0.716942993834033,107,616,Incorrect
1,new_learn,12,882,A,56.908752989804526,61.94807418951991,2.845437649490226,0.9730780738891561,A,564,Correct
1,new_learn,12,883,B,26.448969423806723,53.412634297200775,1.3224484711903362,0.8390036975848209,B,519,Correct
1,new_learn,12,884,B,17.222265687871015,59.86195481990809,0.8611132843935507,0.9403093874587368,B,558,Correct
1,new_learn,12,885,B,19.470799544637853,64.03366679625125,0.9735399772318927,1.005838485947598,B,473,Correct
1,new_learn,12,886,A,63.8192335023083,64.05933875304724,3.1909616751154153,1.0062417401019659,A,396,Correct
1,new_learn,12,887,B,32.913015835675225,46.82560529334919,1.6456507917837613,0.7355348879474058,B,664,Correct
1,new_learn,12,888,A,70.61086005564458,56.80859537860682,3.5305430027822293,0.8923473295109312,A,714,Correct
1,new_learn,12,889,B,10.217113080661242,66.63868301971974,0.5108556540330621,1.046757985098252,B,453,Correct
1,new_learn,12,890,B,56.575583402125545,32.891018714049665,2.828779170106277,0.516650913805714,A,393,Incorrect
1,new_learn,12,891,B,50.15575318006999,23.225671714892172,2.5077876590034998,0.3648279981709675,A,772,Incorrect
1,new_learn,12,892,A,64.34948562805931,61.6010344135421,3.2174742814029655,0.9676267858355794,A,658,Correct
1,new_learn,12,893,A,47.93446059839617,64.68163152678683,2.3967230299198086,1.0160166921337774,B,678,Incorrect
1,new_learn,12,894,A,39.59723928222911,71.6709512283239,1.9798619641114557,1.1258046692734736,A,939,Correct
1,new_learn,12,895,B,56.556697833136795,18.18862509257174,2.82783489165684,0.2857062548486118,B,706,Correct
1,new_learn,12,896,B,38.152549600481,47.652497243854455,1.90762748002405,0.7485236763325052,A,478,Incorrect
1,new_learn,12,897,B,24.147578511224367,49.09039388839346,1.2073789255612184,0.7711101040080308,B,644,Correct
1,new_learn,12,898,A,46.20191654046277,64.19218324421095,2.3100958270231384,1.0083284564895147,A,432,Correct
