experiment,condition,subject,trial,cat,x,y,xt,yt,resp,rt,fb
1,relearn,39,0,B,69.97601881398427,55.91984806824471,3.4988009406992138,0.8783869194052749,A,3566,Incorrect
1,relearn,39,1,A,58.81624263414038,79.83720557692796,2.9408121317070193,1.2540798926180747,B,2120,Incorrect
1,relearn,39,2,B,78.31829352037494,47.87012712738136,3.9159146760187467,0.7519421985489537,B,3202,Correct
1,relearn,39,3,A,28.348305374511547,55.869127757313855,1.4174152687255772,0.8775902066242338,B,1056,Incorrect
1,relearn,39,4,B,53.96427050689182,24.86295096356877,2.698213525344591,0.3905463204685546,A,1950,Incorrect
1,relearn,39,5,A,37.516987084526036,62.17256973146466,1.8758493542263017,0.9766044416158426,A,1504,Correct
1,relearn,39,6,A,68.37917436669078,87.5296112284525,3.418958718334539,1.3749119180343852,B,1597,Incorrect
1,relearn,39,7,B,35.359367176893315,16.203235541724727,1.767968358844666,0.25451982871133716,A,1013,Incorrect
1,relearn,39,8,B,46.42909381224373,20.31144852971074,2.3214546906121867,0.31905148742353234,B,4071,Correct
1,relearn,39,9,A,49.51955361819312,79.51519549411886,2.475977680909656,1.2490217700654003,B,1947,Incorrect
1,relearn,39,10,B,50.235548799387324,24.67044022189736,2.511777439969366,0.38752236880969443,A,1828,Incorrect
1,relearn,39,11,B,50.98557355109769,40.165813780580116,2.5492786775548844,0.6309231274926308,B,835,Correct
1,relearn,39,12,B,88.89109676784716,63.88380277117699,4.444554838392358,1.0034844273465444,B,1706,Correct
1,relearn,39,13,A,52.46892713043612,72.77234429681877,2.6234463565218062,1.143105311136965,A,2114,Correct
1,relearn,39,14,A,34.76175122431354,64.07587455235087,1.7380875612156772,1.0065014838300332,A,1402,Correct
1,relearn,39,15,A,21.143329904334195,51.67213505715268,1.0571664952167097,0.8116639994542524,A,1313,Correct
1,relearn,39,16,A,43.112288296388414,71.54621287758792,2.1556144148194205,1.1238452838420085,A,1287,Correct
1,relearn,39,17,B,67.29542517565267,50.67441484922076,3.3647712587826333,0.7959918470763673,A,1133,Incorrect
1,relearn,39,18,B,51.428644876967354,40.85895647300238,2.571432243848368,0.6418109874446469,B,2851,Correct
1,relearn,39,19,B,31.813629867582204,18.795603842656686,1.5906814933791102,0.2952406547593716,B,687,Correct
1,relearn,39,20,B,40.964452431658614,27.74710320870454,2.048222621582931,0.43585047799431975,B,644,Correct
1,relearn,39,21,B,54.28164238917013,24.029351696277757,2.7140821194585065,0.3774521737977582,B,778,Correct
1,relearn,39,22,A,23.737297200305054,37.57077533983785,1.1868648600152527,0.5901603589865358,B,1505,Incorrect
1,relearn,39,23,A,65.93771914410671,81.86562461100661,3.2968859572053355,1.2859422242973906,A,1086,Correct
1,relearn,39,24,A,43.09627632292824,74.4095474153907,2.154813816146412,1.1688224375856642,A,1192,Correct
1,relearn,39,25,A,44.3538107272229,58.72070142762817,2.217690536361145,0.9223826210933816,B,1407,Incorrect
1,relearn,39,26,B,49.90897723453625,29.28225665921775,2.4954488617268127,0.4599646120056464,A,1579,Incorrect
1,relearn,39,27,A,21.362037431673212,34.71173778528188,1.0681018715836605,0.545250702097884,B,811,Incorrect
1,relearn,39,28,B,63.16173247657669,48.86777001610214,3.1580866238288343,0.7676131363995101,A,3352,Incorrect
1,relearn,39,29,B,52.464741764080856,39.2161324954473,2.6232370882040423,0.6160055687495058,B,1523,Correct
1,relearn,39,30,B,30.829165700443316,14.156840596282546,1.5414582850221656,0.22237513207661494,B,2078,Correct
1,relearn,39,31,A,40.53601357207734,58.43929040034662,2.026800678603867,0.9179622270136474,A,2067,Correct
1,relearn,39,32,A,13.681989382677738,31.541673313852424,0.684099469133887,0.49545544582364,B,3283,Incorrect
1,relearn,39,33,B,62.13681090422135,34.60125229731716,3.1068405452110675,0.5435152001112927,B,2042,Correct
1,relearn,39,34,B,68.94829176453473,58.62459781219155,3.4474145882267364,0.9208730290321863,A,1084,Incorrect
1,relearn,39,35,B,31.86225862669527,13.764180689862908,1.5931129313347634,0.21620724468977903,B,2310,Correct
1,relearn,39,36,B,86.79688120465258,61.41288502982236,4.339844060232629,0.9646713422272226,B,1434,Correct
1,relearn,39,37,A,63.29429894052018,74.84321586229352,3.164714947026009,1.1756344856200818,B,1245,Incorrect
1,relearn,39,38,B,77.53806501436834,59.18995629571516,3.876903250718417,0.9297536593245984,A,1009,Incorrect
1,relearn,39,39,A,28.12538885929365,56.27536187366839,1.4062694429646825,0.8839713172021187,A,2770,Correct
1,relearn,39,40,A,52.4654546850303,69.28160556817829,2.623272734251515,1.088272915409473,A,2439,Correct
1,relearn,39,41,B,69.37834148251461,43.26064205300685,3.4689170741257307,0.6795365763165199,B,2103,Correct
1,relearn,39,42,B,65.5938180207876,51.61801062951936,3.2796909010393795,0.8108138149330893,B,790,Correct
1,relearn,39,43,B,52.363266744253714,43.00481352754364,2.618163337212686,0.6755180312356502,B,1256,Correct
1,relearn,39,44,B,36.304526481088644,23.67537598241439,1.8152263240544324,0.3718919362866464,A,2277,Incorrect
1,relearn,39,45,B,46.63718551294357,30.448987413621836,2.3318592756471785,0.47829157583941223,B,814,Correct
1,relearn,39,46,A,32.73528446939071,59.76769151895476,1.6367642234695357,0.9388287029898462,B,2510,Incorrect
1,relearn,39,47,B,77.91896784731065,48.569027645684514,3.895948392365533,0.7629205022184101,B,1375,Correct
1,relearn,39,48,B,56.30465620488331,37.59044548952365,2.815232810244165,0.5904693369752754,B,953,Correct
1,relearn,39,49,B,66.80900236291689,38.250975760707036,3.3404501181458444,0.6008449222123923,B,1402,Correct
1,relearn,39,50,B,53.902570482968294,32.117674804769536,2.6951285241484144,0.5045032560852498,B,1221,Correct
1,relearn,39,51,A,35.68517929430847,44.5593743191078,1.7842589647154232,0.6999370150473337,A,7396,Correct
1,relearn,39,52,A,20.96960576416195,49.22355834559427,1.0484802882080977,0.7732018464103376,A,900,Correct
1,relearn,39,53,A,49.27270249157492,72.2486379809347,2.463635124578746,1.1348789515638649,A,858,Correct
1,relearn,39,54,A,41.367318214636384,62.630428390798826,2.0683659107318193,0.9837964686185762,A,870,Correct
1,relearn,39,55,A,49.16247580505975,61.648992479041645,2.4581237902529876,0.9683801093668482,A,1053,Correct
1,relearn,39,56,A,63.39912343660721,75.20757515622216,3.1699561718303606,1.1813578280254489,A,2686,Correct
1,relearn,39,57,B,45.18439855497158,31.35976876458114,2.259219927748579,0.4925980958454139,B,1948,Correct
1,relearn,39,58,B,67.60580222724177,38.39183367139497,3.3802901113620885,0.6030575130994784,B,1899,Correct
1,relearn,39,59,A,38.81543270002539,65.04863091069143,1.9407716350012694,1.0217815049755106,A,3465,Correct
1,relearn,39,60,A,32.01805871649354,53.546616177659146,1.6009029358246771,0.8411082800416316,A,1267,Correct
1,relearn,39,61,B,62.54171578623025,35.50730795712663,3.1270857893115123,0.5577474891342971,B,3199,Correct
1,relearn,39,62,B,53.72179547390698,36.123167654424876,2.686089773695349,0.5674213906376682,B,450,Correct
1,relearn,39,63,A,33.69168079655938,51.971495751099404,1.684584039827969,0.8163663462386351,A,1190,Correct
1,relearn,39,64,A,55.261826449860166,81.31188840812509,2.7630913224930085,1.2772441563623942,B,1928,Incorrect
1,relearn,39,65,A,36.53024709880779,62.945299088390385,1.8265123549403897,0.9887424459704977,A,3100,Correct
1,relearn,39,66,A,47.622972328432,63.13847904792108,2.3811486164216,0.9917769096789097,A,1476,Correct
1,relearn,39,67,A,34.21263234035359,66.87558948197449,1.7106316170176796,1.0504793031052893,B,1073,Incorrect
1,relearn,39,68,B,46.20663668919083,22.57196662724473,2.310331834459541,0.35455962266613017,B,2065,Correct
1,relearn,39,69,B,43.030019050351726,35.10447282607867,2.151500952517586,0.5514197696927563,B,4892,Correct
1,relearn,39,70,A,46.756520467989816,57.2321312438596,2.337826023399491,0.8990002153249808,B,2908,Incorrect
1,relearn,39,71,B,69.00708247830948,48.45434289576146,3.4503541239154742,0.761119038379225,A,2744,Incorrect
1,relearn,39,72,B,86.01831406212719,68.82678111020883,4.300915703106359,1.081128549530324,B,1436,Correct
1,relearn,39,73,B,69.4006380164609,40.19284674113092,3.470031900823045,0.6313477602439868,B,2543,Correct
1,relearn,39,74,B,77.52241460062808,52.563839767748505,3.876120730031404,0.8256708642941487,B,759,Correct
1,relearn,39,75,B,73.3191214233081,60.90661543914905,3.665956071165405,0.9567188780932465,B,528,Correct
1,relearn,39,76,A,41.585308283622545,58.182004742979544,2.079265414181127,0.9139207933583552,A,1000,Correct
1,relearn,39,77,A,41.16991772846114,56.92804688113201,2.058495886423057,0.8942236693248984,A,3014,Correct
1,relearn,39,78,A,13.48395933107603,33.73032728376294,0.6741979665538014,0.5298347419892451,A,7973,Correct
1,relearn,39,79,B,85.42262519372767,69.09829379872467,4.271131259686383,1.085393460868313,B,830,Correct
1,relearn,39,80,B,70.09038491117491,53.38201781845919,3.5045192455587455,0.8385227750613541,B,882,Correct
1,relearn,39,81,B,82.64748979692453,65.55993810477904,4.132374489846227,1.029813099598877,B,636,Correct
1,relearn,39,82,A,42.15232537104223,49.20845924093786,2.1076162685521114,0.7729646702290158,A,7556,Correct
1,relearn,39,83,B,54.316946114126246,46.7383586142106,2.7158473057063124,0.7341644203162462,A,2534,Incorrect
1,relearn,39,84,A,56.56852063284458,70.76226476750402,2.828426031642229,1.1115310557248324,B,821,Incorrect
1,relearn,39,85,B,55.78866782475288,38.41103085169408,2.7894333912376443,0.603359061702465,A,570,Incorrect
1,relearn,39,86,B,47.5005668257177,35.84105788871137,2.375028341285885,0.5629900208003107,B,955,Correct
1,relearn,39,87,A,20.025887455356536,34.08923152638114,1.0012943727678267,0.5354723966490028,B,622,Incorrect
1,relearn,39,88,B,69.11299577678405,43.91053874318478,3.455649788839202,0.6897451296537964,B,1487,Correct
1,relearn,39,89,B,45.79100209927779,31.09390492388086,2.2895501049638893,0.48842191640141813,A,774,Incorrect
1,relearn,39,90,B,49.54792540381683,24.06991444556463,2.477396270190842,0.37808933197360345,B,769,Correct
1,relearn,39,91,A,16.940306281631585,35.39457048887271,0.8470153140815794,0.555976613124043,A,717,Correct
1,relearn,39,92,A,50.29735648617678,64.29911965880281,2.514867824308839,1.0100082097619298,A,2352,Correct
1,relearn,39,93,B,46.98990208690778,33.31821470805041,2.3494951043453893,0.5233612927876928,B,2071,Correct
1,relearn,39,94,B,71.21474120948825,42.43769634188995,3.5607370604744126,0.6666097753147796,B,1106,Correct
1,relearn,39,95,A,61.71061821640634,79.72369077938004,3.085530910820317,1.252296806347823,A,1450,Correct
1,relearn,39,96,A,52.17034771417892,59.794911179819394,2.6085173857089456,0.939256268422874,B,1416,Incorrect
1,relearn,39,97,B,52.81151242371364,30.473798361991353,2.6405756211856817,0.4786813053050436,A,2689,Incorrect
1,relearn,39,98,A,53.51136203342307,67.7746396874048,2.675568101671154,1.0646015507082307,A,1169,Correct
1,relearn,39,99,A,24.06794777511182,35.9680873380859,1.2033973887555909,0.5649853947250337,A,915,Correct
1,relearn,39,100,B,44.20299710602767,14.984775451786035,2.2101498553013834,0.23538030237511842,B,983,Correct
1,relearn,39,101,A,10.983247136703746,35.283960012186704,0.5491623568351873,0.5542391478192089,A,984,Correct
1,relearn,39,102,A,35.99223785348045,63.85591290021751,1.7996118926740223,1.0030463342779652,A,1145,Correct
1,relearn,39,103,A,42.693484090851875,73.04971211010007,2.134674204542594,1.1474621945596986,A,1276,Correct
1,relearn,39,104,B,85.84866998800535,60.590665466426785,4.292433499400268,0.9517559475272159,B,880,Correct
1,relearn,39,105,A,18.54559029086678,39.564941112182964,0.927279514543339,0.6214846416887341,A,899,Correct
1,relearn,39,106,A,38.0391294623548,56.45064819013327,1.9019564731177399,0.8867247082225233,B,2489,Incorrect
1,relearn,39,107,A,43.877340662038144,73.52549795025332,2.193867033101907,1.1549358210602363,A,756,Correct
1,relearn,39,108,A,47.183349100088826,58.75265287368643,2.3591674550044415,0.9228845132344226,A,1525,Correct
1,relearn,39,109,A,66.85525614157646,80.95546048734276,3.342762807078823,1.2716453996750738,A,1905,Correct
1,relearn,39,110,B,65.26706240037035,32.88496332154598,3.2633531200185177,0.5165557959226933,B,1653,Correct
1,relearn,39,111,B,61.00377323266139,30.764054484109554,3.0501886616330696,0.4832406378095736,B,534,Correct
1,relearn,39,112,B,48.44852811350528,22.785624177549856,2.4224264056752642,0.357915747618243,B,566,Correct
1,relearn,39,113,B,49.80055147978245,33.57651214852453,2.4900275739891224,0.5274186194948655,B,840,Correct
1,relearn,39,114,A,30.78095584858439,62.613573490109765,1.5390477924292196,0.9835317124576672,A,1128,Correct
1,relearn,39,115,A,25.224489339337346,57.14471073417646,1.2612244669668673,0.8976270171700128,A,731,Correct
1,relearn,39,116,B,79.41771828010249,63.72077593553717,3.9708859140051245,1.0009236078006245,B,1072,Correct
1,relearn,39,117,B,88.23476094806324,65.99738272081777,4.411738047403162,1.0366844635593753,B,693,Correct
1,relearn,39,118,A,60.91157820252432,82.93466356519792,3.045578910126216,1.3027346489218345,A,1445,Correct
1,relearn,39,119,B,87.26493447027008,65.72583282357967,4.3632467235135035,1.032418967748144,A,1006,Incorrect
1,relearn,39,120,B,69.15144728917302,51.30750224088548,3.4575723644586507,0.8059363605700385,B,978,Correct
1,relearn,39,121,A,32.43021266941684,56.7383795269297,1.621510633470842,0.8912443814919594,A,4195,Correct
1,relearn,39,122,A,51.53987910305921,58.897735941418915,2.57699395515296,0.9251634727331659,B,6619,Incorrect
1,relearn,39,123,A,25.05248994547666,52.66005544203037,1.2526244972738327,0.8271822165715692,A,2393,Correct
1,relearn,39,124,A,19.169267113568882,34.769956628718916,0.9584633556784441,0.5461652015520954,A,1035,Correct
1,relearn,39,125,A,10.394295788433265,32.98626020916383,0.5197147894216633,0.518146963712552,A,854,Correct
1,relearn,39,126,B,88.41383208432349,64.888510406457,4.420691604216175,1.0192663379765508,B,1505,Correct
1,relearn,39,127,B,70.87938890489053,61.12476855242076,3.5439694452445267,0.9601456191833075,B,710,Correct
1,relearn,39,128,A,41.55534073916677,50.35566985939279,2.0777670369583388,0.7909850124843069,B,863,Incorrect
1,relearn,39,129,B,61.66149685092581,44.749867209143694,3.0830748425462904,0.702929270366823,B,1116,Correct
1,relearn,39,130,B,34.984503804495105,14.2165608267348,1.749225190224755,0.2233132152629124,A,4335,Incorrect
1,relearn,39,131,B,40.85429994879168,26.969543976688048,2.0427149974395835,0.4236366061391501,B,1298,Correct
1,relearn,39,132,B,51.261128988500765,26.963683894908506,2.563056449425038,0.42354455618980996,B,662,Correct
1,relearn,39,133,B,69.72433838951359,49.19038705728347,3.48621691947568,0.772680793032001,B,3060,Correct
1,relearn,39,134,B,71.5026393021883,51.34809629144115,3.575131965109415,0.8065740104250639,B,2412,Correct
1,relearn,39,135,A,48.90178483407246,76.23741544048991,2.4450892417036227,1.197534521382581,A,9655,Correct
1,relearn,39,136,B,34.82933319333753,15.60759810421931,1.7414666596668766,0.24516357772198688,B,3051,Correct
1,relearn,39,137,A,50.58481972012079,76.74115022963069,2.529240986006039,1.2054471689471922,A,1807,Correct
1,relearn,39,138,B,34.92055443385603,24.109858431417003,1.7460277216928017,0.37871677063614795,B,1265,Correct
1,relearn,39,139,B,79.17264063130902,61.68652287708001,3.9586320315654513,0.9689696354806663,B,746,Correct
1,relearn,39,140,A,11.697339952228063,34.79909068993952,0.5848669976114031,0.5466228383155948,A,736,Correct
1,relearn,39,141,A,66.97760788945281,88.01703912967957,3.3488803944726406,1.3825684176026336,B,5821,Incorrect
1,relearn,39,142,A,47.39815738036278,70.98898815035622,2.369907869018139,1.1150924182946598,A,1699,Correct
1,relearn,39,143,A,21.35361825635804,45.144397783445115,1.067680912817902,0.7091265421360327,A,1123,Correct
1,relearn,39,144,A,34.77090010926301,57.453543686208356,1.7385450054631506,0.902478153836462,A,524,Correct
1,relearn,39,145,B,38.47105354208091,27.7332249482001,1.9235526771040454,0.4356324787880931,B,4345,Correct
1,relearn,39,146,B,71.84649138764227,43.824111700044796,3.592324569382114,0.6883875368347961,B,726,Correct
1,relearn,39,147,A,45.82806698569142,68.27894252382437,2.291403349284571,1.072523121138632,B,3280,Incorrect
1,relearn,39,148,B,36.451177103508485,25.086090738226815,1.8225588551754242,0.3940513918525016,B,662,Correct
1,relearn,39,149,B,60.82066475040714,47.83887523032114,3.041033237520357,0.7514512948978781,B,811,Correct
1,relearn,39,150,A,54.87534323876913,82.56165385702278,2.7437671619384565,1.2968754261272308,A,817,Correct
1,relearn,39,151,B,55.753247179947294,28.09669547862419,2.7876623589973644,0.4413418605289766,B,867,Correct
1,relearn,39,152,A,47.117533092531865,53.98777648605878,2.3558766546265932,0.8480380099612502,A,2197,Correct
1,relearn,39,153,A,13.946895717552007,31.558083138024106,0.6973447858776004,0.49571321073896224,A,664,Correct
1,relearn,39,154,A,17.99259120324692,47.24722786288549,0.899629560162346,0.74215771978262,A,646,Correct
1,relearn,39,155,B,62.06511999179764,52.97552539500053,3.103255999589882,0.832137607004966,B,1983,Correct
1,relearn,39,156,A,43.243235743046974,71.3309972858913,2.1621617871523484,1.120464685232948,B,6751,Incorrect
1,relearn,39,157,A,68.51801244211646,84.79458553257433,3.425900622105823,1.3319502348666343,A,1061,Correct
1,relearn,39,158,A,24.181058796917732,41.25058610120601,1.2090529398458867,0.6479626912591101,A,2323,Correct
1,relearn,39,159,A,14.820018152634944,41.03376371483478,0.7410009076317472,0.6445568531783218,A,389,Correct
1,relearn,39,160,B,58.86707435358684,28.525392830943815,2.943353717679342,0.44807582279228025,B,2380,Correct
1,relearn,39,161,A,67.39540554582558,81.89858384582207,3.369770277291279,1.2864599467472115,A,4268,Correct
1,relearn,39,162,A,43.513165329458026,64.48392074219748,2.1756582664729014,1.0129110583917702,A,2053,Correct
1,relearn,39,163,A,11.545191568218435,34.97398925756553,0.5772595784109218,0.549370138591481,B,1271,Incorrect
1,relearn,39,164,A,18.454396767534103,36.42325892409869,0.9227198383767052,0.5721352132787365,A,439,Correct
1,relearn,39,165,A,62.91793397217355,82.198122182054,3.145896698608677,1.2911650839300854,B,904,Incorrect
1,relearn,39,166,B,78.19968419897238,65.91885910180822,3.9099842099486186,1.035451017436307,B,2495,Correct
1,relearn,39,167,B,32.97632847085214,16.22360707920989,1.6488164235426068,0.2548398240738658,B,798,Correct
1,relearn,39,168,A,36.35882267847827,45.55873731900294,1.8179411339239135,0.7156349723410339,B,881,Incorrect
1,relearn,39,169,A,41.17305726904894,53.3931269138543,2.058652863452447,0.8386972763237607,A,1125,Correct
1,relearn,39,170,A,66.11211725499581,80.79660122449005,3.3056058627497906,1.2691500442094101,B,2128,Incorrect
1,relearn,39,171,B,72.59302587279943,55.03282022365413,3.629651293639972,0.8644535186047981,B,1512,Correct
1,relearn,39,172,B,60.95542727678293,46.17911546533287,3.0477713638391464,0.7253798494758227,B,2516,Correct
1,relearn,39,173,A,24.018777767346354,53.414937410130946,1.2009388883673175,0.8390398747981299,A,647,Correct
1,relearn,39,174,A,18.92346948966792,40.825957430642106,0.9461734744833961,0.6412926396993743,A,489,Correct
1,relearn,39,175,B,48.10776372289247,37.666954725883365,2.4053881861446236,0.5916711412496727,B,1922,Correct
1,relearn,39,176,B,75.19305004132087,47.67121960779059,3.759652502066044,0.7488177665375031,B,1178,Correct
1,relearn,39,177,B,45.84039923496533,24.871874263664946,2.2920199617482666,0.39068648733869416,B,751,Correct
1,relearn,39,178,A,63.50027105520618,80.83739723840225,3.175013552760309,1.2697908664974216,A,978,Correct
1,relearn,39,179,A,40.148984577686726,71.27134983808435,2.007449228884336,1.1195277453137695,B,2103,Incorrect
1,relearn,39,180,A,63.884566599083996,80.49633290066754,3.1942283299542,1.2644334404082775,A,2693,Correct
1,relearn,39,181,B,77.15144383620833,65.95688857420603,3.8575721918104167,1.0360483829918312,A,1258,Incorrect
1,relearn,39,182,B,44.143401687077144,26.132205359201812,2.207170084353857,0.41048372189284116,B,2392,Correct
1,relearn,39,183,A,56.828749195541235,81.0153715459823,2.841437459777062,1.2725864803835276,A,1226,Correct
1,relearn,39,184,B,35.25730598136982,25.116768553070543,1.762865299068491,0.3945332778412078,B,1582,Correct
1,relearn,39,185,A,35.29267933072291,53.127752479498085,1.7646339665361455,0.8345287844566405,A,814,Correct
1,relearn,39,186,A,33.5168684477319,44.562477071377685,1.675843422386595,0.6999857529660187,A,467,Correct
1,relearn,39,187,B,54.724091764391304,30.79272953133811,2.736204588219565,0.48369106439814646,A,4960,Incorrect
1,relearn,39,188,A,30.30860433649119,51.19067875774911,1.5154302168245595,0.8041013015880984,A,1209,Correct
1,relearn,39,189,B,36.39803459243491,10.851691330737175,1.8199017296217455,0.17045796881833977,B,1299,Correct
1,relearn,39,190,B,80.6996786879522,67.23719928686644,4.03498393439761,1.0561594566378625,A,8574,Incorrect
1,relearn,39,191,B,65.708319817288,53.547464628286555,3.2854159908644,0.8411216074729218,B,578,Correct
1,relearn,39,192,A,39.86775378154993,67.59057951814253,1.9933876890774966,1.0617103403303667,B,766,Incorrect
1,relearn,39,193,B,52.41542537528788,24.707880791574464,2.6207712687643943,0.3881104839029135,A,1850,Incorrect
1,relearn,39,194,B,51.624147269913905,35.62396091328043,2.5812073634956954,0.5595798694846585,B,638,Correct
1,relearn,39,195,B,46.440622249353325,33.9806030672227,2.3220311124676662,0.5337660648026882,B,586,Correct
1,relearn,39,196,B,52.69455175122387,37.17668197269067,2.6347275875611933,0.5839699548512456,B,459,Correct
1,relearn,39,197,A,33.59014830896113,58.75265134179661,1.6795074154480567,0.9228844891715536,A,2000,Correct
1,relearn,39,198,B,52.87562296773866,39.92438702388911,2.643781148386933,0.6271308048666284,B,3728,Correct
1,relearn,39,199,A,62.75233486147479,79.91625230874453,3.1376167430737394,1.255321555777901,A,1752,Correct
1,relearn,39,200,B,51.594142831375635,28.61457934599188,2.5797071415687816,0.44947676129465164,B,2700,Correct
1,relearn,39,201,A,26.36826543948243,39.16034382138572,1.3184132719741215,0.6151292423065791,A,1723,Correct
1,relearn,39,202,B,57.771243635896376,33.39695556012624,2.8885621817948186,0.5245981511997869,B,1963,Correct
1,relearn,39,203,B,43.91411979194427,18.134417268573966,2.1957059895972137,0.28485476034041923,B,2785,Correct
1,relearn,39,204,A,47.99617518757923,79.31609046232988,2.3998087593789617,1.245894235539595,A,1240,Correct
1,relearn,39,205,B,63.95232854804771,43.92852346213341,3.1976164274023855,0.690027632958426,B,704,Correct
1,relearn,39,206,B,32.014877564120084,16.5330375080563,1.6007438782060042,0.25970034588417085,A,1045,Incorrect
1,relearn,39,207,A,39.99884376814765,52.588556907990444,1.9999421884073825,0.8260591202251577,A,1337,Correct
1,relearn,39,208,A,57.717429405844435,86.0930801573499,2.885871470292222,1.352346940736238,B,1770,Incorrect
1,relearn,39,209,A,49.743010284319894,76.03671390877005,2.487150514215995,1.194381909094504,A,701,Correct
1,relearn,39,210,B,77.70068244918306,58.35490293620059,3.8850341224591536,0.916636671826566,B,1016,Correct
1,relearn,39,211,B,64.45561098951296,47.47432717769606,3.222780549475648,0.7457249874778411,B,603,Correct
1,relearn,39,212,B,41.1773052380163,19.957019393184968,2.0588652619008148,0.3134841275658946,A,1929,Incorrect
1,relearn,39,213,A,57.323911911177696,70.46277429951634,2.8661955955588847,1.106826670454581,B,1752,Incorrect
1,relearn,39,214,A,16.408014019229817,42.9497346684821,0.820400700961491,0.674652854540671,A,802,Correct
1,relearn,39,215,B,58.10403961102787,38.66998667312662,2.905201980551394,0.607426730233549,B,1053,Correct
1,relearn,39,216,B,32.292325787005964,17.470377780027746,1.614616289350298,0.27442405244586765,A,693,Incorrect
1,relearn,39,217,B,33.960542063634605,20.51833012719796,1.6980271031817302,0.32230117595767616,B,653,Correct
1,relearn,39,218,B,73.31998931539613,58.383261567376294,3.6659994657698065,0.9170821281634034,B,2489,Correct
1,relearn,39,219,B,40.11885645209859,20.608570838065937,2.0059428226049296,0.323718673729264,A,4604,Incorrect
1,relearn,39,220,A,18.237392015894915,33.49362361951093,0.9118696007947458,0.5261166095257855,A,1023,Correct
1,relearn,39,221,A,31.379088523015945,44.27176963990995,1.5689544261507973,0.6954193313108037,A,536,Correct
1,relearn,39,222,B,79.107371374152,53.69172725871107,3.9553685687075997,0.8433876795725676,B,759,Correct
1,relearn,39,223,B,68.73686247566543,38.118712196203,3.4368431237832713,0.598767330999475,B,2615,Correct
1,relearn,39,224,A,40.043911883290775,67.05494572322249,2.002195594164539,1.0532966243546906,B,2886,Incorrect
1,relearn,39,225,A,61.97267688478627,71.03469839777478,3.0986338442393135,1.1158104331820795,B,1567,Incorrect
1,relearn,39,226,B,65.69767965575325,57.94268592905384,3.284883982787662,0.910161582219881,A,994,Incorrect
1,relearn,39,227,B,38.04862888441602,26.12367151691658,1.902431444220801,0.4103496726116903,B,2746,Correct
1,relearn,39,228,A,36.89953307196214,68.86281118908651,1.844976653598107,1.081694508685876,A,6788,Correct
1,relearn,39,229,B,81.28644961331686,67.28032753978705,4.064322480665843,1.0568369136505502,B,1321,Correct
1,relearn,39,230,A,19.37236449533719,32.44724514036051,0.9686182247668595,0.5096801348109185,A,2369,Correct
1,relearn,39,231,A,37.89552750244128,53.30809241186343,1.894776375122064,0.8373615574899796,B,1925,Incorrect
1,relearn,39,232,A,41.27178505388701,74.13952934588018,2.0635892526943507,1.1645810036681101,B,3869,Incorrect
1,relearn,39,233,A,43.108843419334875,61.42114855516531,2.1554421709667437,0.9648011453797735,B,487,Incorrect
1,relearn,39,234,A,16.729497176316464,38.523245356562846,0.8364748588158233,0.6051217230230747,A,685,Correct
1,relearn,39,235,A,16.297566345696104,36.954686881039514,0.8148783172848053,0.5804828641059242,A,921,Correct
1,relearn,39,236,A,54.8294556425656,74.28582474676121,2.74147278212828,1.1668790064514194,B,6821,Incorrect
1,relearn,39,237,B,56.35907586556601,40.797096354380244,2.8179537932783005,0.6408392909735796,A,1165,Incorrect
1,relearn,39,238,A,56.02829196235051,72.43024220466495,2.8014145981175256,1.137731584039524,B,702,Incorrect
1,relearn,39,239,B,67.1876125452402,49.65865761312228,3.35938062726201,0.780036369722579,B,1373,Correct
1,relearn,39,240,A,59.89720088430626,74.44351087376896,2.994860044215313,1.1693559343423223,A,2333,Correct
1,relearn,39,241,A,27.260024833442944,48.92430844181427,1.3630012416721473,0.768501239913824,A,5595,Correct
1,relearn,39,242,B,69.7750804244127,52.00624905084322,3.488754021220635,0.8169122497944512,B,2335,Correct
1,relearn,39,243,A,55.371013587546074,76.07536648671076,2.768550679377304,1.1949890623690085,B,4575,Incorrect
1,relearn,39,244,B,81.90343309156799,65.17037576419816,4.095171654578399,1.0236938686624562,B,745,Correct
1,relearn,39,245,A,23.000903101299993,34.339418071619946,1.1500451550649997,0.5394023177117491,A,1818,Correct
1,relearn,39,246,A,56.60391772799634,66.98011889862934,2.830195886399817,1.052121247342524,B,3388,Incorrect
1,relearn,39,247,B,58.37659520869151,31.026196340939737,2.918829760434576,0.487358352467654,B,1523,Correct
1,relearn,39,248,B,47.697088583482994,22.716153709077293,2.3848544291741494,0.3568245080512688,B,1111,Correct
1,relearn,39,249,A,17.644582066574397,46.097731277202094,0.88222910332872,0.7241014696380726,A,1243,Correct
1,relearn,39,250,A,21.89612894304812,43.41923140556693,1.094806447152406,0.6820276920412215,A,443,Correct
1,relearn,39,251,B,84.35896392281077,60.179516149615196,4.217948196140538,0.945297629161097,B,1734,Correct
1,relearn,39,252,A,54.202968909697276,62.989044675030485,2.710148445484864,0.9894296000385753,B,2025,Incorrect
1,relearn,39,253,A,25.293600719765216,37.74924124756204,1.2646800359882606,0.5929636949096485,A,2145,Correct
1,relearn,39,254,B,45.90679033234245,30.39111431590271,2.2953395166171227,0.4773825073462377,B,2582,Correct
1,relearn,39,255,A,38.47040462152859,58.60345708929158,1.9235202310764294,0.9205409513334156,A,3306,Correct
1,relearn,39,256,A,57.97587149538694,85.17485615629023,2.898793574769347,1.337923511855844,A,1439,Correct
1,relearn,39,257,A,58.121437634536754,80.28276890521539,2.9060718817268376,1.2610787850123588,A,731,Correct
1,relearn,39,258,A,44.150148247077865,62.1291155843113,2.2075074123538934,0.9759218654685176,B,1485,Incorrect
1,relearn,39,259,B,67.08057959031424,34.13476255611426,3.354028979515712,0.5361875963916025,B,1054,Correct
1,relearn,39,260,B,79.07382795469155,62.37954673632096,3.9536913977345773,0.9798556288054355,A,1382,Incorrect
1,relearn,39,261,A,34.31137704476351,49.90194830030045,1.7155688522381753,0.7838579709002077,A,3734,Correct
1,relearn,39,262,A,30.992875853516445,40.69057523237289,1.5496437926758222,0.6391660611018273,A,585,Correct
1,relearn,39,263,A,26.89689785503336,48.689722361910725,1.3448448927516679,0.7648163703875269,A,440,Correct
1,relearn,39,264,A,48.97247054767644,66.90395338105591,2.448623527383822,1.0509248421901962,B,2265,Incorrect
1,relearn,39,265,A,36.566613673728966,57.65164169200984,1.8283306836864484,0.9055898700350458,A,504,Correct
1,relearn,39,266,B,48.40033459810603,24.44780794882338,2.4200167299053015,0.38402526924198843,B,774,Correct
1,relearn,39,267,A,37.5812481199858,46.10096901445122,1.87906240599929,0.7241523278958533,A,1994,Correct
1,relearn,39,268,A,39.05920106760078,66.70978023145737,1.952960053380039,1.0478747774886805,A,2676,Correct
1,relearn,39,269,A,53.94374871818981,65.02450341110244,2.6971874359094903,1.0214025110982194,B,4038,Incorrect
1,relearn,39,270,B,84.62516844462209,66.84451796016728,4.231258422231105,1.0499912327820626,A,390,Incorrect
1,relearn,39,271,A,58.911885945471134,67.82458343214621,2.9455942972735567,1.0653860652160927,A,2085,Correct
1,relearn,39,272,A,44.43959515915119,66.21555532133884,2.2219797579575595,1.0401115107544332,A,994,Correct
1,relearn,39,273,B,68.97736577774944,36.19258878344663,3.448868288887472,0.5685118551823615,B,877,Correct
1,relearn,39,274,A,38.44238393089214,70.07600376939692,1.922119196544607,1.1007512931743402,A,3234,Correct
1,relearn,39,275,A,15.209948517061086,40.20724634353712,0.7604974258530544,0.6315739486696564,A,835,Correct
1,relearn,39,276,A,25.95724191107535,51.82179497602847,1.2978620955537676,0.8140148519626375,A,379,Correct
1,relearn,39,277,B,78.63071126442429,59.85519695618979,3.931535563221215,0.9402032351836801,B,1500,Correct
1,relearn,39,278,B,63.03410324735261,46.62403455285183,3.15170516236763,0.7323686221597799,B,731,Correct
1,relearn,39,279,B,55.16835512199634,31.861317300220605,2.758417756099817,0.5004764018203323,B,937,Correct
1,relearn,39,280,A,29.765586981253264,46.826433314896235,1.4882793490626631,0.7355478944794517,A,1146,Correct
1,relearn,39,281,B,80.39300187767623,54.44990152250541,4.019650093883811,0.8552970530589533,B,1207,Correct
1,relearn,39,282,B,69.91438110010924,56.851084904458446,3.495719055005462,0.8930147534222813,B,583,Correct
1,relearn,39,283,A,44.9950297525205,61.53268418831902,2.249751487626025,0.9665531430084191,B,1251,Incorrect
1,relearn,39,284,A,23.968687865346762,45.14763068323339,1.1984343932673382,0.7091773244071558,A,2054,Correct
1,relearn,39,285,B,43.80070829105024,20.65469503731214,2.190035414552512,0.3244431909567869,A,708,Incorrect
1,relearn,39,286,A,33.352296485447994,48.98955225945754,1.6676148242723996,0.7695260874048253,A,1430,Correct
1,relearn,39,287,A,35.53815487782783,45.89934050077489,1.7769077438913914,0.7209851546092542,A,1788,Correct
1,relearn,39,288,B,50.43036025507382,35.21733695113674,2.521518012753691,0.5531926352234376,B,934,Correct
1,relearn,39,289,A,14.409549100963112,35.69522804070027,0.7204774550481556,0.5606993309043818,A,1018,Correct
1,relearn,39,290,B,39.86974003226675,15.866276856781148,1.9934870016133375,0.24922689406542706,B,6425,Correct
1,relearn,39,291,B,43.42145829540178,21.798888707282902,2.1710729147700887,0.3424161430961073,B,608,Correct
1,relearn,39,292,A,49.71739215906179,77.38304772993061,2.4858696079530893,1.2155300713036916,B,3176,Incorrect
1,relearn,39,293,A,17.684621462082358,37.875453872994854,0.884231073104118,0.5949462381938986,A,7721,Correct
1,relearn,39,294,B,63.64592199131309,53.264978794001536,3.182296099565655,0.8366843303642568,B,10996,Correct
1,relearn,39,295,B,62.806787160422246,30.30145277009636,3.1403393580211123,0.47597410707816407,B,740,Correct
1,relearn,39,296,B,58.25804599248652,28.175639302010868,2.912902299624326,0.442581907206966,B,477,Correct
1,relearn,39,297,B,59.69203246143294,45.732268964316724,2.984601623071647,0.7183608010514495,B,411,Correct
1,relearn,39,298,A,68.69464528097316,84.28640496144592,3.4347322640486584,1.323967753121864,A,2473,Correct
1,relearn,39,299,A,34.84602457226736,51.82792315602713,1.7423012286133681,0.8141111131889558,A,2846,Correct
1,relearn,39,300,B,33.49710211013358,11.655113895364611,1.6748551055066792,0.1830781009521489,A,1258,Correct
1,relearn,39,301,A,43.50817427633505,50.3639349058017,2.1754087138167524,0.7911148395297058,A,1369,Correct
1,relearn,39,302,A,31.67658692834157,61.15536703696815,1.5838293464170787,0.9606262590546327,A,930,Correct
1,relearn,39,303,B,42.93132763180428,13.945379507274051,2.1465663815902136,0.21905350905786902,A,2228,Correct
1,relearn,39,304,A,16.22473786665957,30.849523213462408,0.8112368933329784,0.4845831774708065,A,619,Correct
1,relearn,39,305,A,37.39774123482026,60.59775822256995,1.869887061741013,0.9518673602801812,A,4965,Correct
1,relearn,39,306,B,85.25370207883107,67.36727706188398,4.262685103941553,1.0582027135498144,B,4202,Incorrect
1,relearn,39,307,B,67.95595008847303,42.995091120460216,3.397797504423652,0.6753653120223078,B,8661,Correct
1,relearn,39,308,B,85.63120710934068,60.13007711669766,4.281560355467033,0.9445210426480255,B,1353,Correct
1,relearn,39,309,B,77.18028303307611,58.25078402130074,3.8590141516538052,0.9150011757358205,B,610,Incorrect
1,relearn,39,310,A,20.924073407132703,43.19568018555565,1.0462036703566353,0.6785161576887792,A,5866,Incorrect
1,relearn,39,311,B,75.42883539729942,55.20630977721571,3.7714417698649707,0.8671786861395161,B,7020,Incorrect
1,relearn,39,312,A,53.2617294025601,73.69000376130114,2.6630864701280053,1.1575198722975395,A,8513,Correct
1,relearn,39,313,A,52.30382118755511,66.8233152041244,2.6151910593777554,1.0496581806689618,A,808,Incorrect
1,relearn,39,314,A,56.0747817069944,78.60534942352407,2.80373908534972,1.2347299414090096,A,768,Incorrect
1,relearn,39,315,A,48.130492721105625,73.65239654917612,2.406524636055281,1.1569291395908696,B,916,Incorrect
1,relearn,39,316,A,17.06026165516061,36.714993626827074,0.8530130827580306,0.57671777127318,A,995,Incorrect
1,relearn,39,317,B,78.45005460419735,50.78878184568724,3.9225027302098674,0.7977883196559286,A,3974,Correct
1,relearn,39,318,A,15.66132082408257,33.294242340768875,0.7830660412041284,0.5229847357229886,A,11504,Correct
1,relearn,39,319,B,50.14902349587495,22.710001269150276,2.5074511747937476,0.3567278657508869,B,17607,Correct
1,relearn,39,320,A,26.986115589770414,39.28202189660601,1.3493057794885206,0.6170405570426541,A,1911,Correct
1,relearn,39,321,B,57.400437341549896,26.945511908928758,2.870021867077495,0.4232591113015343,B,534,Incorrect
1,relearn,39,322,A,41.930310902102875,54.43101596467931,2.0965155451051434,0.8550003994103262,A,4613,Correct
1,relearn,39,323,A,19.52007092743897,42.23693286144356,0.9760035463719484,0.6634561899383821,A,714,Correct
1,relearn,39,324,A,21.46800678813368,34.31234531203985,1.073400339406684,0.5389770597987028,A,657,Incorrect
1,relearn,39,325,B,60.303385840776805,39.31640803049152,3.0151692920388404,0.6175806931706547,B,3371,Incorrect
1,relearn,39,326,B,75.45966251154036,57.023001262050414,3.772983125577018,0.8957152092524955,A,3220,Incorrect
1,relearn,39,327,A,27.740635595029616,56.45674802328655,1.3870317797514808,0.8868205241776355,A,1612,Correct
1,relearn,39,328,A,32.66564567194565,60.304897759060566,1.6332822835972822,0.9472671188767412,A,1587,Incorrect
1,relearn,39,329,B,55.64863110716095,37.84143272031683,2.7824315553580474,0.5944118351772989,B,1859,Correct
1,relearn,39,330,A,55.970372996937996,84.6494788997826,2.7985186498469,1.329670905208806,A,1317,Correct
1,relearn,39,331,B,64.32306173012726,53.47742492004516,3.2161530865063632,0.8400214263085679,B,1368,Correct
1,relearn,39,332,A,32.45467570653953,52.92913674503721,1.6227337853269768,0.8314089357952923,A,1186,Incorrect
1,relearn,39,333,A,54.124148904490376,74.96414841242525,2.706207445224519,1.1775340896754505,B,706,Incorrect
1,relearn,39,334,B,42.10196599745498,16.611222323996582,2.105098299872749,0.2609284701010721,B,874,Incorrect
1,relearn,39,335,A,58.8590371851853,73.31696213474753,2.942951859259265,1.151660148130219,A,2472,Incorrect
1,relearn,39,336,B,49.31879656342713,32.68624976846316,2.4659398281713565,0.5134344107300247,B,2035,Correct
1,relearn,39,337,A,63.04187966835006,77.22357974810427,3.1520939834175032,1.2130251541027495,A,3994,Correct
1,relearn,39,338,B,62.85030863294989,32.41512822727639,3.1425154316474946,0.5091756435199132,B,4946,Correct
1,relearn,39,339,A,50.19015119920575,57.31176097749327,2.5095075599602876,0.9002510362559352,A,4573,Incorrect
1,relearn,39,340,B,71.66607489493951,43.09336397505928,3.583303744746976,0.6769089784125865,A,1488,Correct
1,relearn,39,341,B,64.79083945633414,33.75888246192391,3.239541972816707,0.5302832856789073,B,3860,Incorrect
1,relearn,39,342,B,51.30698839587682,32.10521090599407,2.565349419793841,0.5043074736211094,A,863,Correct
1,relearn,39,343,B,73.47088702075666,61.83156290247472,3.673544351037833,0.971247918871949,A,1406,Incorrect
1,relearn,39,344,B,65.87136929715443,50.9470246690786,3.2935684648577217,0.8002739921131766,B,1554,Incorrect
1,relearn,39,345,B,72.25338518032375,49.869497909613116,3.612669259016187,0.7833482413552605,A,645,Correct
1,relearn,39,346,B,56.974655081193355,31.558479298193546,2.8487327540596676,0.4957194336083521,B,883,Correct
1,relearn,39,347,B,43.54484980097428,27.547438134342705,2.177242490048714,0.43271414634035177,A,927,Correct
1,relearn,39,348,B,54.698179736638586,39.655231910956815,2.7349089868319294,0.6229029262393073,B,1763,Correct
1,relearn,39,349,B,54.86659350763084,23.063061878994716,2.743329675381542,0.3622737288416831,B,1642,Correct
1,relearn,39,350,B,83.48984312708629,68.5976303902486,4.174492156354314,1.0775290584383646,A,1339,Incorrect
1,relearn,39,351,A,52.01789583740848,81.53844128453177,2.600894791870424,1.2808028406232386,A,1289,Correct
1,relearn,39,352,B,69.25984526452545,44.66406251109873,3.4629922632262726,0.7015814533217152,B,997,Incorrect
1,relearn,39,353,B,50.0808595237844,30.984485205482166,2.50404297618922,0.48670315548402204,B,1272,Incorrect
1,relearn,39,354,B,79.48149423296807,65.74187722705284,3.974074711648404,1.0326709926485567,A,1927,Correct
1,relearn,39,355,A,39.616921965764305,47.59235862267111,1.9808460982882152,0.747579021079972,B,851,Incorrect
1,relearn,39,356,A,51.305071803160715,64.61945215454966,2.565253590158036,1.0150399808386519,A,660,Incorrect
1,relearn,39,357,B,71.55018755545302,57.31684851277829,3.577509377772651,0.9003309510733168,B,827,Incorrect
1,relearn,39,358,A,33.043929183976516,60.66996156627189,1.6521964591988256,0.9530015277508743,A,2983,Incorrect
1,relearn,39,359,A,36.7255728960357,64.27186409177739,1.8362786448017852,1.0095800803162474,B,658,Incorrect
1,relearn,39,360,B,76.37887667501448,60.71911320962461,3.818943833750724,0.9537735999592182,A,2051,Incorrect
1,relearn,39,361,B,61.87114085262588,50.94929534083609,3.0935570426312937,0.8003096597417366,B,540,Correct
1,relearn,39,362,B,47.12441139414766,26.913780427364035,2.356220569707383,0.4227606743546781,A,1763,Correct
1,relearn,39,363,B,56.207411059419556,35.628578013757675,2.8103705529709777,0.5596523947293596,A,730,Correct
1,relearn,39,364,B,82.45271509395349,64.23696137961416,4.122635754697674,1.0090318297956355,B,693,Correct
1,relearn,39,365,A,25.800748151702074,49.418158951062495,1.2900374075851035,0.7762586255729531,A,748,Correct
1,relearn,39,366,A,46.142295500904176,71.78958131208995,2.307114775045209,1.1276681062717446,B,1091,Correct
1,relearn,39,367,A,24.091979136725115,42.535067249432615,1.2045989568362558,0.6681392739538267,A,1030,Correct
1,relearn,39,368,A,41.53178002740754,72.52083419403337,2.076589001370377,1.1391545996808936,B,1936,Correct
1,relearn,39,369,A,34.65844016856706,57.64464533980791,1.7329220084283532,0.9054799715916483,A,1004,Correct
1,relearn,39,370,A,60.45905969313142,80.92419073108948,3.022952984656571,1.2711542154924498,A,2272,Correct
1,relearn,39,371,A,47.63630230446486,71.19727604995764,2.381815115223243,1.1183641969707572,A,1341,Incorrect
1,relearn,39,372,B,42.150437100172084,18.09188350949557,2.1075218550086046,0.2841866416151681,B,661,Incorrect
1,relearn,39,373,A,39.02535397082549,52.556063559144896,1.9512676985412747,0.8255487158950392,A,521,Incorrect
1,relearn,39,374,B,34.836057775996665,19.992441108360875,1.7418028887998331,0.3140405305667655,A,1780,Incorrect
1,relearn,39,375,A,34.48556584042501,57.82389732164875,1.7242782920212505,0.9082956551381112,A,838,Correct
1,relearn,39,376,A,15.206589486268104,44.831133092039394,0.7603294743134051,0.7042057918702861,A,701,Incorrect
1,relearn,39,377,B,52.639307731873096,43.16796049201153,2.631965386593655,0.6780807377607893,B,1112,Correct
1,relearn,39,378,B,72.33613460945962,44.81035197408251,3.616806730472981,0.7038793628327525,B,936,Correct
1,relearn,39,379,B,74.6879540245272,60.743180616531994,3.73439770122636,0.9541516499028742,A,1422,Incorrect
1,relearn,39,380,B,42.51044581055477,31.098082682860394,2.1255222905277384,0.48848754048601084,A,984,Correct
1,relearn,39,381,A,40.270318043401176,58.58313045258148,2.0135159021700586,0.9202216612706124,A,950,Incorrect
1,relearn,39,382,B,46.117265615732336,38.87215027747634,2.3058632807866166,0.6106023087047904,B,822,Correct
1,relearn,39,383,B,62.18914946821067,34.76800522212863,3.1094574734105334,0.5461345489290543,B,760,Correct
1,relearn,39,384,A,15.679276408691063,35.51716919222498,0.7839638204345531,0.5579023890529986,A,4254,Correct
1,relearn,39,385,B,41.87239272349166,22.287667716978394,2.0936196361745827,0.3500938658265486,A,1411,Correct
1,relearn,39,386,A,45.3040896873193,56.7675643781108,2.265204484365965,0.8917028160622926,B,932,Correct
1,relearn,39,387,B,87.63247431285888,66.05195179541097,4.381623715642944,1.0375416325786513,B,1180,Incorrect
1,relearn,39,388,A,52.12056847354935,74.00814663203255,2.6060284236774676,1.1625172488249484,B,5427,Correct
1,relearn,39,389,A,29.6181703432226,43.8258586649604,1.48090851716113,0.6884149780955208,A,4841,Incorrect
1,relearn,39,390,A,33.59289336717135,47.02316630317783,1.6796446683585673,0.738638169032973,A,873,Incorrect
1,relearn,39,391,A,67.9967894548301,85.26896480411354,3.3998394727415047,1.3394017670390486,A,1708,Correct
1,relearn,39,392,B,64.0356444467047,39.97041771444625,3.2017822223352344,0.6278538532630984,B,683,Incorrect
1,relearn,39,393,B,86.90474805192764,65.93738960262633,4.345237402596382,1.0357420938624944,A,903,Correct
1,relearn,39,394,B,78.12863450137144,52.55540438349837,3.906431725068572,0.8255383615881965,B,1509,Incorrect
1,relearn,39,395,A,36.564417580624365,57.94421672899085,1.8282208790312182,0.9101856279690622,A,883,Incorrect
1,relearn,39,396,A,43.63383646751487,65.68407912286511,2.1816918233757434,1.0317631021510187,B,580,Correct
1,relearn,39,397,A,61.90192744196855,88.60959493488157,3.0950963720984275,1.3918762624249565,A,981,Incorrect
1,relearn,39,398,B,57.7964756711345,40.58968943899986,2.889823783556725,0.6375813507652659,B,683,Correct
1,relearn,39,399,B,71.0969483979847,54.815769329527335,3.554847419899235,0.8610440911325787,B,536,Correct
1,relearn,39,400,A,38.23156828856758,56.33826252710001,1.9115784144283792,0.8849593583557527,A,2272,Correct
1,relearn,39,401,A,36.75843944197411,52.611047938501656,1.8379219720987054,0.8264124085062862,A,759,Correct
1,relearn,39,402,B,61.43194933353588,33.522252960802,3.0715974666767942,0.5265663181671714,B,785,Correct
1,relearn,39,403,B,69.14162690010932,43.176355714200945,3.4570813450054656,0.6782126096025668,B,5748,Incorrect
1,relearn,39,404,B,64.50308446922304,49.72573837857819,3.225154223461152,0.7810900719223464,A,1775,Correct
1,relearn,39,405,A,29.677012722962136,41.910560958532955,1.483850636148107,0.6583295520757716,A,1146,Correct
1,relearn,39,406,A,58.71536756931104,69.80232525481135,2.935768378465552,1.0964523611200032,B,1820,Correct
1,relearn,39,407,A,35.25930809072628,58.15070815531422,1.762965404536314,0.9134291877088961,A,579,Correct
1,relearn,39,408,B,37.61282220973462,21.53709280229685,1.8806411104867309,0.338303862636887,B,855,Incorrect
1,relearn,39,409,B,69.78518098013947,50.8119749515421,3.4892590490069733,0.798152636110766,A,1498,Incorrect
1,relearn,39,410,B,55.799021659408105,43.75180863793628,2.7899510829704055,0.6872518029910354,B,1404,Incorrect
1,relearn,39,411,A,19.160706513394228,48.88125358124743,0.9580353256697114,0.7678249357455333,A,725,Incorrect
1,relearn,39,412,A,53.15269216791706,62.12928346750123,2.657634608395853,0.9759245025714983,B,1059,Correct
1,relearn,39,413,A,21.53140108118565,37.76738516576051,1.0765700540592824,0.5932486989102468,A,3083,Correct
1,relearn,39,414,A,64.75747613899578,88.16801400079069,3.237873806949789,1.3849399253324302,A,2103,Incorrect
1,relearn,39,415,B,64.98465077273283,46.05166490362411,3.2492325386366416,0.7233778607340221,B,1077,Incorrect
1,relearn,39,416,B,37.55944098290608,24.711222373187567,1.8779720491453042,0.38816297334414895,A,1145,Correct
1,relearn,39,417,B,56.93142994423174,31.43551047054379,2.846571497211587,0.4937878437805269,B,867,Correct
1,relearn,39,418,A,40.066516482913904,58.67261748710666,2.003325824145695,0.9216273203218915,A,655,Correct
1,relearn,39,419,A,54.58557669094826,67.95824022367796,2.729278834547413,1.067485541187985,B,770,Incorrect
1,relearn,39,420,A,40.359691645225254,56.87759034894309,2.017984582261263,0.8934310999706467,A,406,Correct
1,relearn,39,421,B,85.46407887831768,66.34072378476543,4.273203943915884,1.0420776523802435,B,530,Incorrect
1,relearn,39,422,A,21.303196713503336,43.986955148456175,1.0651598356751668,0.6909454757408683,A,563,Correct
1,relearn,39,423,B,60.25794686180353,46.53645353687228,3.0128973430901764,0.7309929027778035,B,601,Correct
1,relearn,39,424,B,75.31911562802934,56.99774595345366,3.765955781401467,0.8953184997927369,B,1226,Correct
1,relearn,39,425,B,86.2007760310596,65.6047520093958,4.31003880155298,1.0305170347664903,B,869,Incorrect
1,relearn,39,426,B,48.79258517332566,41.96965156089363,2.439629258666283,0.6592577450871341,A,518,Incorrect
1,relearn,39,427,A,44.06471428953499,53.466246464969636,2.2032357144767496,0.8398458355468492,B,444,Incorrect
1,relearn,39,428,B,69.0285618311382,46.789449692104185,3.45142809155691,0.7349669570911186,A,111,Incorrect
1,relearn,39,429,B,48.692685627919516,31.64621889225447,2.434634281395976,0.49709764392900585,B,954,Correct
1,relearn,39,430,B,54.56979976457728,41.76946288645493,2.7284899882288642,0.6561131887423918,A,2092,Incorrect
1,relearn,39,431,A,47.77606149319646,76.8374501462254,2.388803074659823,1.2069598444997685,A,789,Incorrect
1,relearn,39,432,B,73.9793987244859,49.4719348431956,3.6989699362242954,0.777103335311281,B,1168,Correct
1,relearn,39,433,B,85.31328781639255,59.571666663640485,4.265664390819627,0.9357495517629646,A,1149,Incorrect
1,relearn,39,434,B,73.4562501077802,42.76896424101189,3.67281250538901,0.6718133193060376,B,617,Correct
1,relearn,39,435,B,72.68296331566172,55.01656168060662,3.634148165783086,0.8641981300078174,B,1003,Correct
1,relearn,39,436,B,36.08823019075088,19.756072382954123,1.804411509537544,0.31032765931038436,A,932,Incorrect
1,relearn,39,437,B,50.42456098955178,20.51335752455227,2.521228049477589,0.3222230664979716,B,652,Incorrect
1,relearn,39,438,A,33.03800812389517,58.580622978306074,1.6519004061947584,0.9201822739567989,A,3131,Incorrect
1,relearn,39,439,A,50.31253144617252,80.1108888122897,2.515626572308626,1.2583788988261904,B,921,Incorrect
1,relearn,39,440,A,63.44315345877946,83.37479318672246,3.1721576729389733,1.309648188849878,A,436,Correct
1,relearn,39,441,A,29.573171174518436,61.0551260509882,1.478658558725922,0.9590516773289167,A,726,Correct
1,relearn,39,442,B,59.98458628743536,42.89764205772863,2.9992293143717683,0.6738345857244241,B,714,Correct
1,relearn,39,443,B,78.92837447608089,57.410090927514375,3.9464187238040442,0.9017955994990059,B,4118,Correct
1,relearn,39,444,B,41.242856095304916,21.984318005042034,2.0621428047652457,0.34532885969410937,A,703,Correct
1,relearn,39,445,A,62.92284108800564,74.16797403419561,3.146142054400282,1.1650278117873372,B,1308,Correct
1,relearn,39,446,B,55.243955297341785,29.471639877759657,2.7621977648670897,0.4629394366460686,A,1583,Correct
1,relearn,39,447,B,47.188206913487264,17.740167542466924,2.359410345674363,0.2786619001243309,A,1537,Incorrect
1,relearn,39,448,A,60.5935707275452,72.61682534203722,3.0296785363772596,1.1406624251077864,B,3207,Incorrect
1,relearn,39,449,B,70.83181037885447,45.75103280144345,3.5415905189427237,0.718655542715802,A,993,Incorrect
1,relearn,39,450,B,52.5512588081143,42.061147665017366,2.6275629404057153,0.6606949625298703,B,740,Incorrect
1,relearn,39,451,B,59.30733379535342,36.6941774408149,2.965366689767671,0.576390791387922,A,1774,Incorrect
1,relearn,39,452,B,43.10993408341555,16.4534626798739,2.155496704170778,0.2584503874060284,A,2253,Incorrect
1,relearn,39,453,A,56.17913180683797,74.79981380207235,2.8089565903418987,1.1749527276523746,A,661,Correct
1,relearn,39,454,B,42.647018605754006,34.62232187833895,2.1323509302877004,0.5438461603160542,A,795,Correct
1,relearn,39,455,B,62.674379961333806,32.035737011038265,3.13371899806669,0.5032161802310623,B,1525,Incorrect
1,relearn,39,456,A,59.794612087436406,71.16685710635255,2.9897306043718204,1.1178863773219587,A,1452,Correct
1,relearn,39,457,A,64.04925521141622,79.11712241725202,3.202462760570811,1.2427688527960166,B,4675,Incorrect
1,relearn,39,458,A,43.3756218374575,69.65179474720378,2.168781091872875,1.0940878334357977,A,1348,Correct
1,relearn,39,459,B,66.43697740049117,33.92257948838487,3.3218488700245588,0.5328546325576285,B,728,Correct
1,relearn,39,460,A,56.89328406142482,73.75285940575574,2.844664203071241,1.1585072064518156,B,3217,Incorrect
1,relearn,39,461,A,59.946351376134594,71.03067411955804,2.9973175688067295,1.115747219967671,A,624,Correct
1,relearn,39,462,B,76.55090027225219,64.89473825478191,3.8275450136126095,1.0193641647892768,B,1842,Correct
1,relearn,39,463,B,65.05478805539904,37.75613416595635,3.2527394027699525,0.5930719686185953,B,834,Correct
1,relearn,39,464,B,72.05898707163306,61.82560362248863,3.6029493535816526,0.9711543107208238,B,480,Incorrect
1,relearn,39,465,A,34.389984606412725,50.3399475459949,1.7194992303206362,0.7907380469629656,A,455,Correct
1,relearn,39,466,B,33.68294416880051,21.656762781768492,1.6841472084400255,0.3401836342787037,A,416,Correct
1,relearn,39,467,A,55.78823500912399,80.15656406105062,2.7894117504561997,1.2590963639559813,B,759,Incorrect
1,relearn,39,468,A,42.41797254796669,56.003030324745055,2.1208986273983346,0.8796935432349274,A,3486,Incorrect
1,relearn,39,469,B,58.580279666134146,32.03068010698321,2.9290139833067075,0.503136746567916,B,6247,Correct
1,relearn,39,470,B,75.42041318136968,58.339389101728244,3.771020659068484,0.9163929810845294,B,1985,Incorrect
1,relearn,39,471,A,17.28609774385408,48.08892569906316,0.8643048871927038,0.7553790784760112,A,649,Correct
1,relearn,39,472,B,51.15462477306209,31.5366491883913,2.5577312386531044,0.4953765270454431,B,1573,Incorrect
1,relearn,39,473,A,60.93289868474126,80.37162618932415,3.046644934237063,1.262474551967229,A,1988,Correct
1,relearn,39,474,A,51.38557079680773,73.42622420003713,2.5692785398403863,1.1533764326383686,A,1626,Correct
1,relearn,39,475,A,39.04698505562792,55.35436201519559,1.952349252781396,0.8695042852554418,A,2371,Correct
1,relearn,39,476,B,50.28748682784872,36.696683674260534,2.5143743413924358,0.5764301592108271,B,1951,Incorrect
1,relearn,39,477,A,24.823254512647907,36.043425965829,1.2411627256323954,0.5661688111222799,A,1040,Incorrect
1,relearn,39,478,A,58.715604083809524,77.42977317771175,2.9357802041904764,1.2162640329211163,B,4538,Incorrect
1,relearn,39,479,B,76.71306668326193,48.49648343410092,3.835653334163096,0.7617809804075528,B,2043,Incorrect
1,relearn,39,480,A,42.43986233908393,65.37609197261658,2.1219931169541963,1.0269252513079146,A,1790,Incorrect
1,relearn,39,481,A,62.479735996583806,72.27220908451277,3.1239867998291904,1.135249205593054,B,1899,Incorrect
1,relearn,39,482,B,59.12034020150983,28.32001457018929,2.956017010075492,0.4448497486163129,A,1854,Incorrect
1,relearn,39,483,B,64.33418824716088,53.75224254435134,3.2167094123580444,0.8443382514565545,B,4210,Incorrect
1,relearn,39,484,B,64.10216009626778,52.654763980148374,3.205108004813389,0.8270990984826929,B,7351,Correct
1,relearn,39,485,B,65.35423310093233,46.77647553881996,3.2677116550466168,0.7347631595678972,B,1264,Incorrect
1,relearn,39,486,B,49.20702018775023,37.245194584310994,2.4603510093875114,0.5850461484379688,B,1574,Incorrect
1,relearn,39,487,B,55.720358441529555,48.49160461258127,2.786017922076478,0.7617043440583312,A,463,Correct
1,relearn,39,488,B,43.2110659568446,19.91602244525648,2.16055329784223,0.31284014901373597,A,1963,Incorrect
1,relearn,39,489,B,62.46274359913677,34.30988394671829,3.1231371799568386,0.5389383967626428,B,941,Correct
1,relearn,39,490,B,66.21104918075231,42.15012432361627,3.3105524590376154,0.6620926046148465,B,840,Incorrect
1,relearn,39,491,B,63.639463552602166,35.040980158863036,3.181973177630108,0.550422429208349,B,901,Incorrect
1,relearn,39,492,A,19.873617133507047,33.81079777207985,0.9936808566753524,0.531098769463881,A,997,Correct
1,relearn,39,493,A,57.78865140777652,77.93433809273758,2.889432570388826,1.2241897200726375,B,1318,Incorrect
1,relearn,39,494,A,60.548172649796754,78.37639911002738,3.0274086324898377,1.231133598294418,A,580,Incorrect
1,relearn,39,495,A,67.15756328094693,86.99654546139361,3.3578781640473467,1.3665385405460229,A,806,Incorrect
1,relearn,39,496,A,62.08591481996204,71.48575684809617,3.1042957409981025,1.1228956427514258,B,600,Correct
1,relearn,39,497,B,43.28979019147208,19.757053029212038,2.1644895095736043,0.31034306326578254,A,8276,Correct
1,relearn,39,498,B,61.51711409266376,49.112495150741616,3.075855704633188,0.771457269825171,B,1066,Incorrect
1,relearn,39,499,A,39.527911622096134,55.262628782977686,1.9763955811048066,0.8680633430133128,A,1614,Correct
1,relearn,39,500,B,51.457644431156,30.248507237550637,2.5728822215577996,0.4751424405977338,B,1999,Incorrect
1,relearn,39,501,A,26.538413694182143,43.674872829330695,1.3269206847091073,0.6860432981354688,A,743,Correct
1,relearn,39,502,A,32.63755704770955,41.15761552887511,1.6318778523854776,0.6465023129239362,A,305,Correct
1,relearn,39,503,A,27.253473886674144,47.87718875959088,1.3626736943337072,0.7520531224083126,A,387,Incorrect
1,relearn,39,504,B,49.846315677282,36.07415270438756,2.4923157838641,0.5666514656029016,B,1034,Correct
1,relearn,39,505,B,54.65725925191388,42.88543680444531,2.7328629625956937,0.6736428660541736,B,1490,Incorrect
1,relearn,39,506,A,60.905571212720346,84.56580249584172,3.0452785606360173,1.3283565193293085,A,371,Incorrect
1,relearn,39,507,A,60.15695756501973,81.48427334005585,3.0078478782509865,1.2799519725411106,B,536,Correct
1,relearn,39,508,B,32.453038380494036,11.079205251836708,1.6226519190247017,0.17403174913391828,A,558,Correct
1,relearn,39,509,B,75.9141588520225,59.837207515177596,3.795707942601125,0.9399206577050495,B,1360,Incorrect
1,relearn,39,510,B,73.35015319622673,45.564552789044335,3.6675076598113368,0.71572632153083,A,395,Correct
1,relearn,39,511,A,36.59532686268278,58.57629293248016,1.829766343134139,0.9201142577560171,B,1801,Incorrect
1,relearn,39,512,A,27.234364479875616,45.897629338246624,1.3617182239937806,0.7209582757311149,A,561,Incorrect
1,relearn,39,513,A,24.644253692089805,42.82612478954833,1.2322126846044903,0.6727111951028238,B,442,Incorrect
1,relearn,39,514,B,80.13426419844633,65.11800204947585,4.006713209922316,1.022871184275392,A,447,Incorrect
1,relearn,39,515,A,37.85821449290219,61.03077433363665,1.8929107246451096,0.958669161447247,B,1424,Correct
1,relearn,39,516,A,47.317023479350155,59.957916924636415,2.3658511739675077,0.9418167566749244,A,677,Incorrect
1,relearn,39,517,B,62.81895779010758,42.433430201532694,3.1409478895053793,0.6665427629387519,B,550,Incorrect
1,relearn,39,518,A,33.83104700308765,65.04089075644337,1.6915523501543823,1.021659922916894,B,999,Incorrect
1,relearn,39,519,B,74.61943383310035,54.017173888073124,3.730971691655017,0.8484997832722646,B,729,Correct
1,relearn,39,520,B,88.10208389709707,61.85306775734637,4.405104194854854,0.9715857163423554,B,333,Correct
1,relearn,39,521,B,76.4268817216246,44.56136142840765,3.8213440860812296,0.6999682284872253,B,540,Correct
1,relearn,39,522,B,52.685894936375774,45.65125482830012,2.634294746818789,0.7170882339787161,A,948,Correct
1,relearn,39,523,A,21.046121063528513,48.741890643888965,1.0523060531764257,0.7656358278445933,A,721,Correct
1,relearn,39,524,A,47.223227757024134,72.26191170046697,2.3611613878512063,1.1350874546627066,A,1228,Correct
1,relearn,39,525,A,37.933220763897424,53.32202718510066,1.8966610381948712,0.8375804443961373,A,899,Correct
1,relearn,39,526,B,62.21672249894297,49.9489828979583,3.110836124947149,0.7845967886325401,B,1548,Incorrect
1,relearn,39,527,A,64.03035301048304,82.03977339946857,3.2015176505241523,1.288677747069709,B,866,Correct
1,relearn,39,528,B,70.11306282372863,48.445253345734194,3.505653141186431,0.7609762600612745,B,1014,Correct
1,relearn,39,529,B,76.67661786442233,53.75626661513685,3.8338308932211165,0.8444014614126408,B,1663,Incorrect
1,relearn,39,530,B,71.60769496502525,60.6806526135712,3.5803847482512623,0.9531694623291478,A,628,Incorrect
1,relearn,39,531,A,42.138807232041046,72.09854563698461,2.106940361602052,1.1325213065382962,B,505,Incorrect
1,relearn,39,532,B,68.82290299999781,42.87074414265653,3.441145149999891,0.673412074262487,B,725,Correct
1,relearn,39,533,B,48.67726221027031,25.526161158261687,2.4338631105135153,0.4009640018457202,B,740,Correct
1,relearn,39,534,A,40.83443803844899,58.67006988185388,2.041721901922449,0.9215873026321597,A,1606,Incorrect
1,relearn,39,535,A,63.0794141760923,81.60557311233515,3.153970708804615,1.2818573449084842,B,455,Correct
1,relearn,39,536,B,59.79175886286353,39.99731312843875,2.989587943143176,0.6282763254381687,B,969,Incorrect
1,relearn,39,537,B,69.26726775532262,45.567161138559726,3.463363387766131,0.7157672933892076,B,811,Incorrect
1,relearn,39,538,B,45.07513913474779,32.14126651554712,2.2537569567373894,0.5048738338115722,A,805,Correct
1,relearn,39,539,B,61.33772817209254,40.172638376031166,3.066886408604627,0.6310303279872945,A,756,Incorrect
1,relearn,39,540,B,83.7718685354761,66.07340785349697,4.188593426773805,1.0378786635509412,A,1230,Correct
1,relearn,39,541,B,83.18437403990308,62.74035560278162,4.1592187019951545,0.9855232012265497,A,456,Incorrect
1,relearn,39,542,A,48.365167168144495,75.32685136961447,2.4182583584072246,1.1832314144041554,B,433,Correct
1,relearn,39,543,A,41.32522870317595,65.53533128014992,2.066261435158798,1.0294265765014619,B,910,Correct
1,relearn,39,544,B,44.58516123887696,32.696692908797054,2.229258061943848,0.5135984511947916,A,3402,Correct
1,relearn,39,545,B,47.5642348135125,19.188529935241323,2.3782117406756247,0.30141272338870984,A,482,Incorrect
1,relearn,39,546,A,11.269655125651596,31.162418505888297,0.5634827562825798,0.4894981252309465,B,880,Correct
1,relearn,39,547,A,32.70031470648605,60.4583270600628,1.6350157353243022,0.9496771807011115,A,681,Incorrect
1,relearn,39,548,B,66.76209095435223,36.43931618037068,3.3381045477176117,0.5723874400704412,B,415,Correct
1,relearn,39,549,A,29.143912525310043,39.999564244974664,1.4571956262655021,0.6283116858940269,A,344,Incorrect
1,relearn,39,550,B,74.39133798416321,51.69413573331601,3.7195668992081607,0.812009585267296,B,262,Correct
1,relearn,39,551,A,45.111828076656536,56.7877822456008,2.2555914038328266,0.8920203975821818,100,331,Incorrect
1,relearn,39,552,A,16.43458916891173,46.48362285930608,0.8217294584455865,0.7301630404351728,A,782,Incorrect
1,relearn,39,553,A,49.46862683888966,56.72898172156556,2.473431341944483,0.8910967611105002,B,787,Correct
1,relearn,39,554,B,78.08415585931235,59.18647163597567,3.904207792965617,0.9296989224174094,A,659,Correct
1,relearn,39,555,B,81.907158484155,60.697066534832366,4.09535792420775,0.9534272916014012,A,651,Correct
1,relearn,39,556,B,38.894926633519205,13.47680576759603,1.9447463316759603,0.2116931699666812,B,1338,Correct
1,relearn,39,557,B,56.14027110136753,38.39909371151916,2.8070135550683766,0.603171553543073,B,452,Incorrect
1,relearn,39,558,B,88.25653891730067,61.39087907868531,4.412826945865033,0.9643256735550855,A,254,Incorrect
1,relearn,39,559,B,67.39908604794324,46.03376965206516,3.369954302397162,0.7230967627798632,B,303,Correct
1,relearn,39,560,B,83.79321451656293,65.89734865719731,4.189660725828146,1.0351131321624816,B,23,Correct
1,relearn,39,561,A,36.0662680474322,58.23864097269378,1.8033134023716102,0.9148104331743414,B,446,Incorrect
1,relearn,39,562,A,20.77884176245969,45.40677394323536,1.0389420881229845,0.7132479372164032,A,411,Correct
1,relearn,39,563,B,41.14582328960542,23.526571209413884,2.0572911644802705,0.3695545163782589,B,333,Correct
1,relearn,39,564,B,75.3454516700773,56.949159248049995,3.767272583503865,0.8945553016089455,A,559,Incorrect
1,relearn,39,565,A,52.413322899702855,62.75768327625172,2.620666144985143,0.9857953836849371,B,322,Correct
1,relearn,39,566,B,76.32434457010169,59.3183774353917,3.816217228505084,0.9317708938694657,B,383,Incorrect
1,relearn,39,567,A,61.43538206412531,81.31420177052529,3.071769103206265,1.277280494574002,A,394,Incorrect
1,relearn,39,568,A,32.82443783621538,53.808316882413365,1.6412218918107693,0.8452190650991074,B,315,Correct
1,relearn,39,569,A,16.69392671092881,38.99952999628597,0.8346963355464405,0.6126031846489339,B,534,Incorrect
1,relearn,39,570,B,39.53332825200337,27.267087846166806,1.9766664126001685,0.4283104143115259,A,358,Correct
1,relearn,39,571,B,84.46814117775207,60.940797271114704,4.223407058887603,0.9572558050541943,B,375,Correct
1,relearn,39,572,A,20.609193187311984,48.159699460991476,1.0304596593655992,0.7564907901287157,B,695,Correct
1,relearn,39,573,B,68.33997533642041,42.713397353459634,3.4169987668210204,0.6709404766774525,B,539,Incorrect
1,relearn,39,574,A,13.388637083233085,34.46650609148361,0.6694318541616542,0.5413986116595637,A,556,Correct
1,relearn,39,575,A,18.779781773857977,34.70136384089326,0.9389890886928989,0.5450877485604837,B,258,Incorrect
1,relearn,39,576,A,46.78829299101349,55.52384235738788,2.3394146495506747,0.8721664762452377,A,523,Correct
1,relearn,39,577,B,68.78418028541758,40.07764528127919,3.4392090142708787,0.6295381799442217,A,339,Correct
1,relearn,39,578,A,38.566587606570096,45.79774992696778,1.9283293803285049,0.7193893736075223,B,956,Correct
1,relearn,39,579,A,46.51800033074102,66.79270484840362,2.3259000165370507,1.0491773543256808,A,1906,Correct
1,relearn,39,580,A,41.08377657254026,72.63569041146562,2.054188828627013,1.1409587569254147,A,2449,Incorrect
1,relearn,39,581,A,29.746709629579094,44.38490231095979,1.4873354814789548,0.6971964151520594,B,460,Correct
1,relearn,39,582,B,33.22848600806579,17.66907880897696,1.6614243004032891,0.2775452409099055,A,332,Correct
1,relearn,39,583,B,49.56860751415206,35.10383435938023,2.478430375707603,0.5514097406813094,A,404,Incorrect
1,relearn,39,584,A,46.66960311284069,78.45131519068184,2.3334801556420346,1.232310377337517,B,877,Correct
1,relearn,39,585,A,25.598825722784674,46.845161798993104,1.2799412861392339,0.7358420808197097,A,314,Correct
1,relearn,39,586,A,27.902763701063144,60.39927214240106,1.3951381850531572,0.9487495482236891,B,489,Correct
1,relearn,39,587,B,46.397732487237064,22.376974565153173,2.3198866243618532,0.3514966945172543,A,711,Correct
1,relearn,39,588,B,45.393900207884265,29.111399507197888,2.269695010394213,0.45728079413765205,A,398,Incorrect
1,relearn,39,589,A,41.640758015688945,62.44950834821248,2.0820379007844476,0.980954583235194,B,852,Incorrect
1,relearn,39,590,B,52.66477360229243,26.588470264025716,2.6332386801146215,0.41765071425826933,B,533,Correct
1,relearn,39,591,B,74.79720606989682,47.95504724638501,3.7398603034948406,0.7532761206589729,A,1629,Correct
1,relearn,39,592,B,49.29005218084042,21.621725153792475,2.464502609042021,0.3396332645054604,B,338,Correct
1,relearn,39,593,A,51.38594111784023,63.78263211247476,2.5692970558920116,1.0018952423558556,B,893,Incorrect
1,relearn,39,594,B,34.327111402811525,14.539215702258122,1.7163555701405762,0.22838146619585745,A,522,Incorrect
1,relearn,39,595,A,39.94486330312875,71.0667783175851,1.9972431651564375,1.1163143433840987,B,481,Correct
1,relearn,39,596,A,60.165919895102206,73.83170403156787,3.0082959947551102,1.1597456949379477,A,339,Correct
1,relearn,39,597,B,45.68880742473855,32.64950790758801,2.2844403712369274,0.5128572709290018,B,1729,Incorrect
1,relearn,39,598,A,40.33109541929424,53.216199784243074,2.016554770964712,0.8359181114707239,A,547,Incorrect
1,relearn,39,599,B,75.51177863006521,44.00773179781022,3.7755889315032607,0.6912718345857527,B,491,Incorrect
1,relearn,39,600,B,79.39368444883796,64.6378475323315,3.9696842224418982,1.015328934757149,A,452,Incorrect
1,relearn,39,601,A,28.28804149953836,37.642090176334534,1.414402074976918,0.5912805698186854,A,9126,Correct
1,relearn,39,602,B,51.8292230552651,32.14956751620704,2.591461152763255,0.5050042256250254,A,19567,Incorrect
1,relearn,39,603,A,44.44973267644185,56.92963620397531,2.222486633822092,0.8942486343497418,B,658,Incorrect
1,relearn,39,604,A,24.80769686634961,39.106503391262606,1.2403848433174804,0.6142835188078747,A,309,Correct
1,relearn,39,605,A,42.571451336241,67.49382726400592,2.12857256681205,1.0601905594762975,B,844,Incorrect
1,relearn,39,606,A,22.271352253563002,52.67666992696886,1.1135676126781502,0.8274431962906987,A,712,Correct
1,relearn,39,607,A,41.03250424428056,55.49689618915472,2.051625212214028,0.8717432068244193,B,791,Incorrect
1,relearn,39,608,A,43.74649233554157,63.01464637602958,2.1873246167770786,0.9898317506174661,A,314,Correct
1,relearn,39,609,A,15.185392817798906,39.05517151800149,0.7592696408899454,0.613477199628214,A,784,Correct
1,relearn,39,610,A,27.167003093976106,55.189704056753655,1.3583501546988055,0.8669178440924603,A,496,Correct
1,relearn,39,611,B,72.9546570562858,55.396614565713,3.64773285281429,0.8701679867669466,B,605,Correct
1,relearn,39,612,A,18.386677854637693,43.342713628692124,0.9193338927318847,0.6808257536127269,A,666,Correct
1,relearn,39,613,B,75.62001364703228,58.704808731060325,3.781000682351614,0.9221329791994654,B,588,Correct
1,relearn,39,614,B,34.40971051356895,19.411467158033812,1.7204855256784475,0.3049146130953928,B,3204,Correct
1,relearn,39,615,A,47.67350713789172,79.26518373938165,2.3836753568945857,1.2450945946054326,A,3537,Correct
1,relearn,39,616,B,62.896023777292115,41.1035885173187,3.1448011888646055,0.6456536586109309,B,860,Correct
1,relearn,39,617,A,42.663260961118844,51.369822757520325,2.1331630480559425,0.8069152889561781,A,1578,Correct
1,relearn,39,618,A,33.68129561773235,41.73393630586723,1.6840647808866178,0.6555551385194842,A,459,Correct
1,relearn,39,619,A,39.23595770204088,56.64988872173934,1.961797885102044,0.8898543711744779,B,1594,Incorrect
1,relearn,39,620,A,25.40862270826969,37.23607835244965,1.2704311354134845,0.5849029510027488,A,479,Correct
1,relearn,39,621,A,23.893806977302624,37.32460854201983,1.1946903488651313,0.5862935799686217,A,485,Correct
1,relearn,39,622,B,81.5765524382661,67.50968431179007,4.078827621913305,1.060439641400429,B,3798,Correct
1,relearn,39,623,A,33.146050241183104,60.28003264494297,1.6573025120591551,0.9468765385775288,A,4707,Correct
1,relearn,39,624,B,46.89979061560144,35.34879032166797,2.344989530780072,0.5552574999391904,B,2581,Correct
1,relearn,39,625,A,67.14519595707029,87.3114589934799,3.3572597978535144,1.3714851907406145,B,1370,Incorrect
1,relearn,39,626,B,34.289627491951165,14.332279761108548,1.7144813745975582,0.22513092403346147,B,2067,Correct
1,relearn,39,627,A,24.068458716390747,50.00740502556728,1.2034229358195374,0.7855144812670574,A,732,Correct
1,relearn,39,628,A,61.52751091197361,70.27485978518627,3.07637554559868,1.1038749161659698,B,1338,Incorrect
1,relearn,39,629,B,35.38288900143607,19.853310966054785,1.7691444500718034,0.31185507940195695,B,2050,Correct
1,relearn,39,630,A,36.32160249213018,61.71302236731652,1.816080124606509,0.9693858884999208,A,3048,Correct
1,relearn,39,631,A,65.45185358801336,79.10496640954005,3.272592679400668,1.242577906673392,B,1788,Incorrect
1,relearn,39,632,B,64.85200315099705,44.67841982945325,3.2426001575498526,0.7018069775510543,B,530,Correct
1,relearn,39,633,B,60.671801195786685,40.006404962919866,3.033590059789334,0.6284191396402364,A,1909,Incorrect
1,relearn,39,634,B,64.0718207415221,53.51690769651878,3.203591037076105,0.8406416203111321,B,837,Correct
1,relearn,39,635,B,35.692521994467064,11.710169902862688,1.7846260997233532,0.1839429186956086,B,6094,Correct
1,relearn,39,636,A,62.54017970493073,84.7319777140014,3.127008985246537,1.3309667935522045,A,3603,Correct
1,relearn,39,637,B,71.8929647012436,42.845626784597165,3.5946482350621802,0.6730175317247027,B,1483,Correct
1,relearn,39,638,A,13.786669349852069,36.78712183442359,0.6893334674926035,0.5778507585086892,A,928,Correct
1,relearn,39,639,B,41.76482473419001,19.037481640226673,2.0882412367095005,0.29904006231893343,A,5131,Incorrect
1,relearn,39,640,A,15.525172446968057,36.84959110376066,0.7762586223484028,0.5788320234968114,A,2358,Correct
1,relearn,39,641,A,38.72990300553814,52.70862129829983,1.9364951502769072,0.8279450872579263,B,1981,Incorrect
1,relearn,39,642,A,34.59274297167254,53.9719117217247,1.7296371485836273,0.8477888068258358,A,1294,Correct
1,relearn,39,643,B,61.35988511810865,54.09540949919557,3.0679942559054325,0.8497287053780216,B,951,Correct
1,relearn,39,644,B,45.36714292610011,22.877355282170242,2.2683571463050054,0.3593566564401484,A,7269,Incorrect
1,relearn,39,645,A,57.80089732865291,76.10649527063933,2.8900448664326457,1.195478032163534,A,1356,Correct
1,relearn,39,646,B,67.36305407781845,54.28045701988223,3.3681527038909223,0.8526354250357926,B,947,Correct
1,relearn,39,647,B,79.8662552129071,66.30183872519943,3.993312760645355,1.041466847292909,B,1139,Correct
1,relearn,39,648,B,52.07408717915703,42.46740655285137,2.6037043589578515,0.6670764622172446,B,1320,Correct
1,relearn,39,649,A,34.37753911338731,62.073178754373096,1.7188769556693655,0.9750432117985227,A,1312,Correct
1,relearn,39,650,A,44.153600932998636,56.92542448437254,2.207680046649932,0.8941824768129265,A,1962,Correct
1,relearn,39,651,B,79.91674488157406,66.75530152349691,3.995837244078703,1.048589824271947,B,873,Correct
1,relearn,39,652,A,16.931315350651076,46.91634920311241,0.8465657675325537,0.7369602899487564,A,728,Correct
1,relearn,39,653,B,34.803171452403056,13.362785394596266,1.740158572620153,0.20990214213580305,A,1504,Incorrect
1,relearn,39,654,B,46.305043047806954,22.88901606723811,2.3152521523903475,0.35953982362366993,B,925,Correct
1,relearn,39,655,A,32.954862296547375,65.72189890982992,1.647743114827369,1.0323571739754636,A,972,Correct
1,relearn,39,656,A,14.00202806817856,31.08302969963247,0.700101403408928,0.4882510887783936,A,1754,Correct
1,relearn,39,657,B,38.88520570818912,12.906360269726125,1.944260285409456,0.20273263303977387,B,3490,Correct
1,relearn,39,658,B,79.52537717619799,66.59621061962082,3.9762688588098998,1.0460908301975966,B,1782,Correct
1,relearn,39,659,A,25.986670096508874,53.67730053746978,1.2993335048254437,0.8431610651652325,A,1373,Correct
1,relearn,39,660,A,33.76175404329283,44.27648428367204,1.6880877021646414,0.6954933887618401,A,817,Correct
1,relearn,39,661,B,47.35654945677215,24.331370793238037,2.3678274728386075,0.38219627867902933,B,5566,Correct
1,relearn,39,662,A,61.65507505048356,84.76652373777732,3.082753752524178,1.3315094412247304,A,3774,Correct
1,relearn,39,663,A,39.51247984335764,53.660339556480665,1.975623992167882,0.842894642698867,A,4673,Correct
1,relearn,39,664,B,70.3364660974279,46.24307237316619,3.516823304871395,0.7263844822348001,B,592,Correct
1,relearn,39,665,B,45.03585250571989,17.365641322760297,2.2517926252859946,0.2727788560222954,B,861,Correct
1,relearn,39,666,B,66.87595449175417,36.02788504365043,3.3437977245877084,0.5659246948875488,B,922,Correct
1,relearn,39,667,A,49.37749696548159,60.4144929331466,2.4688748482740794,0.9489886358456292,B,5211,Incorrect
1,relearn,39,668,A,68.27804588378116,82.35641467244018,3.4139022941890578,1.2936515365546635,A,994,Correct
1,relearn,39,669,A,24.901186899077388,47.295664061195595,1.2450593449538694,0.7429185538065144,A,2261,Correct
1,relearn,39,670,A,43.37450680063124,59.13012646431867,2.1687253400315623,0.9288138545306946,A,3445,Correct
1,relearn,39,671,B,40.931418895698364,27.528461852099014,2.0465709447849183,0.4324160675959057,A,2095,Incorrect
1,relearn,39,672,B,45.57573841673454,27.569346363107293,2.278786920836727,0.43305827999305174,B,1963,Correct
1,relearn,39,673,B,86.05332541291855,67.67083094246723,4.302666270645927,1.0629709267558596,B,4005,Correct
1,relearn,39,674,A,39.31029179246515,49.909595874583815,1.9655145896232573,0.7839780987161398,B,2106,Incorrect
1,relearn,39,675,A,36.454209029599326,67.75505632205865,1.8227104514799664,1.0642939359247108,A,637,Correct
1,relearn,39,676,B,32.45365864120383,19.712577886707418,1.6226829320601917,0.3096444493609832,B,1631,Correct
1,relearn,39,677,A,38.11381266476519,45.92331185786491,1.9056906332382595,0.7213616958059073,A,1280,Correct
1,relearn,39,678,B,72.65468135958608,61.331699985732705,3.632734067979304,0.9633960905367556,B,1063,Correct
1,relearn,39,679,B,40.47073833387742,18.588358901825938,2.023536916693871,0.291985258841334,B,1286,Correct
1,relearn,39,680,A,50.913668834719225,66.57728562895507,2.5456834417359615,1.0457935571393726,A,1794,Correct
1,relearn,39,681,A,19.695426491208423,51.218781253045606,0.9847713245604212,0.8045427345519534,A,853,Correct
1,relearn,39,682,B,45.69855945594206,21.588841276964246,2.284927972797103,0.33911672577613483,B,1106,Correct
1,relearn,39,683,A,60.736896260304576,79.96205742926344,3.0368448130152284,1.2560410609284955,A,1698,Correct
1,relearn,39,684,B,85.8590095557123,65.92381438878337,4.292950477785615,1.0355288549020945,B,1080,Correct
1,relearn,39,685,B,46.3965759347864,24.26475664830388,2.31982879673932,0.38114990613727784,B,1987,Correct
1,relearn,39,686,B,39.36289240032988,20.12186360698644,1.9681446200164943,0.3160734944212221,B,575,Correct
1,relearn,39,687,B,65.65438634493329,42.265063852611945,3.2827193172466647,0.663898070514346,A,1222,Incorrect
1,relearn,39,688,B,69.53791889215506,42.19957990252246,3.476895944607753,0.6628694510317001,B,538,Correct
1,relearn,39,689,B,70.87504469094269,56.86380681533134,3.543752234547134,0.8932145887309706,B,648,Correct
1,relearn,39,690,A,66.55295238758572,80.2738791593815,3.327647619379286,1.2609391452113385,A,1567,Correct
1,relearn,39,691,A,29.834480715422455,47.79557369296876,1.4917240357711228,0.7507711159397013,A,2681,Correct
1,relearn,39,692,A,49.26910442888119,71.83742656223734,2.4634552214440593,1.1284196577036052,A,1014,Correct
1,relearn,39,693,A,33.7990470579397,45.658606682026715,1.689952352896985,0.7172037166270048,A,851,Correct
1,relearn,39,694,B,88.258107294384,66.64358183576618,4.4129053647192,1.046834935520766,B,924,Correct
1,relearn,39,695,A,45.739916945094535,67.57064628972839,2.286995847254727,1.0613972299106254,A,3084,Correct
1,relearn,39,696,A,64.48323002767478,81.87568496044561,3.224161501383739,1.2861002518968412,A,1491,Correct
1,relearn,39,697,B,40.790133510846104,25.84106947185232,2.039506675542305,0.4059105700683736,B,1282,Correct
1,relearn,39,698,B,62.84219722435748,51.36939031192249,3.142109861217874,0.8069084961166119,B,4495,Correct
1,relearn,39,699,A,38.85815901262488,71.64734425376412,1.9429079506312439,1.1254338517842213,B,11092,Incorrect
1,relearn,39,700,B,60.80480391139194,48.91404206847615,3.0402401955695972,0.7683399760985339,B,735,Correct
1,relearn,39,701,B,47.89697160906611,38.77187460927731,2.394848580453305,0.6090271821920512,A,2708,Incorrect
1,relearn,39,702,A,44.500661191529105,67.58998983401388,2.225033059576455,1.0617010775937339,B,3353,Incorrect
1,relearn,39,703,B,55.09563929521454,41.2834959329934,2.754781964760727,0.6484796376879808,B,759,Correct
1,relearn,39,704,A,38.25951654542167,54.44665368454314,1.9129758272710833,0.8552460361395419,A,570,Correct
1,relearn,39,705,B,36.39408507428198,17.020366475586336,1.819704253714099,0.26735529140554015,B,814,Correct
1,relearn,39,706,A,23.744460639276504,55.930150553281905,1.187223031963825,0.8785487504618077,A,744,Correct
1,relearn,39,707,A,53.077127662728834,63.62072845101847,2.6538563831364415,0.999352065588754,B,1927,Incorrect
1,relearn,39,708,A,68.46604031880601,82.20866856962608,3.4233020159403003,1.2913307461986772,B,2492,Incorrect
1,relearn,39,709,A,33.91047760358916,55.96439034621035,1.6955238801794579,0.8790865878714298,A,3027,Correct
1,relearn,39,710,A,29.9641572794932,46.41887350273242,1.49820786397466,0.7291459599204904,A,630,Correct
1,relearn,39,711,B,37.561843767230954,22.480383652840484,1.8780921883615478,0.35312104066821876,B,696,Correct
1,relearn,39,712,B,54.84412112892064,33.82048119670711,2.742206056446032,0.5312508763422339,B,2265,Correct
1,relearn,39,713,A,51.69300016449737,76.07944947295385,2.5846500082248682,1.1950531977669383,A,2347,Correct
1,relearn,39,714,B,60.52304392087836,51.35916049216125,3.0261521960439177,0.8067478064835647,B,941,Correct
1,relearn,39,715,B,49.90198319857096,33.95964331931699,2.4950991599285484,0.5334368298524796,B,2152,Correct
1,relearn,39,716,B,35.44511018822305,14.44241865113009,1.7722555094111525,0.2268609816722925,B,1692,Correct
1,relearn,39,717,A,33.62268073924514,62.905411764467175,1.681134036962257,0.9881158973514551,A,989,Correct
1,relearn,39,718,A,39.50184024830603,49.55103318770827,1.9750920124153015,0.7783458092014417,A,837,Correct
1,relearn,39,719,A,56.02013753371621,77.09010254877202,2.8010068766858103,1.21092849915853,B,2578,Incorrect
1,relearn,39,720,A,18.520164703279473,48.194613252942126,0.9260082351639737,0.7570392146902213,A,767,Correct
1,relearn,39,721,A,57.44415059914665,70.63895270982528,2.8722075299573326,1.1095940744523196,A,1176,Correct
1,relearn,39,722,B,47.031833648035686,37.79972552126316,2.351591682401784,0.5937567000265548,A,2764,Incorrect
1,relearn,39,723,A,44.92258060328897,56.111368958360565,2.2461290301644485,0.8813953225122597,A,945,Correct
1,relearn,39,724,A,36.302022675035325,54.80421460014912,1.8151011337517662,0.860862589867935,A,1039,Correct
1,relearn,39,725,B,60.060494442878586,28.36299177208197,3.0030247221439295,0.44552483292500233,B,856,Correct
1,relearn,39,726,B,52.79845776712173,34.35653753798501,2.6399228883560864,0.5396712296605783,B,3689,Correct
1,relearn,39,727,A,15.890502726389471,40.124911060957565,0.7945251363194735,0.6302806290752406,A,713,Correct
1,relearn,39,728,A,47.32142383885422,56.88410765495347,2.3660711919427113,0.8935334735740637,A,2035,Correct
1,relearn,39,729,A,32.71527734154963,46.28617525947991,1.6357638670774817,0.7270615407897586,A,1273,Correct
1,relearn,39,730,A,55.44346055488947,72.75461441002177,2.772173027744474,1.1428268107264126,B,2868,Incorrect
1,relearn,39,731,B,76.42493508957074,58.52642220371135,3.821246754478537,0.9193308901803705,B,766,Correct
1,relearn,39,732,B,66.61507377844313,35.111400320203394,3.3307536889221567,0.5515285865160064,B,3163,Correct
1,relearn,39,733,B,72.40264883090522,57.05345923495584,3.6201324415452607,0.89619364197211,B,731,Correct
1,relearn,39,734,B,43.853372037662496,22.089022100006442,2.192668601883125,0.3469735477718141,A,4802,Incorrect
1,relearn,39,735,A,38.175959786937845,58.16052666734697,1.9087979893468923,0.9135834165352524,A,848,Correct
1,relearn,39,736,B,38.879226460816156,17.240171796133605,1.9439613230408077,0.27080798530679645,B,1256,Correct
1,relearn,39,737,B,50.26615594130751,39.577318751871395,2.5133077970653757,0.6216790691983037,A,2323,Incorrect
1,relearn,39,738,B,52.6557802377821,39.79468225562692,2.6327890118891055,0.6250934071310882,B,895,Correct
1,relearn,39,739,B,64.64425722742472,31.508984246353705,3.2322128613712358,0.49494196715210664,B,1147,Correct
1,relearn,39,740,B,71.20068814570898,48.14937460674043,3.560034407285449,0.7563286076973933,B,600,Correct
1,relearn,39,741,A,48.545765200643615,71.67367792158598,2.4272882600321806,1.1258475000710775,A,1113,Correct
1,relearn,39,742,A,26.403405169586463,48.34210138625716,1.3201702584793231,0.7593559528707924,A,1104,Correct
1,relearn,39,743,A,58.095378433555936,75.26113165772067,2.904768921677797,1.1821990915837475,A,4501,Correct
1,relearn,39,744,B,49.1242777466866,36.94821321974,2.45621388733433,0.5803811760720221,B,1375,Correct
1,relearn,39,745,B,83.77439388685205,64.91655427035839,4.188719694342603,1.0197068499606052,B,981,Correct
1,relearn,39,746,B,56.22188432482385,24.833931456022274,2.8110942162411927,0.3900904831099603,B,1184,Correct
1,relearn,39,747,B,37.60039136005438,27.126868519569484,1.880019568002719,0.42610785427987863,A,3128,Incorrect
1,relearn,39,748,A,63.19392132694351,84.61520676985945,3.159696066347175,1.329132559850859,A,1030,Correct
1,relearn,39,749,A,59.09487423381887,69.84550684779629,2.9547437116909436,1.097130655996462,A,727,Correct
1,relearn,39,750,A,31.310205593256455,60.610844016941606,1.5655102796628229,0.9520729114575031,A,746,Correct
1,relearn,39,751,B,35.29447302582629,18.787228758116697,1.7647236512913145,0.2951090992390516,B,778,Correct
1,relearn,39,752,B,56.542000210035454,28.916689003200553,2.8271000105017725,0.45422228869297815,B,1553,Correct
1,relearn,39,753,A,43.19789146080569,63.684791974716205,2.1598945730402845,1.0003583730658132,A,6755,Correct
1,relearn,39,754,B,79.35632154881945,48.43653218321402,3.9678160774409723,0.7608392683607537,B,2041,Correct
1,relearn,39,755,B,38.00072611336773,17.401869440038258,1.9000363056683867,0.2733479259577646,B,886,Correct
1,relearn,39,756,B,77.55910920489993,51.51675809371256,3.8779554602449964,0.8092233438198494,B,1430,Correct
1,relearn,39,757,B,77.34307388614177,62.23180581226978,3.8671536943070883,0.9775349197972667,B,875,Correct
1,relearn,39,758,A,46.10936864021713,78.14935130681162,2.3054684320108563,1.2275671397414365,A,4868,Correct
1,relearn,39,759,B,72.0156547069563,59.42441444189629,3.600782735347815,0.9334365192726829,B,1164,Correct
1,relearn,39,760,A,62.47411986326861,78.16719813448225,3.1237059931634303,1.227847477054936,A,1340,Correct
1,relearn,39,761,B,38.424461806521734,27.539756370628748,1.9212230903260865,0.43259348147809984,B,1290,Correct
1,relearn,39,762,A,62.801339415831215,85.2110513659151,3.140066970791561,1.3384920648791068,A,879,Correct
1,relearn,39,763,B,39.88064266076012,25.82511932739451,1.9940321330380057,0.4056600257851119,B,1529,Correct
1,relearn,39,764,A,66.44712344511841,83.43531566637185,3.3223561722559203,1.310598873737096,A,2800,Correct
1,relearn,39,765,B,80.86153489734218,50.00066558826686,4.0430767448671086,0.7854086184334957,B,758,Correct
1,relearn,39,766,A,36.25706188271701,57.734477159424216,1.8128530941358505,0.906891046514474,A,3167,Correct
1,relearn,39,767,B,39.37812080453003,22.381486946828097,1.9689060402265013,0.351567574842855,B,711,Correct
1,relearn,39,768,A,32.059706010659376,41.45538373061599,1.6029853005329686,0.6511796448992452,B,1309,Incorrect
1,relearn,39,769,A,32.568899418964605,50.83337079073631,1.6284449709482303,0.7984887211669158,A,1099,Correct
1,relearn,39,770,B,64.61353085354084,34.724802929727964,3.230676542677042,0.5454559289069335,B,952,Correct
1,relearn,39,771,A,64.61877209766962,76.52290729349292,3.230938604883481,1.2020190169228508,A,924,Correct
1,relearn,39,772,A,48.439352511920944,77.88983866225647,2.4219676255960474,1.2234907246531959,A,987,Correct
1,relearn,39,773,A,16.302858857338844,45.23435011941872,0.8151429428669422,0.7105395101253722,A,681,Correct
1,relearn,39,774,A,25.226657188826852,39.49913162216092,1.2613328594413427,0.6204509086367851,A,793,Correct
1,relearn,39,775,A,59.12669732730141,82.23289372463734,2.9563348663650704,1.2917112740437542,A,2223,Correct
1,relearn,39,776,A,36.42452104422399,55.470244584252605,1.8212260522111992,0.8713245643935851,A,5047,Correct
1,relearn,39,777,A,17.736182431716347,45.05059917088642,0.8868091215858174,0.707653156975376,A,1663,Correct
1,relearn,39,778,B,67.78313023103306,40.08764632511824,3.389156511551653,0.6296952759734867,B,1134,Correct
1,relearn,39,779,B,43.41074778290718,32.01572327000392,2.170537389145359,0.5029018051220404,B,2418,Correct
1,relearn,39,780,B,77.13614206638005,53.70389948519047,3.856807103319002,0.8435788804589952,B,581,Correct
1,relearn,39,781,B,43.6901620967073,21.70192182700171,2.184508104835365,0.34089299090244274,B,1537,Correct
1,relearn,39,782,B,33.405794221386685,16.132456213746316,1.6702897110693342,0.25340802962732223,B,739,Correct
1,relearn,39,783,A,13.385293509765201,30.94249582510891,0.6692646754882601,0.486043587839475,A,1240,Correct
1,relearn,39,784,B,75.42342249423191,55.25812633667789,3.7711711247115955,0.8679926187522197,B,827,Correct
1,relearn,39,785,B,47.5369918903659,36.927662118068376,2.376849594518295,0.5800583601218486,B,1877,Correct
1,relearn,39,786,B,46.367715066369115,30.383659107272955,2.3183857533184558,0.47726540120292665,B,576,Correct
1,relearn,39,787,A,36.88822659556919,66.29018971526963,1.8444113297784597,1.0412838650728236,A,3098,Correct
1,relearn,39,788,A,47.88336532863442,71.76000044149676,2.394168266431721,1.1272034510430327,A,714,Correct
1,relearn,39,789,B,54.29684991773147,31.63235388020658,2.7148424958865736,0.49687985282904784,B,1075,Correct
1,relearn,39,790,A,17.070067025140496,33.75970429530323,0.8535033512570248,0.5302961950074421,A,695,Correct
1,relearn,39,791,B,56.58540042670387,48.61567685450179,2.8292700213351933,0.7636532662769909,B,751,Correct
1,relearn,39,792,A,19.92705889546009,35.44425549801856,0.9963529447730045,0.5567570634226737,A,646,Correct
1,relearn,39,793,A,56.703387240847945,70.39824224366176,2.8351693620423974,1.105813003291612,B,1251,Incorrect
1,relearn,39,794,A,19.348350349204463,50.12684003571535,0.9674175174602232,0.7873905620193702,A,557,Correct
1,relearn,39,795,A,52.02439788661897,76.13904490189934,2.601219894330949,1.1959893205757517,B,604,Incorrect
1,relearn,39,796,A,52.65066622017954,80.28083535362053,2.632533311008977,1.26104841285493,A,514,Correct
1,relearn,39,797,B,52.84610136948326,32.654489854525245,2.6423050684741627,0.5129355271684947,B,980,Correct
1,relearn,39,798,A,42.6040404037828,57.235329426445865,2.13020202018914,0.8990504522595703,B,861,Incorrect
1,relearn,39,799,B,61.732306282201776,44.70106821264378,3.0866153141100887,0.7021627375222896,B,997,Correct
1,relearn,39,800,A,36.099543150634666,67.05804942156558,1.8049771575317335,1.0533453771342587,A,1754,Correct
1,relearn,39,801,A,49.93712442779618,73.73930785447921,2.496856221389809,1.1582943391821399,B,921,Incorrect
1,relearn,39,802,A,35.719132844140596,56.450835282318245,1.7859566422070299,0.8867276470596924,A,431,Correct
1,relearn,39,803,B,63.441822637561145,48.27859054321894,3.172091131878057,0.7583583268812314,B,553,Correct
1,relearn,39,804,B,51.243302324575744,19.854665095903137,2.5621651162287873,0.3118763500238749,B,644,Correct
1,relearn,39,805,A,47.13875585412116,78.10461764894835,2.3569377927060575,1.226864465086879,B,1078,Incorrect
1,relearn,39,806,B,64.31875234219498,33.23354677052444,3.2159376171097493,0.5220313319350619,A,581,Incorrect
1,relearn,39,807,A,28.723871247386903,39.77726132947571,1.4361935623693451,0.6248197598630112,A,715,Correct
1,relearn,39,808,A,12.860465246051618,32.28121385683465,0.6430232623025809,0.5070721215079638,A,510,Correct
1,relearn,39,809,B,43.86853836396752,17.727282258159594,2.1934269181983757,0.2784594985517343,B,786,Correct
1,relearn,39,810,A,46.38980464224685,77.95264991245017,2.3194902321123423,1.2244773614640527,A,853,Correct
1,relearn,39,811,B,87.60229340329678,63.68623402751537,4.38011467016484,1.0003810247782128,B,816,Correct
1,relearn,39,812,B,44.40526042288495,31.22701916667517,2.220263021144248,0.4905128700376719,B,279,Correct
1,relearn,39,813,A,45.93429024092271,72.1477162545285,2.2967145120461354,1.1332936767925381,A,906,Correct
1,relearn,39,814,A,46.48963719182758,73.98926276202852,2.324481859591379,1.162220621688568,A,546,Correct
1,relearn,39,815,B,68.94736149562031,49.2695485250247,3.447368074781016,0.7739242584595172,B,1624,Correct
1,relearn,39,816,B,79.8112924787892,54.90374613804936,3.99056462393946,0.8624260276092741,B,410,Correct
1,relearn,39,817,A,46.25738627677775,77.31113591691106,2.312869313838888,1.214400483186249,A,1997,Correct
1,relearn,39,818,B,31.437015615298407,14.099144516953316,1.5718507807649202,0.22146884418180673,B,1738,Correct
1,relearn,39,819,B,67.38765476463814,48.48701944344134,3.369382738231907,0.761632320389904,B,584,Correct
1,relearn,39,820,B,67.03090350761036,54.27939368028989,3.351545175380518,0.8526187221365349,B,513,Correct
1,relearn,39,821,B,84.43063205651987,66.09765994747428,4.221531602825993,1.0382596145523075,B,1495,Correct
1,relearn,39,822,B,66.06101886491277,36.4518560588052,3.3030509432456383,0.572584416020275,B,653,Correct
1,relearn,39,823,A,59.107768722496935,72.67978951997982,2.955388436124847,1.1416514641021052,B,1152,Incorrect
1,relearn,39,824,A,44.16276631635182,54.12995086948629,2.208138315817591,0.8502712799537728,A,2261,Correct
1,relearn,39,825,A,31.583043089803542,57.54802915696061,1.5791521544901772,0.9039623281403933,A,1411,Correct
1,relearn,39,826,A,26.81827645208712,37.88150388752189,1.3409138226043558,0.5950412715998598,A,528,Correct
1,relearn,39,827,A,31.411932863120548,51.490307945643465,1.5705966431560272,0.8088078658655482,A,750,Correct
1,relearn,39,828,A,19.941627685221256,47.93640265808984,0.9970813842610627,0.7529832521508864,A,675,Correct
1,relearn,39,829,A,47.24332502568624,56.74978635542035,2.362166251284312,0.8914235595348942,A,2642,Correct
1,relearn,39,830,B,59.73294435336577,52.68422759848703,2.9866472176682883,0.8275619119172972,B,1689,Correct
1,relearn,39,831,B,59.47616063266047,35.25109827645565,2.9738080316330233,0.5537229568814244,B,1000,Correct
1,relearn,39,832,B,80.5480306884192,65.12732027802893,4.02740153442096,1.0230175546672262,B,457,Correct
1,relearn,39,833,B,65.37845799055835,38.8035623267879,3.268922899527917,0.6095249316947526,B,434,Correct
1,relearn,39,834,B,50.97027424874065,20.932810187452912,2.5485137124370327,0.32881181351945826,B,262,Correct
1,relearn,39,835,A,39.222259428974155,56.268851069189935,1.9611129714487077,0.8838690457245264,A,695,Correct
1,relearn,39,836,B,87.49677181078525,60.9261342130333,4.374838590539262,0.9570254782764558,B,641,Correct
1,relearn,39,837,A,39.10516122703397,71.61538288833985,1.9552580613516983,1.1249318038301435,B,609,Incorrect
1,relearn,39,838,B,58.357499090709574,47.94998759319807,2.917874954535479,0.7531966438125639,A,550,Incorrect
1,relearn,39,839,B,59.45515162772008,45.45642502509189,2.972757581386004,0.7140278545864195,B,405,Correct
1,relearn,39,840,A,38.93432322156369,69.05094575586072,1.9467161610781845,1.0846497195501965,A,1956,Correct
1,relearn,39,841,B,67.78271939536945,42.18599547318299,3.3891359697684726,0.6626560673146198,B,590,Correct
1,relearn,39,842,B,55.789893903948695,24.774934094255343,2.789494695197435,0.38916375471841946,B,506,Correct
1,relearn,39,843,B,76.11626947979175,65.09656021955246,3.8058134739895877,1.022534376798558,B,520,Correct
1,relearn,39,844,B,55.3196948067281,30.44245859431428,2.765984740336405,0.47818902138554603,B,620,Correct
1,relearn,39,845,B,45.24209628669907,25.38181292726974,2.2621048143349536,0.39869658513550527,B,1092,Correct
1,relearn,39,846,B,82.03033245956175,51.508328757705655,4.101516622978087,0.8090909361194799,B,593,Correct
1,relearn,39,847,A,45.82588236502435,71.13921746883953,2.2912941182512174,1.117452214911165,A,1016,Correct
1,relearn,39,848,B,33.12013262723164,19.57368455133288,1.656006631361582,0.307462717950757,B,2794,Correct
1,relearn,39,849,A,55.471872070786596,67.48317135484324,2.7735936035393296,1.0600231768465833,A,1179,Correct
1,relearn,39,850,A,28.184377234911445,37.72593364918547,1.409218861745572,0.5925975800104852,A,1172,Correct
1,relearn,39,851,B,82.44540594509198,57.05148954490093,4.122270297254599,0.8961627021530784,B,711,Correct
1,relearn,39,852,B,80.75905060789847,50.911338300568545,4.037952530394923,0.799713431947454,B,468,Correct
1,relearn,39,853,B,46.06357956606586,35.27990522839743,2.303178978303293,0.5541754554243875,B,555,Correct
1,relearn,39,854,B,39.56771715942352,20.24295304358881,1.9783858579711762,0.3179755628435087,B,522,Correct
1,relearn,39,855,B,39.73547551950129,18.63694116841366,1.9867737759750645,0.2927483873003677,B,598,Correct
1,relearn,39,856,A,28.1469720257546,53.40764961647333,1.4073486012877299,0.8389253984030518,B,676,Incorrect
1,relearn,39,857,A,50.45430676281772,76.33537241410204,2.522715338140886,1.1990732259259194,B,508,Incorrect
1,relearn,39,858,A,43.52495341893136,69.82081723508715,2.176247670946568,1.0967428324669268,A,516,Correct
1,relearn,39,859,B,46.615456154980976,31.270977596210667,2.3307728077490486,0.4912033674341322,A,480,Incorrect
1,relearn,39,860,A,13.17559238448823,32.27052467137305,0.6587796192244114,0.5069042161753688,100,668,Correct
1,relearn,39,861,A,39.046364151985586,66.39989116816353,1.9523182075992793,1.0430070514653218,B,584,Incorrect
1,relearn,39,862,A,22.59266052954964,49.828923704862525,1.129633026477482,0.7827109032374122,A,476,Correct
1,relearn,39,863,B,57.34375963662329,26.48979610620303,2.8671879818311647,0.41610074421169474,B,616,Correct
1,relearn,39,864,A,13.85583512455418,30.442153613639416,0.6927917562277089,0.4781842307603078,A,563,Correct
1,relearn,39,865,A,64.02813573523922,88.29717437251963,3.201406786761961,1.3869687717072232,B,691,Incorrect
1,relearn,39,866,B,63.65182455824814,39.59111414870145,3.1825912279124067,0.621895766784977,B,525,Correct
1,relearn,39,867,A,39.63638431846603,69.77434506748546,1.9818192159233012,1.0960128493652577,B,607,Incorrect
1,relearn,39,868,B,47.3049996477995,24.039804196640915,2.3652499823899746,0.3776163612895208,A,366,Incorrect
1,relearn,39,869,A,59.650132610884874,72.85625535506581,2.982506630544244,1.144423382957684,B,624,Incorrect
1,relearn,39,870,B,37.517492320028694,13.097846038954305,1.8758746160014346,0.2057404844691451,B,610,Correct
1,relearn,39,871,A,34.4965332004858,66.99066525118874,1.72482666002429,1.052286909061138,A,732,Correct
1,relearn,39,872,A,24.570984741342315,40.5773374414414,1.2285492370671158,0.6373873260413319,A,574,Correct
1,relearn,39,873,A,22.98500201471234,41.52960453045557,1.1492501007356168,0.6523455024968431,A,429,Correct
1,relearn,39,874,B,49.26569411987634,40.963770100659254,2.463284705993817,0.6434573960578617,B,488,Correct
1,relearn,39,875,B,81.31060792662596,65.67542967623443,4.065530396331298,1.031627236961056,B,638,Correct
1,relearn,39,876,A,64.51586470583432,77.91593065559597,3.225793235291716,1.2239005767261601,B,435,Incorrect
1,relearn,39,877,B,70.65420248154307,54.490077665682676,3.5327101240771532,0.8559281384402299,A,410,Incorrect
1,relearn,39,878,A,25.27650601975555,41.32254381937333,1.2638253009877776,0.6490930004529277,A,741,Correct
1,relearn,39,879,A,61.23527898754354,74.97309637983636,3.061763949377177,1.1776746440188672,B,563,Incorrect
1,relearn,39,880,B,64.80295917210383,49.196463005478506,3.2401479586051916,0.7727762338030664,A,277,Incorrect
1,relearn,39,881,A,22.10612011370134,33.64814104470564,1.105306005685067,0.5285437635650021,A,709,Correct
1,relearn,39,882,B,65.37655957412474,33.09890310875098,3.268827978706237,0.5199163542416623,B,963,Correct
1,relearn,39,883,B,69.68525635345036,54.781794116548724,3.484262817672518,0.8605104097350902,B,452,Correct
1,relearn,39,884,B,82.47727009046524,63.68214846319411,4.123863504523262,1.0003168488839256,B,866,Correct
1,relearn,39,885,A,44.33689162995952,72.80930233076514,2.216844581497976,1.14368584657665,A,502,Correct
1,relearn,39,886,B,74.94676112539453,53.118608496583676,3.7473380562697263,0.8343851511088981,B,670,Correct
1,relearn,39,887,A,57.995443530422584,76.72339772060087,2.8997721765211293,1.205168313187438,A,428,Correct
1,relearn,39,888,A,59.76186306834326,77.12888888780688,2.9880931534171626,1.2115377535473875,A,649,Correct
1,relearn,39,889,B,47.34050945282339,24.682840433267152,2.3670254726411697,0.38771715087440584,A,560,Incorrect
1,relearn,39,890,A,31.74329212033334,41.811201485907404,1.587164606016667,0.6567688171294468,B,1068,Incorrect
1,relearn,39,891,A,52.32720911483473,68.99984517270197,2.616360455741736,1.0838470334669683,A,621,Correct
1,relearn,39,892,B,81.81178153549796,53.27182531937152,4.090589076774898,0.8367918753332815,B,656,Correct
1,relearn,39,893,B,50.06107674899644,29.617951599588977,2.503053837449822,0.465237695798234,B,591,Correct
1,relearn,39,894,A,33.503074805937516,51.491135597952045,1.6751537402968757,0.8088208665976102,A,747,Correct
1,relearn,39,895,A,56.87387312277491,73.31893647763465,2.8436936561387456,1.1516911610357685,A,699,Correct
1,relearn,39,896,A,50.53290105039916,60.901761394869624,2.5266450525199584,0.9566426309440044,A,545,Correct
1,relearn,39,897,A,52.60295752370784,73.05376172103169,2.6301478761853923,1.1475258056994622,A,622,Correct
1,relearn,39,898,A,68.22285334896694,83.82343580833714,3.411142667448347,1.3166954506706376,B,580,Incorrect
