experiment,condition,subject,trial,cat,x,y,xt,yt,resp,rt,fb
2,relearn,47,0,B,72.42192705981199,39.83656863400784,3.6210963529905995,0.6257513568241231,A,2865,Incorrect
2,relearn,47,1,A,14.230499007625241,33.18499123909823,0.7115249503812621,0.5212686234309633,A,1732,Correct
2,relearn,47,2,A,23.30662607019297,55.440346838558334,1.1653313035096486,0.8708549317024249,B,712,Incorrect
2,relearn,47,3,B,44.35855570210948,20.85387635730987,2.217927785105474,0.3275719238149728,B,359,Correct
2,relearn,47,4,A,16.121483615254647,42.558654242067455,0.8060741807627323,0.668509777567736,A,774,Correct
2,relearn,47,5,A,23.901963429360915,36.476352189633886,1.1950981714680458,0.5729692003435389,A,479,Correct
2,relearn,47,6,A,38.04311148187782,69.80864114989102,1.9021555740938911,1.096551570967919,B,370,Incorrect
2,relearn,47,7,A,10.822279572975916,33.51616028721324,0.5411139786487957,0.5264706146742354,B,273,Incorrect
2,relearn,47,8,A,40.80806356994765,54.70603217861496,2.0404031784973826,0.8593203439969178,B,620,Incorrect
2,relearn,47,9,A,24.83604442917445,43.04799866936642,1.2418022214587225,0.6761963818571237,A,509,Correct
2,relearn,47,10,A,58.681434017282186,77.21467199793848,2.9340717008641093,1.212885231490345,A,831,Correct
2,relearn,47,11,A,12.546920869459548,30.724773756650023,0.6273460434729774,0.48262361758550093,B,268,Incorrect
2,relearn,47,12,B,65.56615966968299,54.62565785528605,3.278307983484149,0.8580578270783812,B,314,Correct
2,relearn,47,13,A,26.549913377145902,42.37394164963868,1.327495668857295,0.6656083189507372,A,861,Correct
2,relearn,47,14,A,34.848928940389115,55.91701983313066,1.7424464470194556,0.8783424935919902,A,316,Correct
2,relearn,47,15,B,81.45493250403447,68.33236397216346,4.072746625201724,1.073362263286863,B,343,Correct
2,relearn,47,16,A,61.1117568141224,82.30805756463226,3.05558784070612,1.2928919448814726,B,560,Incorrect
2,relearn,47,17,A,37.63687425247293,62.91847848159277,1.8818437126236462,0.9883211488640967,A,330,Correct
2,relearn,47,18,A,12.542790422616118,38.067670968686485,0.627139521130806,0.5979655772724946,A,531,Correct
2,relearn,47,19,A,42.48959853264909,63.311792224009594,2.1244799266324548,0.9944993066827598,B,284,Incorrect
2,relearn,47,20,B,61.32708753682038,44.00589119706811,3.066354376841019,0.6912429224969047,B,300,Correct
2,relearn,47,21,B,54.68623782860121,36.23810935156215,2.73431189143006,0.5692268905942562,B,307,Correct
2,relearn,47,22,B,70.69273156904441,45.04640776710131,3.5346365784522207,0.7075873185586783,A,407,Incorrect
2,relearn,47,23,B,78.22343736871176,59.868628607792154,3.911171868435588,0.9404142190736777,B,477,Correct
2,relearn,47,24,A,25.999312688220144,46.38749838600773,1.299965634411007,0.7286531207394514,B,432,Incorrect
2,relearn,47,25,B,77.10226452334625,45.690424010057605,3.8551132261673127,0.7177035020469982,B,302,Correct
2,relearn,47,26,B,71.7450896161882,39.47143446934862,3.58725448080941,0.6200158427777828,B,313,Correct
2,relearn,47,27,A,42.712687467346655,71.67896962414581,2.1356343733673326,1.1259306219405119,A,286,Correct
2,relearn,47,28,B,42.017342248432925,17.562090863809654,2.1008671124216463,0.2758646781971042,B,292,Correct
2,relearn,47,29,A,38.36955514011244,59.222239269518184,1.9184777570056217,0.9302607590912765,B,476,Incorrect
2,relearn,47,30,B,78.16319610630549,60.96185543867778,3.9081598053152744,0.9575865859767654,A,337,Incorrect
2,relearn,47,31,B,53.91805890278952,44.15706140034037,2.695902945139476,0.6936174984971137,B,406,Correct
2,relearn,47,32,A,16.374501091558482,40.29758104595277,0.8187250545779241,0.6329929228570225,B,375,Incorrect
2,relearn,47,33,B,44.79914946151377,20.085557331190657,2.2399574730756884,0.31550319677462585,A,432,Incorrect
2,relearn,47,34,A,52.70673602435341,82.9939293321299,2.6353368012176706,1.3036655934118486,B,645,Incorrect
2,relearn,47,35,A,52.38338597801622,75.34445560065636,2.619169298900811,1.1835079410187217,B,304,Incorrect
2,relearn,47,36,B,66.68520933493318,40.5780491845021,3.3342604667466587,0.6373985060751854,B,283,Correct
2,relearn,47,37,B,49.11898962843678,29.55588382154008,2.455949481421839,0.4642627374205187,A,432,Incorrect
2,relearn,47,38,A,40.99711957548767,73.2403487295744,2.0498559787743833,1.150456707575927,B,374,Incorrect
2,relearn,47,39,B,38.46793013290529,23.944585693429865,1.9233965066452643,0.37612067253865267,A,345,Incorrect
2,relearn,47,40,B,71.17393362488488,51.805045825525625,3.558696681244244,0.8137517569217696,A,293,Incorrect
2,relearn,47,41,A,37.73793271639418,62.00869001634541,1.8868966358197088,0.9740302250703874,A,302,Correct
2,relearn,47,42,B,73.11520039172467,51.92128219173572,3.6557600195862334,0.8155775934925974,B,418,Correct
2,relearn,47,43,A,67.8147389886095,83.24535064968514,3.3907369494304755,1.3076149102327856,B,279,Incorrect
2,relearn,47,44,A,55.048737107287295,69.8579140494501,2.752436855364365,1.097325547864298,B,285,Incorrect
2,relearn,47,45,B,40.976459903956155,25.1320964284888,2.0488229951978076,0.39477404754525347,107,286,Incorrect
2,relearn,47,46,A,17.42369506644033,46.923946410638194,0.8711847533220165,0.7370796266055104,B,569,Incorrect
2,relearn,47,47,A,56.24196689688298,64.97098237959867,2.812098344844149,1.0205618047012952,B,441,Incorrect
2,relearn,47,48,A,27.885552568808162,46.095740012217476,1.3942776284404081,0.7240701909208375,B,458,Incorrect
2,relearn,47,49,A,35.679954491377515,53.85809031546003,1.7839977245688758,0.8460009043571242,A,290,Correct
2,relearn,47,50,A,67.37282475766241,80.70180438598338,3.368641237883121,1.2676609789522297,A,590,Correct
2,relearn,47,51,A,22.04242560940145,50.70506693903086,1.1021212804700726,0.7964733289771901,A,816,Correct
2,relearn,47,52,B,57.03447120131529,33.416152575853424,2.8517235600657647,0.5248996972176838,B,300,Correct
2,relearn,47,53,A,43.259509458624905,59.20767554759366,2.162975472931245,0.9300319926822413,B,575,Incorrect
2,relearn,47,54,B,65.35977458786974,41.80149306623832,3.2679887293934873,0.6566163176298949,A,367,Incorrect
2,relearn,47,55,A,34.06359144548609,56.78822392908353,1.7031795722743044,0.8920273355301044,B,326,Incorrect
2,relearn,47,56,A,25.28699385887172,40.448393976335254,1.264349692943586,0.6353618868278024,A,368,Correct
2,relearn,47,57,A,34.36563709009757,66.18717526935907,1.7182818545048786,1.0396657179403925,A,658,Correct
2,relearn,47,58,A,51.75602276064511,79.64591627877739,2.5878011380322556,1.2510751273491738,A,328,Correct
2,relearn,47,59,A,66.22626063521912,78.99982842140258,3.311313031760956,1.2409264030176625,A,762,Correct
2,relearn,47,60,B,81.21473455461755,63.43175599491461,4.060736727730878,0.9963836931896203,B,392,Correct
2,relearn,47,61,B,53.16456174812284,38.870429765361436,2.658228087406142,0.6105752829636876,A,331,Incorrect
2,relearn,47,62,A,54.71181042557764,67.27264817839456,2.735590521278882,1.0567162865238757,B,280,Incorrect
2,relearn,47,63,A,22.54040696009974,39.54973005270713,1.1270203480049872,0.6212457069252209,B,357,Incorrect
2,relearn,47,64,B,60.1812225134285,33.53718765684566,3.009061125671425,0.526800911824043,A,335,Incorrect
2,relearn,47,65,A,48.03161957640784,69.39122534344135,2.4015809788203923,1.089994818812746,B,398,Incorrect
2,relearn,47,66,A,24.602413397553764,37.75948773657599,1.230120669877688,0.5931246463827051,B,330,Incorrect
2,relearn,47,67,B,63.44010519294752,44.63682000958954,3.172005259647376,0.7011535291086819,B,334,Correct
2,relearn,47,68,A,32.364162010298244,65.2578893678583,1.618208100514912,1.0250685291341954,A,359,Correct
2,relearn,47,69,B,73.72357205473547,59.61795458593918,3.686178602736774,0.9364766407461823,B,507,Correct
2,relearn,47,70,A,43.48465192932331,62.0807716346231,2.1742325964661657,0.9751624804825876,B,424,Incorrect
2,relearn,47,71,B,57.68998045786514,41.74948942034014,2.884499022893257,0.6557994462703268,A,231,Incorrect
2,relearn,47,72,B,50.03639100902962,19.216099997817352,2.501819550451481,0.30184579291894914,B,373,Correct
2,relearn,47,73,A,47.4529256882915,56.975513898450586,2.372646284414575,0.8949692794893775,B,390,Incorrect
2,relearn,47,74,B,49.86103533693349,23.357207448069946,2.4930517668466745,0.3668941566361467,B,264,Correct
2,relearn,47,75,B,67.7104373683928,55.73161501572174,3.3855218684196404,0.87543016153043,A,319,Incorrect
2,relearn,47,76,A,67.57945666152246,82.93158495895094,3.378972833076123,1.30268629028799,B,566,Incorrect
2,relearn,47,77,B,72.36351650260293,48.41372404210381,3.6181758251301464,0.7604809989179843,A,315,Incorrect
2,relearn,47,78,B,47.14187166207313,36.91693190594047,2.3570935831036564,0.5798898103438862,B,307,Correct
2,relearn,47,79,A,58.41772540961177,67.44579244064268,2.9208862704805885,1.0594360302353252,B,351,Incorrect
2,relearn,47,80,B,67.71261930099111,41.5109957539611,3.3856309650495553,0.6520531965192065,A,453,Incorrect
2,relearn,47,81,A,18.809585976764094,47.31217056285712,0.9404792988382047,0.7431778373282959,B,310,Incorrect
2,relearn,47,82,B,47.52234702533026,29.406354817921013,2.376117351266513,0.4619139413241774,B,303,Correct
2,relearn,47,83,B,42.400472852921666,17.716516663639272,2.1200236426460832,0.27829039298845143,B,367,Correct
2,relearn,47,84,A,25.384250151011457,45.68606409683866,1.269212507550573,0.7176350166903039,A,328,Correct
2,relearn,47,85,B,67.11771919757479,35.48505442560677,3.3558859598787394,0.557397931478601,B,445,Correct
2,relearn,47,86,B,38.016258855088516,18.845656481785497,1.9008129427544258,0.2960268797762709,B,1057,Correct
2,relearn,47,87,A,46.64598041577634,54.84622286494448,2.3322990207888172,0.8615224541482908,B,457,Incorrect
2,relearn,47,88,A,34.28760259659959,48.67740886603224,1.7143801298299794,0.7646229504465677,A,329,Correct
2,relearn,47,89,A,38.99705246086174,69.11624842651298,1.9498526230430868,1.0856754915021014,A,371,Correct
2,relearn,47,90,B,80.11529152819688,48.87283455725163,4.0057645764098435,0.7676926900258554,A,305,Incorrect
2,relearn,47,91,A,57.67358683776469,75.93314121768505,2.883679341888234,1.1927549930673784,B,591,Incorrect
2,relearn,47,92,A,47.97831952302529,60.85175200658521,2.3989159761512644,0.9558570853097802,A,299,Correct
2,relearn,47,93,B,45.621487636978046,36.19803206211676,2.281074381848902,0.568597358003769,A,341,Incorrect
2,relearn,47,94,B,81.87368458284314,58.8041209163549,4.0936842291421565,0.9236929713581321,B,571,Correct
2,relearn,47,95,B,40.67794877669253,13.757288528531465,2.0338974388346265,0.2160989828727479,A,614,Incorrect
2,relearn,47,96,A,49.767894793665114,67.84611406032276,2.4883947396832555,1.0657242675326257,B,147,Incorrect
2,relearn,47,97,B,79.19716612692932,57.42034283317058,3.959858306346466,0.90195663605648,A,345,Incorrect
2,relearn,47,98,B,56.058907505926264,48.49602868255968,2.8029453752963134,0.7617738371870468,B,24,Correct
2,relearn,47,99,B,57.65152961592368,39.55170705768462,2.8825764807961836,0.6212767616467879,B,430,Correct
2,relearn,47,100,B,63.53947869717281,38.50745579953986,3.1769739348586405,0.6048737012413405,B,307,Correct
2,relearn,47,101,B,58.17503621580251,42.41857105557048,2.9087518107901253,0.6663093560197842,A,322,Incorrect
2,relearn,47,102,B,46.69567035329466,36.01007088166944,2.3347835176647327,0.5656448706855022,B,498,Correct
2,relearn,47,103,B,58.903566583821174,44.51833460513277,2.945178329191059,0.6992923647276869,B,595,Correct
2,relearn,47,104,B,81.75050285318153,65.10212707739687,4.087525142659076,1.0226218207970958,B,800,Correct
2,relearn,47,105,A,26.327038789134534,44.03290762203289,1.3163519394567265,0.6916672955078825,B,594,Incorrect
2,relearn,47,106,B,41.94262841656693,24.455306074348925,2.097131420828347,0.3841430495223222,A,373,Incorrect
2,relearn,47,107,B,46.943529412489504,18.24846443654275,2.347176470624475,0.28664620906568655,B,354,Correct
2,relearn,47,108,B,69.53829644187945,39.68996081166883,3.4769148220939723,0.6234484465360279,B,711,Correct
2,relearn,47,109,B,48.54990475364269,41.5428624141126,2.427495237682135,0.6525537568463383,B,388,Correct
2,relearn,47,110,A,49.471876284320416,73.79509954954291,2.473593814216021,1.1591707130788576,A,428,Correct
2,relearn,47,111,B,80.39021522777651,53.43246173639721,4.019510761388825,0.839315146271416,A,323,Incorrect
2,relearn,47,112,A,24.55225317054129,51.07517321871763,1.2276126585270646,0.8022869448237472,B,54,Incorrect
2,relearn,47,113,A,45.989822037209954,54.92382169497567,2.299491101860498,0.8627413737200565,A,122,Correct
2,relearn,47,114,B,74.01218641215652,57.659295132811444,3.7006093206078265,0.9057100900020306,A,431,Incorrect
2,relearn,47,115,A,32.97775662809681,50.63760107366042,1.6488878314048407,0.795413577642111,B,44,Incorrect
2,relearn,47,116,B,63.63607304081451,41.8653914320954,3.1818036520407253,0.6576200308136598,B,518,Correct
2,relearn,47,117,A,44.702343406654535,71.39286006290743,2.235117170332727,1.1214364234619705,B,671,Incorrect
2,relearn,47,118,B,32.939847380849855,13.59460607272801,1.6469923690424928,0.21354357283264752,A,475,Incorrect
2,relearn,47,119,A,66.98407636995641,79.83971842336906,3.349203818497821,1.2541193643176693,B,596,Incorrect
2,relearn,47,120,A,40.50168613698132,69.15989664454803,2.0250843068490663,1.0863611161077071,B,589,Incorrect
2,relearn,47,121,B,72.41646744659663,55.82924107026082,3.6208233723298315,0.8769636680091248,A,365,Incorrect
2,relearn,47,122,A,43.421827075713885,51.903830370757916,2.171091353785694,0.8153034609297193,A,579,Correct
2,relearn,47,123,A,33.71348305607529,60.139323441413914,1.6856741528037644,0.944666283577032,A,643,Correct
2,relearn,47,124,B,71.67953897135351,39.43954823568771,3.5839769485676753,0.619514974990684,B,462,Correct
2,relearn,47,125,B,75.58785903940672,54.97092302064941,3.7793929519703364,0.8634812396136111,A,476,Incorrect
2,relearn,47,126,A,21.327258645488335,45.29342225398515,1.0663629322744168,0.7114674130453009,B,428,Incorrect
2,relearn,47,127,B,46.3838841480957,28.139554629980346,2.3191942074047853,0.4420150905041745,A,356,Incorrect
2,relearn,47,128,A,46.50040735006937,77.29248087335517,2.3250203675034684,1.214107450447311,B,314,Incorrect
2,relearn,47,129,B,44.19112961306987,15.471638961913097,2.2095564806534935,0.243027936508699,B,348,Correct
2,relearn,47,130,A,34.04265906462866,53.68153215490833,1.7021329532314329,0.8432275352565213,B,835,Incorrect
2,relearn,47,131,B,68.68051488719986,38.03292272283291,3.4340257443599933,0.5974197531030009,B,515,Correct
2,relearn,47,132,A,36.926238027273186,56.38866020856271,1.8463119013636595,0.8857510032849586,A,323,Correct
2,relearn,47,133,B,30.81500835353781,15.98666461038071,1.5407504176768905,0.25111794047687985,B,349,Correct
2,relearn,47,134,A,29.99567045894677,49.48382352349519,1.4997835229473384,0.7772900822647313,B,414,Incorrect
2,relearn,47,135,B,53.84790539589298,39.78869967237939,2.692395269794649,0.6249994329331885,A,568,Incorrect
2,relearn,47,136,B,65.19276804895863,40.63008825045428,3.2596384024479312,0.6382159338116606,A,384,Incorrect
2,relearn,47,137,B,59.015071977865176,41.5413222876958,2.950753598893259,0.6525295645971553,A,285,Incorrect
2,relearn,47,138,A,50.203257512356146,58.295200991772234,2.5101628756178074,0.9156988758764604,B,654,Incorrect
2,relearn,47,139,A,51.77032206201885,66.92479993911154,2.5885161031009427,1.0512522991583972,A,293,Correct
2,relearn,47,140,B,33.293231239458834,13.890561273499845,1.6646615619729417,0.21819242625532997,A,2156,Incorrect
2,relearn,47,141,A,21.81578281072641,45.355579519834706,1.0907891405363204,0.7124437770941019,B,357,Incorrect
2,relearn,47,142,A,17.740162531844504,34.61123706073655,0.8870081265922252,0.5436720404083236,B,573,Incorrect
2,relearn,47,143,B,76.40256119602016,58.42411136867145,3.8201280598010077,0.9177237953416505,B,328,Correct
2,relearn,47,144,A,40.33581482305192,49.96996267241061,2.016790741152596,0.7849263381590066,B,349,Incorrect
2,relearn,47,145,B,62.98370101258195,47.75241853266327,3.149185050629098,0.7500932362668,A,357,Incorrect
2,relearn,47,146,A,28.355366776342844,52.39036246549793,1.4177683388171423,0.8229458892025737,A,286,Correct
2,relearn,47,147,A,35.58680214026482,56.35429943003444,1.779340107013241,0.8852112654379783,A,263,Correct
2,relearn,47,148,B,31.803664582809574,14.73857358688062,1.5901832291404787,0.23151297252468364,A,258,Incorrect
2,relearn,47,149,B,59.394336501509024,28.071128837522583,2.969716825075451,0.4409402606696676,B,359,Correct
2,relearn,47,150,B,79.44927719398612,65.60848583808493,3.972463859699306,1.0305756856103883,B,435,Correct
2,relearn,47,151,A,42.015642538207004,55.019092588812285,2.1007821269103504,0.8642378854209465,A,255,Correct
2,relearn,47,152,B,52.89900920842072,38.966321596742475,2.6449504604210357,0.6120815483287173,B,332,Correct
2,relearn,47,153,B,84.46982621558757,58.21029383393179,4.223491310779378,0.9143651573599167,B,376,Correct
2,relearn,47,154,A,48.705352250844584,66.58036188848683,2.435267612542229,1.0458418789111004,A,610,Correct
2,relearn,47,155,B,63.386292721364704,41.47571774605598,3.169314636068235,0.6514990508668664,B,301,Correct
2,relearn,47,156,B,57.76365298131587,50.92688320378128,2.8881826490657936,0.7999576107161234,A,360,Incorrect
2,relearn,47,157,A,26.710972798918114,46.93810748854828,1.3355486399459056,0.7373020682971566,A,473,Correct
2,relearn,47,158,A,23.14210365490838,42.045899319910504,1.157105182745419,0.6604554420850346,A,313,Correct
2,relearn,47,159,A,31.604724418071836,56.95539153699794,1.5802362209035916,0.894653198174815,A,312,Correct
2,relearn,47,160,B,70.15815066291026,49.54113939115667,3.507907533145513,0.7781903978086284,B,389,Correct
2,relearn,47,161,B,54.16470923319433,27.090884333054277,2.708235461659717,0.42554261599987064,A,363,Incorrect
2,relearn,47,162,A,21.217721091466085,43.24198040943308,1.0608860545733043,0.6792434399047436,B,710,Incorrect
2,relearn,47,163,B,36.293689287018125,12.94476942386284,1.8146844643509064,0.2033359626221064,A,389,Incorrect
2,relearn,47,164,A,27.96585854761156,53.42538286433918,1.398292927380578,0.83920395160915,A,299,Correct
2,relearn,47,165,A,35.79499071035117,50.14230927592876,1.7897495355175586,0.7876335522764257,B,356,Incorrect
2,relearn,47,166,A,26.523940287471365,41.36095832980435,1.3261970143735684,0.6496964141717344,A,356,Correct
2,relearn,47,167,B,42.25144360236532,20.28465543649658,2.112572180118266,0.3186306224994896,A,622,Incorrect
2,relearn,47,168,A,41.0936152950429,53.118638871216156,2.054680764752145,0.8343856282325095,B,436,Incorrect
2,relearn,47,169,A,58.44201109845048,80.4398164757716,2.9221005549225243,1.2635456824819764,B,374,Incorrect
2,relearn,47,170,A,47.14881721522818,61.180492423039574,2.357440860761409,0.9610209276961357,A,426,Correct
2,relearn,47,171,B,33.66447761621454,12.5658356124992,1.683223880810727,0.1973836842322224,A,737,Incorrect
2,relearn,47,172,B,55.90295038779253,39.01232179437873,2.7951475193896265,0.612804117743506,A,502,Incorrect
2,relearn,47,173,B,78.30248382060046,50.918445530922654,3.915124191030023,0.7998250720607932,B,457,Correct
2,relearn,47,174,B,79.58492169914722,61.845766277893205,3.979246084957361,0.9714710249713033,B,515,Correct
2,relearn,47,175,B,86.28419772612668,64.03542315415501,4.314209886306333,1.0058660747530355,B,403,Correct
2,relearn,47,176,B,47.57815200967458,30.532459881688293,2.378907600483729,0.47960275830168514,A,332,Incorrect
2,relearn,47,177,B,42.4486060106628,16.549827339739824,2.1224303005331397,0.25996407994353077,B,307,Correct
2,relearn,47,178,B,73.98665693485945,59.58167735803479,3.6993328467429727,0.935906799382797,B,454,Correct
2,relearn,47,179,A,28.293976715736893,56.17381000648453,1.4146988357868446,0.882376144202603,B,384,Incorrect
2,relearn,47,180,B,84.58551265179563,68.24870422268256,4.229275632589781,1.0720481390150112,A,388,Incorrect
2,relearn,47,181,B,87.430093707671,64.58853456070374,4.371504685383551,1.0145543284101866,A,358,Incorrect
2,relearn,47,182,B,39.967977146113626,25.968402587677474,1.9983988573056815,0.40791071397454864,B,410,Correct
2,relearn,47,183,A,43.35078338242242,63.797812717496065,2.167539169121121,1.0021336987419156,B,378,Incorrect
2,relearn,47,184,A,58.724612485149805,78.81302034042125,2.9362306242574903,1.2379920285434516,A,317,Correct
2,relearn,47,185,B,75.1032807154512,53.727480849107934,3.75516403577256,0.8439492956572191,A,350,Incorrect
2,relearn,47,186,B,40.44201587758589,13.734091089865125,2.0221007938792948,0.21573459835826653,B,292,Correct
2,relearn,47,187,A,46.18028554296774,74.09599215767831,2.309014277148387,1.1638971231150457,B,534,Incorrect
2,relearn,47,188,A,28.516669244186083,48.24296197069586,1.4258334622093043,0.7577986745727494,A,271,Correct
2,relearn,47,189,B,55.052285015327385,26.628035375975216,2.752614250766369,0.4182722015834643,A,460,Incorrect
2,relearn,47,190,A,41.501827446199286,52.18261278769699,2.075091372309964,0.8196825648947482,B,295,Incorrect
2,relearn,47,191,B,57.59374807237002,40.10541240390175,2.879687403618501,0.6299743448864336,B,336,Correct
2,relearn,47,192,A,55.62523660632496,75.83920315911354,2.781261830316248,1.1912794174938746,B,305,Incorrect
2,relearn,47,193,A,54.63340152677687,67.08600935102716,2.7316700763388435,1.0537845706792157,B,283,Incorrect
2,relearn,47,194,A,15.393000881119299,34.559582089772896,0.7696500440559649,0.5428606460218196,B,271,Incorrect
2,relearn,47,195,B,37.24020160420224,23.46291550864979,1.862010080210112,0.368554614968861,B,272,Correct
2,relearn,47,196,A,27.849653302489557,38.45639525538348,1.392482665124478,0.6040716440892905,A,327,Correct
2,relearn,47,197,B,59.07492422260188,26.6007322452334,2.953746211130094,0.4178433250086719,A,355,Incorrect
2,relearn,47,198,B,82.62069896768904,58.55273021209683,4.1310349483844515,0.9197441354097428,B,439,Correct
2,relearn,47,199,A,54.04607524361173,62.78710713469116,2.7023037621805868,0.9862575725725051,B,643,Incorrect
2,relearn,47,200,A,67.9627755229786,84.46837933193157,3.3981387761489303,1.3268261998491608,A,335,Correct
2,relearn,47,201,A,11.250598098207888,30.474133129904935,0.5625299049103945,0.47868656382713337,A,416,Correct
2,relearn,47,202,A,47.82025733738665,64.67210163715623,2.3910128668693322,1.0158669969775123,B,317,Incorrect
2,relearn,47,203,B,54.115085183075735,31.13473598001889,2.7057542591537866,0.48906328913142577,B,263,Correct
2,relearn,47,204,B,80.08037620476148,61.65480598630542,4.004018810238074,0.9684714277254056,A,459,Incorrect
2,relearn,47,205,A,59.8947405039238,85.98467489978513,2.99473702519619,1.3506441149323583,B,326,Incorrect
2,relearn,47,206,B,83.76461500376902,57.88797723327505,4.188230750188451,0.9093022200361505,B,316,Correct
2,relearn,47,207,A,32.25603147844214,60.60880913855952,1.6128015739221069,0.9520409476626227,B,505,Incorrect
2,relearn,47,208,A,38.27870267042456,68.97514878965146,1.913935133521228,1.0834591035891596,A,475,Correct
2,relearn,47,209,B,34.094658714708075,20.66180934017522,1.704732935735404,0.3245549421648372,A,318,Incorrect
2,relearn,47,210,A,64.13434312210934,84.54817765139775,3.206717156105467,1.3280796689201795,A,291,Correct
2,relearn,47,211,A,47.00260477762039,58.59236668621755,2.3501302388810195,0.9203667436893019,B,398,Incorrect
2,relearn,47,212,B,73.66407828168892,50.87546739730577,3.683203914084446,0.7991499731166144,B,309,Correct
2,relearn,47,213,B,77.54872762906338,57.00934778389164,3.877436381453169,0.8955007409190977,A,308,Incorrect
2,relearn,47,214,A,14.917092570124886,34.17981753800041,0.7458546285062443,0.5368953183921081,B,868,Incorrect
2,relearn,47,215,A,17.658972680886016,40.664227846858225,0.8829486340443009,0.6387521973379564,A,245,Correct
2,relearn,47,216,B,47.191384733362476,25.50308024666826,2.359569236668124,0.4006014477342199,A,425,Incorrect
2,relearn,47,217,B,59.86454067286611,32.280152008331754,2.9932270336433056,0.5070554420306842,B,573,Correct
2,relearn,47,218,A,26.300835913005344,41.76078667647994,1.3150417956502674,0.6559769031547995,A,1367,Correct
2,relearn,47,219,B,67.91730544097767,49.12779925124594,3.3958652720488836,0.7716976660737419,B,710,Correct
2,relearn,47,220,B,33.99523654347294,10.492214795237132,1.699761827173647,0.16481132460301556,A,695,Incorrect
2,relearn,47,221,B,71.10618262404161,44.206031279292496,3.55530913120208,0.6943867155569295,B,417,Correct
2,relearn,47,222,B,34.03973277777839,15.723296752290558,1.7019866388889195,0.24698096783604132,B,744,Correct
2,relearn,47,223,A,37.56534472745273,50.05312963788493,1.8782672363726365,0.7862327217977841,B,632,Incorrect
2,relearn,47,224,A,38.98696348307562,53.88062966932286,1.9493481741537808,0.8463549516996847,A,355,Correct
2,relearn,47,225,B,59.992797243525416,32.402183410999896,2.9996398621762705,0.5089723068213317,A,377,Incorrect
2,relearn,47,226,A,46.20217229311021,64.23462040473497,2.3101086146555105,1.008995057848222,B,360,Incorrect
2,relearn,47,227,B,58.40267800613499,36.22031408933835,2.9201339003067495,0.5689473632689013,B,326,Correct
2,relearn,47,228,B,70.71378248876746,53.667798252534084,3.5356891244383735,0.8430118036225013,B,509,Correct
2,relearn,47,229,A,34.01513450932003,58.87726822070928,1.7007567254660014,0.9248419665280805,B,765,Incorrect
2,relearn,47,230,A,43.892438116065804,56.52437798730111,2.1946219058032903,0.8878828531681888,A,472,Correct
2,relearn,47,231,A,32.05066811735957,61.11982032402614,1.6025334058679785,0.9600678925934433,B,539,Incorrect
2,relearn,47,232,A,22.859769393474625,47.770301020587574,1.1429884696737311,0.7503741337302546,B,307,Incorrect
2,relearn,47,233,A,41.22415877740806,71.794603053038,2.0612079388704028,1.1277469875940975,B,293,Incorrect
2,relearn,47,234,A,16.917432382662483,40.029286890731804,0.8458716191331241,0.6287785681218062,B,344,Incorrect
2,relearn,47,235,A,43.79344346257849,60.93687272106703,2.1896721731289244,0.9571941583662023,A,282,Correct
2,relearn,47,236,B,32.803563045233545,18.47695252616261,1.6401781522616772,0.2902352915845991,B,311,Correct
2,relearn,47,237,A,25.274314836665976,43.169260842291735,1.263715741833299,0.6781011636152262,A,621,Correct
2,relearn,47,238,A,60.06882069598416,75.04070656021833,3.003441034799208,1.1787366622488462,A,378,Correct
2,relearn,47,239,A,32.20081800083777,49.4619986592005,1.6100409000418887,0.7769472580980625,B,328,Incorrect
2,relearn,47,240,B,50.942580680832805,36.47331783941531,2.54712903404164,0.5729215368817634,A,382,Incorrect
2,relearn,47,241,B,89.1658351667761,63.376462703440744,4.458291758338805,0.9955151481981849,A,563,Incorrect
2,relearn,47,242,A,65.68340924007263,85.61315067027374,3.284170462003632,1.3448082259820402,B,329,Incorrect
2,relearn,47,243,B,67.13961214764186,36.681299837803174,3.3569806073820927,0.5761885104728346,B,320,Correct
2,relearn,47,244,A,64.31880630400278,75.69284446633212,3.215940315200139,1.188980420523719,B,724,Incorrect
2,relearn,47,245,A,46.740139048884025,70.81956134790254,2.3370069524442014,1.1124310683051113,B,306,Incorrect
2,relearn,47,246,A,32.42461317816055,57.469244867375394,1.6212306589080274,0.9027247874134973,A,373,Correct
2,relearn,47,247,B,33.78373148873518,18.299609810017934,1.689186574436759,0.28744959871356024,A,403,Incorrect
2,relearn,47,248,A,66.25560797185449,81.12534427640352,3.312780398592724,1.2743139279934603,A,311,Correct
2,relearn,47,249,B,55.52905804430967,37.68004397330238,2.7764529022154836,0.5918767466673356,A,676,Incorrect
2,relearn,47,250,A,61.83838327763247,74.93566755316517,3.0919191638816232,1.1770867133843539,A,317,Correct
2,relearn,47,251,A,14.458623962721092,37.66469192057816,0.7229311981360546,0.5916355971870557,A,383,Correct
2,relearn,47,252,A,30.010267824830777,45.665571371012845,1.500513391241539,0.7173131177057717,B,675,Incorrect
2,relearn,47,253,B,46.14748453743688,24.265864466070447,2.307374226871844,0.3811673076980626,B,331,Correct
2,relearn,47,254,A,60.337367499867085,73.96297306542469,3.0168683749933543,1.1618076640999897,A,670,Correct
2,relearn,47,255,A,56.8536648365146,65.40799041206527,2.84268324182573,1.0274263108230794,B,452,Incorrect
2,relearn,47,256,B,39.519747248302494,14.747076444429378,1.9759873624151247,0.23164653509873215,A,327,Incorrect
2,relearn,47,257,A,23.394947516524766,34.98515708256777,1.1697473758262382,0.5495455623763991,A,361,Correct
2,relearn,47,258,A,66.68055305955205,78.9166877041575,3.3340276529776025,1.2396204316851058,B,731,Incorrect
2,relearn,47,259,B,66.99002856206424,38.784162222391835,3.349501428103212,0.6092201955675048,A,510,Incorrect
2,relearn,47,260,B,49.327346420056294,22.86165007063204,2.466367321002815,0.35910995955419095,A,402,Incorrect
2,relearn,47,261,A,65.9450965482163,83.45621678454748,3.2972548274108147,1.3109271877336577,A,409,Correct
2,relearn,47,262,A,49.57861057756869,76.99278315118733,2.4789305288784345,1.2093998096360106,A,473,Correct
2,relearn,47,263,B,44.439100763933325,15.331545054520948,2.221955038196666,0.2408273465573197,B,818,Correct
2,relearn,47,264,A,47.60552749570319,67.13317637989846,2.3802763747851596,1.054525468636184,A,644,Correct
2,relearn,47,265,B,43.46466830385583,34.347283707376555,2.1732334151927915,0.5395258708292929,A,592,Incorrect
2,relearn,47,266,A,39.06066017970518,49.80985092345171,1.953033008985259,0.7824113086875933,B,419,Incorrect
2,relearn,47,267,B,51.468514222665505,40.61835546211547,2.573425711133275,0.6380316356034039,A,294,Incorrect
2,relearn,47,268,B,77.0070251395875,49.07241875318728,3.8503512569793745,0.7708277512444759,B,264,Correct
2,relearn,47,269,A,50.30110894735,72.37750009238296,2.5150554473675,1.1369031128771243,B,492,Incorrect
2,relearn,47,270,A,39.1852781636577,56.99781243499603,1.9592639081828849,0.8953195440823625,A,313,Correct
2,relearn,47,271,B,57.632327887524454,42.18920530441565,2.881616394376223,0.6627064872257187,A,390,Incorrect
2,relearn,47,272,A,42.956246070613204,67.41674613186755,2.14781230353066,1.058979771884016,A,327,Correct
2,relearn,47,273,A,34.81417726460683,50.65610080011593,1.7407088632303416,0.7957041706657412,B,313,Incorrect
2,relearn,47,274,A,47.15151683935581,76.65821404664985,2.3575758419677904,1.2041444104313452,A,376,Correct
2,relearn,47,275,A,23.730142481018373,49.594347515211275,1.1865071240509186,0.7790261890668347,B,927,Incorrect
2,relearn,47,276,A,36.87907487117051,55.88756174196002,1.8439537435585254,0.8778797669779379,A,317,Correct
2,relearn,47,277,B,82.22011316570543,59.67115745109565,4.111005658285271,0.9373123493978097,B,952,Correct
2,relearn,47,278,B,69.61308843169078,49.63547719986175,3.4806544215845396,0.7796722526425468,A,498,Incorrect
2,relearn,47,279,A,49.969067037345155,71.32407749343989,2.4984533518672576,1.1203559893872994,B,564,Incorrect
2,relearn,47,280,A,43.40745191130559,53.064793433680386,2.1703725955652797,0.8335398260775511,B,1131,Incorrect
2,relearn,47,281,B,62.24227313802546,29.51482278549322,3.1121136569012733,0.4636177521745506,A,717,Incorrect
2,relearn,47,282,A,62.01600306260161,74.02595207272476,3.1008001531300806,1.1627969360333112,B,748,Incorrect
2,relearn,47,283,B,81.30582261934218,62.723429207190975,4.0652911309671085,0.9852573220263531,A,1369,Incorrect
2,relearn,47,284,A,22.30320864294479,51.96083909077439,1.1151604321472393,0.8161989518096908,B,593,Incorrect
2,relearn,47,285,B,82.26666472183365,64.8487173258689,4.113333236091682,1.0186412697283544,A,319,Incorrect
2,relearn,47,286,B,87.9967992781241,67.90179328053148,4.399839963906206,1.0665988746784525,A,365,Incorrect
2,relearn,47,287,A,26.09224502333599,56.30883656277557,1.3046122511667995,0.8844971363890204,A,310,Correct
2,relearn,47,288,A,17.684253798280732,34.25188989301587,0.8842126899140367,0.5380274282973257,B,740,Incorrect
2,relearn,47,289,A,43.71851308630999,61.99530233912318,2.1859256543154997,0.9738199319283376,A,331,Correct
2,relearn,47,290,A,35.69044339130966,50.27230731919631,1.784522169565483,0.7896755567649775,B,834,Incorrect
2,relearn,47,291,B,46.048868258215876,17.019946395592907,2.302443412910794,0.2673486928044338,A,310,Incorrect
2,relearn,47,292,A,20.611166778830704,44.036699594892696,1.0305583389415351,0.6917268596782775,B,322,Incorrect
2,relearn,47,293,A,32.00236991158309,60.65094592398962,1.6001184955791543,0.9527028307403879,A,289,Correct
2,relearn,47,294,B,76.21895201834099,55.55390928737971,3.810947600917049,0.8726387664771293,A,635,Incorrect
2,relearn,47,295,B,50.02807140894343,37.745007779857154,2.501403570447172,0.5928971957544442,B,406,Correct
2,relearn,47,296,A,53.64169619377929,72.18530902961538,2.6820848096889645,1.1338841827227433,B,492,Incorrect
2,relearn,47,297,A,12.926126217976211,38.0782930976866,0.6463063108988106,0.5981324292846557,B,272,Incorrect
2,relearn,47,298,A,35.50264224881999,56.68764164551567,1.7751321124409996,0.8904473927144142,B,398,Incorrect
2,relearn,47,299,B,68.06862640541938,50.29674706115794,3.4034313202709687,0.790059455333989,A,259,Incorrect
2,relearn,47,300,A,29.841343659169297,50.721945828358464,1.4920671829584649,0.796738461950752,B,268,Incorrect
2,relearn,47,301,B,47.07159785902088,28.554963426143342,2.353579892951044,0.4485403166154858,A,368,Incorrect
2,relearn,47,302,A,25.200851276875966,55.86704542458521,1.2600425638437982,0.8775574974182208,B,335,Correct
2,relearn,47,303,A,25.793102320916063,37.87711191125108,1.2896551160458032,0.5949722825979241,B,396,Correct
2,relearn,47,304,A,50.57123456897851,63.21267446528884,2.528561728448926,0.9929423685695725,B,357,Incorrect
2,relearn,47,305,A,30.13925015683055,43.844746050720374,1.5069625078415274,0.6887116604572661,B,299,Correct
2,relearn,47,306,A,58.67593408565715,80.91640432124075,2.9337967042828574,1.2710319068525566,A,357,Correct
2,relearn,47,307,A,21.468004828420145,33.934945440096925,1.0734002414210073,0.5330488764728947,B,532,Correct
2,relearn,47,308,B,64.83418170737751,53.23110840694586,3.2417090853688757,0.8361522955685149,A,485,Correct
2,relearn,47,309,A,63.508121577052364,85.91049369835352,3.175406078852618,1.349478879345098,A,312,Correct
2,relearn,47,310,B,46.578035074948716,19.03677188725109,2.328901753747436,0.2990289135452636,A,283,Correct
2,relearn,47,311,B,36.052772889248736,21.780495152711957,1.8026386444624367,0.34212721781653993,B,404,Correct
2,relearn,47,312,B,36.174599628738505,17.479596645554178,1.8087299814369253,0.274568862046929,B,313,Incorrect
2,relearn,47,313,B,75.96619394308699,56.855727497363205,3.7983096971543495,0.8930876791010972,A,287,Incorrect
2,relearn,47,314,B,50.93025953737408,41.14525824452996,2.5465129768687036,0.6463082051553509,A,277,Incorrect
2,relearn,47,315,B,72.15157162043201,53.11998195247665,3.607578581021601,0.8344067253036151,B,281,Incorrect
2,relearn,47,316,B,48.56822629982865,33.59066852580851,2.4284113149914326,0.5276409873492496,A,505,Correct
2,relearn,47,317,A,63.400364794468885,74.28116815146291,3.1700182397234444,1.1668058608235201,B,521,Incorrect
2,relearn,47,318,A,35.0151163605321,59.31325390249382,1.7507558180266047,0.9316904136029036,A,287,Incorrect
2,relearn,47,319,A,25.023339008957297,50.52923715112925,1.2511669504478649,0.7937114011274206,A,311,Correct
2,relearn,47,320,B,62.561390391210594,35.096654278829334,3.1280695195605297,0.551296956239755,A,836,Incorrect
2,relearn,47,321,B,81.17544705612508,59.61440863906262,4.058772352806255,0.9364209411428951,B,323,Incorrect
2,relearn,47,322,B,58.31398789585886,29.7960183465227,2.9156993947929433,0.46803476171831204,B,78,Incorrect
2,relearn,47,323,B,62.312718378400035,47.865028659745605,3.115635918920002,0.7518621120066085,B,234,Correct
2,relearn,47,324,A,55.63522278958435,85.17970863913094,2.7817611394792174,1.337999734478064,A,1488,Correct
2,relearn,47,325,B,63.39890569083038,47.655343874230056,3.169945284541519,0.7485683910978825,B,417,Correct
2,relearn,47,326,B,62.36417535099422,41.2240670400938,3.118208767549711,0.6475461308212591,A,277,Incorrect
2,relearn,47,327,B,74.60092999108403,52.60768876448162,3.7300464995542018,0.8263596427241688,B,349,Correct
2,relearn,47,328,B,57.67250040675541,44.82683861118303,2.8836250203377705,0.7041383343227394,B,286,Incorrect
2,relearn,47,329,A,46.16023263596531,63.09874622818893,2.3080116317982653,0.9911527880060251,A,320,Correct
2,relearn,47,330,B,80.18859383997302,50.84487658750612,4.009429691998651,0.7986694537999445,B,839,Incorrect
2,relearn,47,331,A,53.777160531248256,77.7399350774805,2.6888580265624125,1.221136044649801,A,327,Correct
2,relearn,47,332,B,34.05896558859082,15.047053288024618,1.702948279429541,0.23635856033916142,A,599,Correct
2,relearn,47,333,B,56.013533832576904,43.6739673671448,2.800676691628845,0.6860290751687124,B,1074,Correct
2,relearn,47,334,B,60.34666125924409,35.746403228308644,3.0173330629622046,0.5615031888715645,A,390,Correct
2,relearn,47,335,B,53.929220979173515,45.2098298456757,2.6964610489586756,0.7101543465660968,B,364,Correct
2,relearn,47,336,B,48.33160555828262,28.68673307738775,2.4165802779141305,0.4506101494570634,A,292,Incorrect
2,relearn,47,337,B,74.10894738966965,53.209791457517504,3.7054473694834824,0.8358174497099095,B,328,Correct
2,relearn,47,338,B,59.091483130067175,32.02368257214628,2.9545741565033588,0.5030268295477313,B,439,Correct
2,relearn,47,339,A,36.54014766121445,58.39363607868512,1.8270073830607225,0.9172450906059654,A,306,Correct
2,relearn,47,340,B,42.67904004976698,15.285546295032209,2.133952002488349,0.24010479973289936,B,323,Incorrect
2,relearn,47,341,B,70.89569667413447,50.354574286094305,3.544784833706723,0.7909678032591769,A,724,Incorrect
2,relearn,47,342,A,37.94492201279182,49.96582299772103,1.897246100639591,0.7848613123010415,B,294,Incorrect
2,relearn,47,343,B,62.12539287883813,37.302813428271534,3.106269643941906,0.5859512231224427,A,292,Incorrect
2,relearn,47,344,A,63.42593262713547,84.3971684936528,3.1712966313567734,1.3257076226171978,B,290,Incorrect
2,relearn,47,345,A,27.74655691353266,40.37492217544134,1.3873278456766331,0.6342077944781307,B,278,Incorrect
2,relearn,47,346,A,45.893987631410106,53.65800511855241,2.2946993815705055,0.8428579734336389,B,376,Incorrect
2,relearn,47,347,A,37.60131189124035,55.810287148190696,1.8800655945620175,0.8766659404974637,B,323,Incorrect
2,relearn,47,348,A,61.559386880867514,72.53005718223585,3.0779693440433755,1.1392994740407987,B,280,Incorrect
2,relearn,47,349,B,33.48839057858834,18.80473465010181,1.6744195289294168,0.2953840811473264,A,355,Correct
2,relearn,47,350,B,80.16011528950278,66.47489166318572,4.008005764475139,1.0441851564862081,B,308,Incorrect
2,relearn,47,351,B,44.97007255985763,26.792040718327947,2.248503627992881,0.42084839147688846,A,221,Correct
2,relearn,47,352,A,49.509262721670666,73.41133001375309,2.4754631360835333,1.1531424753073127,B,406,Incorrect
2,relearn,47,353,A,41.5743736498395,52.3839998421015,2.0787186824919752,0.8228459453479748,A,284,Correct
2,relearn,47,354,B,75.7113613699393,55.63115980386142,3.785568068496965,0.8738522147524542,A,391,Correct
2,relearn,47,355,B,70.6729468065045,59.68334591289814,3.533647340325225,0.9375038053080961,A,325,Incorrect
2,relearn,47,356,B,58.642139635800966,39.9594267776604,2.9321069817900485,0.6276812080317858,B,156,Correct
2,relearn,47,357,A,15.41789004184464,37.53714786761334,0.770894502092232,0.5896321398880392,A,251,Incorrect
2,relearn,47,358,B,38.19513223815006,22.526142878417865,1.909756611907503,0.353839824902758,B,312,Correct
2,relearn,47,359,A,36.8205544817395,54.622725295854664,1.8410277240869748,0.858011762542552,A,748,Incorrect
2,relearn,47,360,A,24.442867426878582,36.445111711629124,1.2221433713439291,0.572478476062567,B,367,Correct
2,relearn,47,361,B,70.07227225856627,52.034330047843426,3.5036136129283135,0.8173533450638576,B,369,Correct
2,relearn,47,362,A,45.57218969245178,60.691876560001134,2.278609484622589,0.9533457676673907,A,315,Correct
2,relearn,47,363,B,87.43647058037169,64.17713356314547,4.3718235290185845,1.0080920566521436,B,303,Incorrect
2,relearn,47,364,A,21.735151146637016,41.69168824249717,1.0867575573318506,0.6548915074919254,A,294,Correct
2,relearn,47,365,B,45.07024967299904,24.991715218960344,2.253512483649952,0.39256894466247017,A,482,Incorrect
2,relearn,47,366,A,57.49483696917577,69.40916447773002,2.8747418484587888,1.0902766060752112,B,100,Correct
2,relearn,47,367,A,48.016580398478695,60.23687223722501,2.400829019923935,0.9461985764784653,B,310,Incorrect
2,relearn,47,368,B,79.82552300294603,59.02368553797392,3.9912761501473017,0.927141884369465,A,295,Incorrect
2,relearn,47,369,B,70.06126018050479,44.32174223749351,3.5030630090252397,0.6962042990380503,A,354,Incorrect
2,relearn,47,370,B,50.040612912227964,32.84500361538541,2.502030645611398,0.515928110326125,B,741,Incorrect
2,relearn,47,371,B,54.71434907108865,43.89366075069396,2.7357174535544324,0.6894800107677139,B,449,Correct
2,relearn,47,372,B,70.56895099567947,40.82438310591883,3.528447549783974,0.6412679102644492,B,340,Correct
2,relearn,47,373,A,33.19962191792573,59.85288511634639,1.6599810958962866,0.9401669208883384,B,385,Incorrect
2,relearn,47,374,B,46.46827263543534,22.64148595570933,2.323413631771767,0.3556516297240645,A,347,Incorrect
2,relearn,47,375,A,11.651583349993537,33.968611935986694,0.5825791674996769,0.5335777085536918,B,1038,Incorrect
2,relearn,47,376,A,33.815079819331636,42.31475149603912,1.6907539909665816,0.6646785621921711,A,341,Correct
2,relearn,47,377,B,70.56705109535609,57.716329056658694,3.5283525547678045,0.9066059767828504,A,502,Incorrect
2,relearn,47,378,A,40.39063931964169,51.17983520891991,2.0195319659820847,0.8039309715213953,B,361,Correct
2,relearn,47,379,B,43.722335706109014,18.912461459142143,2.1861167853054506,0.2970762499067052,A,755,Correct
2,relearn,47,380,A,35.30120834040206,45.736647373260304,1.7650604170201032,0.7184295769383074,B,530,Incorrect
2,relearn,47,381,B,51.89865284036637,29.669694274433034,2.5949326420183185,0.4660504678340699,A,628,Correct
2,relearn,47,382,B,36.67027665197106,23.63191011175048,1.8335138325985527,0.3712091759868482,A,566,Correct
2,relearn,47,383,B,80.41355129408748,50.14495600402503,4.020677564704374,0.7876751269841421,B,630,Correct
2,relearn,47,384,B,55.55760721708544,38.0740860954524,2.7778803608542724,0.5980663458480927,B,769,Incorrect
2,relearn,47,385,B,86.04060475190941,57.2808939332304,4.302030237595471,0.899766177858464,A,588,Incorrect
2,relearn,47,386,B,48.29882768172139,24.636311422311262,2.4149413840860694,0.38698627487941684,A,1144,Incorrect
2,relearn,47,387,B,69.07303195768543,57.49409065084094,3.4536515978842717,0.9031150640675375,B,463,Correct
2,relearn,47,388,A,29.38925922521687,38.40229905836264,1.4694629612608434,0.6032219030135515,A,1003,Correct
2,relearn,47,389,B,61.34268740248082,33.50699104149501,3.067134370124041,0.5263265844992988,B,857,Correct
2,relearn,47,390,B,67.54756516804554,59.15113135865993,3.3773782584022767,0.9291437986394544,B,678,Correct
2,relearn,47,391,A,48.19975497987176,72.02770696264395,2.409987748993588,1.131408575243803,B,656,Incorrect
2,relearn,47,392,B,49.74934158658097,20.325712526676774,2.4874670793290483,0.31927554576392897,A,448,Correct
2,relearn,47,393,A,24.8706731595259,49.794060046135804,1.243533657976295,0.7821632661667464,B,1266,Incorrect
2,relearn,47,394,B,77.24520973635082,57.0742773079897,3.862260486817541,0.8965206514986355,A,425,Incorrect
2,relearn,47,395,A,47.64674015064159,60.24854338275619,2.3823370075320796,0.946381906403764,B,1240,Incorrect
2,relearn,47,396,A,19.393555903389387,40.514502749212895,0.9696777951694693,0.6364003210038535,A,795,Correct
2,relearn,47,397,B,38.88803541971513,26.63063871716104,1.9444017709857564,0.41831309477118517,B,881,Correct
2,relearn,47,398,B,63.523108769043134,49.9844452703949,3.1761554384521564,0.7851538302761684,B,668,Correct
2,relearn,47,399,A,57.638667922188276,75.79680929597207,2.881933396109414,1.190613496248862,A,1141,Incorrect
2,relearn,47,400,A,31.826913934890023,43.749492139635805,1.5913456967445012,0.6872154155208212,B,1627,Correct
2,relearn,47,401,B,48.2831331817481,35.28636135385671,2.414156659087405,0.5542768680059551,B,1358,Correct
2,relearn,47,402,B,55.97381380995098,36.55905077497746,2.798690690497549,0.5742682266844271,B,578,Correct
2,relearn,47,403,A,63.60423849225876,78.26441245006288,3.180211924612938,1.2293745159531955,B,814,Correct
2,relearn,47,404,B,57.5987895729232,26.372309748941774,2.8799394786461603,0.4142552728273498,A,750,Incorrect
2,relearn,47,405,A,16.31926610574318,45.456733603681535,0.815963305287159,0.7140327017275709,A,1162,Correct
2,relearn,47,406,B,46.426397314696985,16.818526334272544,2.3213198657348495,0.2641847938797855,B,538,Incorrect
2,relearn,47,407,B,62.2104840581293,39.48363378470512,3.1105242029064653,0.6202074691752968,B,481,Correct
2,relearn,47,408,A,44.568728376737816,68.92954139925362,2.228436418836891,1.0827427043760436,A,564,Correct
2,relearn,47,409,A,54.536353498192035,63.902300243473505,2.7268176749096016,1.003774984961928,B,400,Incorrect
2,relearn,47,410,A,34.987412694232276,51.822017447025274,1.7493706347116136,0.8140183465288835,A,656,Correct
2,relearn,47,411,B,51.74891188598514,33.34066763513915,2.5874455942992567,0.5237139825416606,B,675,Incorrect
2,relearn,47,412,B,32.8717583620715,21.115500283724277,1.643587918103575,0.33168150284110687,A,554,Incorrect
2,relearn,47,413,B,61.255045505945496,34.48904695984671,3.062752275297275,0.5417526827918391,A,704,Incorrect
2,relearn,47,414,A,60.78735708868989,71.90880817451949,3.039367854434494,1.1295409174473405,B,345,Incorrect
2,relearn,47,415,B,55.03878623569198,43.40537782282562,2.7519393117845987,0.6818100804723914,A,434,Correct
2,relearn,47,416,B,67.59934107623094,56.34661110281654,3.379967053811547,0.8850904974764475,A,529,Incorrect
2,relearn,47,417,B,64.59138467535726,49.80776369185923,3.2295692337678634,0.7823785225304069,B,413,Incorrect
2,relearn,47,418,A,32.594700126794855,57.87758842733044,1.6297350063397429,0.9091390330539746,A,290,Correct
2,relearn,47,419,B,46.11363724255193,18.197089279347345,2.3056818621275967,0.285839209983576,A,453,Incorrect
2,relearn,47,420,A,18.441659485963328,47.16217283673436,0.9220829742981664,0.7408216785560837,A,634,Correct
2,relearn,47,421,A,42.96162180340181,74.41720929746742,2.1480810901700904,1.1689427901478886,B,583,Incorrect
2,relearn,47,422,B,73.12124801698046,58.71132253738257,3.6560624008490232,0.9222352978299098,B,388,Incorrect
2,relearn,47,423,A,24.46551393776767,44.22562846775568,1.2232756968883836,0.6946945474734644,A,653,Incorrect
2,relearn,47,424,B,68.29801776562341,36.707098076059054,3.4149008882811707,0.5765937482517357,B,443,Correct
2,relearn,47,425,A,63.107011133604544,77.61008320413731,3.155350556680227,1.2190963361930518,B,584,Incorrect
2,relearn,47,426,A,57.22122958546895,82.8125671383811,2.8610614792734474,1.300816762734248,A,574,Incorrect
2,relearn,47,427,A,56.80131581347125,74.0854528485134,2.8400657906735627,1.1637315720338135,B,782,Incorrect
2,relearn,47,428,B,41.22760955558758,23.94295454635336,2.061380477779379,0.3760950505402902,A,422,Incorrect
2,relearn,47,429,A,58.10266998490013,82.29264822859238,2.9051334992450064,1.2926498955969747,B,520,Incorrect
2,relearn,47,430,A,54.471999431279315,74.46418671919257,2.7235999715639654,1.16968070976277,B,457,Correct
2,relearn,47,431,A,44.90350933716399,57.07960700107092,2.2451754668581994,0.8966043701217846,B,403,Correct
2,relearn,47,432,B,44.92186426332191,29.420370000189973,2.2460932131660956,0.4621340912924517,B,988,Correct
2,relearn,47,433,A,33.761375544342734,42.153869414945596,1.6880687772171368,0.6621514323718828,A,391,Correct
2,relearn,47,434,B,48.948069821029875,41.345760226281385,2.447403491051494,0.6494576829198533,B,642,Correct
2,relearn,47,435,B,59.206605050209674,36.62272509935976,2.9603302525104835,0.5752684206329358,B,587,Correct
2,relearn,47,436,B,52.48148245591652,35.347570597151744,2.624074122795826,0.5552383405512925,B,618,Incorrect
2,relearn,47,437,B,59.61583370469649,41.07299169801266,2.9807916852348244,0.6451730448971557,B,922,Correct
2,relearn,47,438,B,40.91209926163833,24.209414753212535,2.0456049630819164,0.38028059768200423,A,436,Correct
2,relearn,47,439,B,56.54672338634105,29.716735939033793,2.8273361693170522,0.4667893965736818,A,637,Incorrect
2,relearn,47,440,A,23.79571113083689,47.035327966483656,1.1897855565418445,0.7388292039934579,A,738,Correct
2,relearn,47,441,B,81.07189516514512,51.32567160117161,4.0535947582572565,0.806221764214015,B,654,Incorrect
2,relearn,47,442,A,34.988885306884015,59.91326473351242,1.7494442653442008,0.9411153616969152,A,591,Correct
2,relearn,47,443,B,67.07663226942866,36.930997621525265,3.353831613471433,0.5801107540876294,B,675,Correct
2,relearn,47,444,A,36.38725190067554,58.626673079989736,1.819362595033777,0.9209056272625312,A,667,Correct
2,relearn,47,445,B,71.99509773659258,54.9790152359616,3.599754886829629,0.8636083518344914,B,904,Correct
2,relearn,47,446,B,81.852937023237,65.75999656086812,4.092646851161851,1.0329556104785669,B,645,Incorrect
2,relearn,47,447,B,61.82982637305022,53.20377366361355,3.091491318652511,0.8357229224243125,A,574,Correct
2,relearn,47,448,B,50.16956241961855,23.22457736902661,2.5084781209809277,0.3648108082263088,B,361,Incorrect
2,relearn,47,449,A,38.78320855668376,49.8594662787164,1.9391604278341878,0.7831906648656173,A,424,Incorrect
2,relearn,47,450,A,37.84460723397175,55.77946817180855,1.8922303616985874,0.8761818371484972,B,319,Correct
2,relearn,47,451,A,41.400229320012905,57.99620496166478,2.0700114660006452,0.9110022572182699,B,656,Incorrect
2,relearn,47,452,A,52.86077019495712,70.8923403598715,2.6430385097478557,1.1135742783517975,A,311,Incorrect
2,relearn,47,453,A,23.165885349134243,37.80053691539835,1.158294267456712,0.5937694453758262,B,477,Correct
2,relearn,47,454,A,35.829112296911795,62.43703366137436,1.7914556148455898,0.9807586313125615,B,460,Incorrect
2,relearn,47,455,A,54.465409610542785,76.80927563560124,2.7232704805271393,1.2065172803217918,A,299,Incorrect
2,relearn,47,456,A,23.3145284527878,37.31040749416533,1.16572642263939,0.5860705104305568,A,1495,Incorrect
2,relearn,47,457,B,62.964059420616,37.99271784250651,3.1482029710308,0.5967882163196415,B,240,Incorrect
2,relearn,47,458,B,65.30019656330592,48.27227906392203,3.265009828165296,0.7582591863962691,B,385,Correct
2,relearn,47,459,B,68.12847315057385,42.178376171545416,3.406423657528693,0.6625363836043693,A,583,Incorrect
2,relearn,47,460,A,51.31391955305234,75.41827236619332,2.565695977652617,1.184667452060335,A,416,Correct
2,relearn,47,461,A,42.81503118958099,72.28160343031888,2.1407515594790496,1.135396771631903,B,525,Incorrect
2,relearn,47,462,B,64.72234260812431,44.2162893169499,3.2361171304062157,0.6945478484356532,A,262,Correct
2,relearn,47,463,B,82.17708905871146,57.310432713347936,4.108854452935573,0.9002301719315301,B,511,Correct
2,relearn,47,464,A,44.64730373329597,69.05001017262873,2.232365186664799,1.0846350234431545,B,729,Incorrect
2,relearn,47,465,A,15.324265051143914,30.697909724469643,0.7662132525571956,0.4822016383547825,A,420,Incorrect
2,relearn,47,466,A,42.17667326923146,74.76015552840616,2.108833663461573,1.1743297769463557,B,395,Incorrect
2,relearn,47,467,B,68.29630586247578,51.74516813316298,3.4148152931237887,0.8128112003295674,B,418,Incorrect
2,relearn,47,468,A,20.236250948095165,44.26595218265099,1.0118125474047581,0.6953279509058672,A,300,Incorrect
2,relearn,47,469,A,27.537164789778032,54.97046806521013,1.3768582394889017,0.8634740931902822,B,411,Incorrect
2,relearn,47,470,A,46.74136399793888,65.2432446119803,2.3370681998969443,1.0248384898467957,A,325,Correct
2,relearn,47,471,A,14.735385396652699,30.281031621708774,0.736769269832635,0.47565333242940255,A,368,Correct
2,relearn,47,472,B,37.94846328050308,24.82901783505205,1.8974231640251538,0.3900133001322474,B,476,Correct
2,relearn,47,473,B,68.89912766621327,49.069862853175074,3.444956383310664,0.7707876032609675,B,1121,Incorrect
2,relearn,47,474,A,57.67931591169044,69.78704067201278,2.8839657955845217,1.0962122714548372,A,454,Correct
2,relearn,47,475,A,13.159326144894926,32.67097890351367,0.6579663072447463,0.5131945365443283,A,294,Correct
2,relearn,47,476,A,35.22284591644692,65.65640180546485,1.761142295822346,1.0313283478659403,B,374,Incorrect
2,relearn,47,477,A,54.52764682501823,83.1571657898181,2.7263823412509116,1.306229705693205,A,295,Correct
2,relearn,47,478,A,56.28545050926455,72.25081595809604,2.8142725254632275,1.1349131631491136,A,496,Incorrect
2,relearn,47,479,B,32.03430593887961,19.541540827069415,1.6017152969439805,0.30695780551073143,A,751,Incorrect
2,relearn,47,480,A,36.0474401583596,62.03508431082821,1.80237200791798,0.9744448256786067,B,267,Correct
2,relearn,47,481,A,55.61352786481349,82.01597095475721,2.7806763932406744,1.2883038591424956,B,325,Incorrect
2,relearn,47,482,A,29.18245950946351,60.05772498790286,1.4591229754731754,0.9433845380665588,A,299,Incorrect
2,relearn,47,483,B,86.44265868129796,59.76526894043727,4.322132934064898,0.9387906492154798,A,330,Incorrect
2,relearn,47,484,B,67.36578500715419,57.43644820062242,3.368289250357709,0.9022096185768305,B,431,Correct
2,relearn,47,485,B,69.90084766210688,53.4354447071802,3.4950423831053445,0.8393620026669045,B,634,Correct
2,relearn,47,486,B,51.283393521857114,22.83378210177969,2.5641696760928556,0.3586722105231059,B,452,Correct
2,relearn,47,487,B,39.63192093745804,17.45646634067726,1.981596046872902,0.2742055320675459,A,285,Incorrect
2,relearn,47,488,A,15.964602410842545,31.618889024350864,0.7982301205421273,0.49666834736785803,B,102,Incorrect
2,relearn,47,489,A,51.00119286178693,81.6683491758566,2.5500596430893467,1.2828434290083857,A,800,Correct
2,relearn,47,490,A,48.006434704068774,64.78151871700055,2.4003217352034385,1.017585716448593,A,725,Correct
2,relearn,47,491,A,48.92249849957728,69.02961513659784,2.446124924978864,1.0843146589663328,B,554,Incorrect
2,relearn,47,492,A,39.80856411163411,72.43361262387853,1.9904282055817055,1.1377845264607285,A,662,Correct
2,relearn,47,493,A,30.40269730635616,41.14583733764545,1.5201348653178082,0.6463173015287379,A,832,Correct
2,relearn,47,494,A,67.65768759091824,87.95861608757687,3.3828843795459123,1.3816507106032825,B,262,Incorrect
2,relearn,47,495,A,29.08226199184072,44.321723499331156,1.4541130995920362,0.6962040046996842,B,312,Incorrect
2,relearn,47,496,A,16.063660532888466,43.56769694520929,0.8031830266444233,0.6843597832844799,A,435,Correct
2,relearn,47,497,A,16.79432595503504,41.43495266954068,0.8397162977517518,0.6508587145423489,A,481,Incorrect
2,relearn,47,498,A,25.787506337949104,48.23397814844544,1.2893753168974553,0.757657557022834,B,458,Incorrect
2,relearn,47,499,A,19.25828585582792,50.38040099185176,0.9629142927913961,0.791373488204547,A,2196,Correct
2,relearn,47,500,B,54.66547081714407,44.51752922489715,2.7332735408572035,0.6992797138445291,A,551,Incorrect
2,relearn,47,501,A,40.597457842863555,64.52446497894942,2.0298728921431777,1.013547925773397,B,300,Incorrect
2,relearn,47,502,A,43.32762698281001,64.69697786640859,2.1663813491405004,1.0162577518728533,A,265,Correct
2,relearn,47,503,A,52.910948320203474,79.84724403405427,2.645547416010174,1.2542375763338816,A,714,Correct
2,relearn,47,504,A,43.76029007984739,53.083504193913214,2.188014503992369,0.8338337340120038,B,468,Correct
2,relearn,47,505,A,30.83466543589111,48.4813585793142,1.5417332717945555,0.7615433997441299,B,296,Incorrect
2,relearn,47,506,B,83.7150696978571,58.647190965100854,4.185753484892855,0.9212279214481925,A,427,Incorrect
2,relearn,47,507,A,41.91928641510018,63.467918579678184,2.095964320755009,0.9969517337427606,B,356,Incorrect
2,relearn,47,508,A,60.56758672554593,87.23369120134862,3.0283793362772964,1.370263617118387,B,389,Correct
2,relearn,47,509,B,45.69081010412593,29.85408479834019,2.2845405052062966,0.4689468674105613,B,826,Incorrect
2,relearn,47,510,B,54.98328893869126,26.51535024429711,2.749164446934563,0.41650214767422067,A,464,Incorrect
2,relearn,47,511,B,67.07611279750205,41.07971350512527,3.3538056398751026,0.6452786307963747,B,289,Incorrect
2,relearn,47,512,A,35.940732535008976,66.24747724438427,1.7970366267504487,1.040612939149073,B,281,Incorrect
2,relearn,47,513,B,67.11126949108584,41.91392741468397,3.355563474554292,0.6583824322453349,B,424,Correct
2,relearn,47,514,A,37.49161787536881,57.22389683868575,1.8745808937684405,0.8988708695909767,B,405,Incorrect
2,relearn,47,515,B,48.239964870680126,41.295255730130776,2.4119982435340064,0.6486643601494533,A,304,Incorrect
2,relearn,47,516,B,76.8784386958545,60.36261150366117,3.8439219347927245,0.9481736842569833,B,286,Correct
2,relearn,47,517,B,71.82189508182758,40.41913462897304,3.5910947540913787,0.6349022820741925,B,593,Correct
2,relearn,47,518,A,13.86682693846797,30.940767875075938,0.6933413469233984,0.48601644526382815,A,785,Correct
2,relearn,47,519,A,44.33437625653552,64.35748664289852,2.216718812826776,1.0109250362041662,B,465,Incorrect
2,relearn,47,520,B,50.41728230475066,42.104718676847696,2.520864115237533,0.6613793743832485,B,524,Correct
2,relearn,47,521,B,43.44898539942845,31.758569881467572,2.172449269971423,0.4988624491406829,B,428,Incorrect
2,relearn,47,522,A,43.94152972979642,69.79585347596313,2.1970764864898213,1.0963507026555772,A,378,Incorrect
2,relearn,47,523,A,48.584972919068115,56.780327695590465,2.4292486459534057,0.8919033017844403,A,442,Incorrect
2,relearn,47,524,A,39.806906312131865,72.05552441070878,1.9903453156065933,1.1318455306962136,A,100,Correct
2,relearn,47,525,A,54.12179935827124,80.46995590646797,2.706089967913562,1.2640191115522716,B,428,Correct
2,relearn,47,526,B,63.46456177423231,50.61319569952533,3.1732280887116158,0.7950302189216563,B,548,Correct
2,relearn,47,527,B,74.44080611485481,62.223025882576565,3.7220403057427403,0.9773970049841503,B,559,Incorrect
2,relearn,47,528,B,68.51132196719387,40.52766184812564,3.425566098359693,0.6366070236462142,A,386,Correct
2,relearn,47,529,B,84.67006248752831,63.12346785677738,4.233503124376416,0.9915411144398163,A,544,Incorrect
2,relearn,47,530,B,80.32089307672102,67.28917764692137,4.016044653836051,1.0569759308083335,A,425,Incorrect
2,relearn,47,531,B,53.3832948071822,26.83838829965529,2.66916474035911,0.42157641758193654,B,279,Correct
2,relearn,47,532,A,13.023828816153646,30.37400343291541,0.6511914408076822,0.47711373022479103,B,344,Incorrect
2,relearn,47,533,B,75.7439155464816,59.424506745957686,3.7871957773240803,0.933437969181489,A,309,Incorrect
2,relearn,47,534,B,46.938046941896445,39.75631164436054,2.3469023470948223,0.6244906829787471,A,1041,Correct
2,relearn,47,535,A,26.877891487820825,52.55594789259844,1.343894574391041,0.8255468990091761,B,837,Incorrect
2,relearn,47,536,A,66.67110459108174,81.02042669955705,3.3335552295540873,1.2726658865501936,B,427,Correct
2,relearn,47,537,A,64.71232257858908,82.31683076877911,3.235616128929454,1.2930297540499536,B,661,Incorrect
2,relearn,47,538,A,21.07554924765563,45.839498242716104,1.0537774623827816,0.7200451546177957,A,450,Correct
2,relearn,47,539,A,54.57367235447663,65.49531325765933,2.7286836177238314,1.0287979748741238,B,484,Correct
2,relearn,47,540,B,69.15834136871553,60.32430996485765,3.4579170684357763,0.9475720450923516,A,1276,Incorrect
2,relearn,47,541,B,87.01776483277547,65.48305081838842,4.350888241638773,1.0286053569284805,B,541,Correct
2,relearn,47,542,A,60.17829025470647,74.91400785229595,3.008914512735323,1.1767464835987052,B,389,Correct
2,relearn,47,543,B,39.31962823489998,16.74635589955736,1.9659814117449992,0.2630511433422475,A,596,Correct
2,relearn,47,544,B,82.8539061964693,52.38953021246924,4.142695309823465,0.8229328162025695,B,775,Correct
2,relearn,47,545,A,28.203353273613516,38.31791011580354,1.4101676636806757,0.6018963246036122,A,472,Correct
2,relearn,47,546,B,50.087094873470576,28.083494116349257,2.5043547436735287,0.44113449401527494,B,433,Correct
2,relearn,47,547,B,56.348340925175656,37.953012776098994,2.817417046258783,0.5961645305949608,B,941,Correct
2,relearn,47,548,B,46.84694641380055,38.63381590714726,2.3423473206900276,0.6068585611701717,A,635,Incorrect
2,relearn,47,549,A,33.389473677372166,50.467535404262456,1.6694736838686084,0.7927421923540687,A,461,Correct
2,relearn,47,550,A,57.23091880749426,79.21050193090208,2.861545940374713,1.2442356547664104,B,744,Correct
2,relearn,47,551,A,21.18872470942666,39.1216254397504,1.059436235471333,0.6145210553900572,A,638,Correct
2,relearn,47,552,B,34.47949208249043,11.335324325048845,1.7239746041245214,0.1780548581281557,B,651,Correct
2,relearn,47,553,B,70.3319113838979,58.99570653114587,3.5165955691948954,0.9267023911579363,B,668,Correct
2,relearn,47,554,B,35.16999562280499,19.124287959189115,1.7584997811402496,0.3004036127886213,A,663,Incorrect
2,relearn,47,555,B,79.57201285356427,48.053317649514675,3.978600642678214,0.7548197485416602,B,533,Correct
2,relearn,47,556,A,27.340757087467935,39.80023532083956,1.3670378543733965,0.6251806344754729,A,674,Correct
2,relearn,47,557,B,39.978494678234156,18.8983235898241,1.9989247339117078,0.2968541727747704,A,725,Incorrect
2,relearn,47,558,A,65.86160154940559,81.58367594498944,3.2930800774702793,1.2815133850081457,B,623,Correct
2,relearn,47,559,A,35.02557194789363,67.41945498060296,1.7512785973946816,1.0590223223804502,A,648,Correct
2,relearn,47,560,A,34.40045145398637,46.550085257115605,1.7200225726993184,0.7312070293386644,A,964,Incorrect
2,relearn,47,561,B,72.63140446824565,56.0399614303412,3.6315702234122824,0.8802736556850763,B,616,Incorrect
2,relearn,47,562,B,44.543331705126946,15.424729133184144,2.2271665852563474,0.24229107864211885,A,329,Incorrect
2,relearn,47,563,B,71.01862286465818,46.085136376986924,3.5509311432329094,0.7239036294081292,B,323,Incorrect
2,relearn,47,564,B,78.54558462828749,60.801967032935565,3.9272792314143743,0.9550750647723957,B,66,Correct
2,relearn,47,565,B,85.49886500147694,64.14147661312666,4.274943250073847,1.007531958591001,B,606,Correct
2,relearn,47,566,B,67.23998956797557,46.41676182668418,3.3619994783987783,0.7291127897906908,A,769,Incorrect
2,relearn,47,567,A,33.4954432273018,58.64412205931017,1.6747721613650899,0.9211797151887597,A,517,Correct
2,relearn,47,568,B,61.106286522174614,54.03027750103128,3.0553143261087308,0.8487056143432887,B,505,Correct
2,relearn,47,569,A,58.3551621169236,78.35688649119186,2.91775810584618,1.2308270947944882,B,747,Correct
2,relearn,47,570,A,40.96866402176028,54.32221063976919,2.048433201088014,0.8532912893632809,A,1166,Correct
2,relearn,47,571,A,29.91266773003335,61.79981704096686,1.4956333865016673,0.970749256045474,A,897,Incorrect
2,relearn,47,572,B,39.95326414674881,21.086836260566,1.9976632073374403,0.331231249418225,A,1184,Incorrect
2,relearn,47,573,B,63.22782964315151,55.61624450890696,3.1613914821575753,0.8736179258471789,B,331,Incorrect
2,relearn,47,574,B,39.896091556717835,13.726089664057824,1.9948045778358918,0.21560891225559425,A,1264,Correct
2,relearn,47,575,B,79.2089984132399,61.265343950668154,3.9604499206619947,0.9623537723753548,B,657,Correct
2,relearn,47,576,B,80.87953300262583,62.04073958230737,4.043976650131292,0.9745336584752716,B,527,Correct
2,relearn,47,577,B,48.93104923654242,41.36332337845991,2.446552461827121,0.649733564269143,A,807,Correct
2,relearn,47,578,B,53.551512522455454,37.18750974046194,2.677575626122773,0.5841400370296705,A,713,Incorrect
2,relearn,47,579,A,37.28124558954297,50.37864512019783,1.8640622794771486,0.791345907037104,B,361,Correct
2,relearn,47,580,A,37.369122144207566,55.842456513438165,1.8684561072103782,0.877171255705124,A,1014,Correct
2,relearn,47,581,B,78.50922535982535,59.3198574796353,3.9254612679912673,0.9317941423500791,B,850,Correct
2,relearn,47,582,A,46.77446168531088,73.02532817668961,2.338723084265544,1.147079172629359,A,687,Incorrect
2,relearn,47,583,A,42.744664931196326,63.79763729837721,2.1372332465598163,1.0021309432648402,B,382,Incorrect
2,relearn,47,584,A,49.58211616968324,65.09751038678094,2.479105808484162,1.0225493019904812,B,517,Correct
2,relearn,47,585,A,23.822888456610315,35.97372145895013,1.1911444228305157,0.5650738952886161,A,694,Incorrect
2,relearn,47,586,B,64.03944158367776,38.67005602761938,3.201972079183888,0.6074278196513737,B,566,Correct
2,relearn,47,587,A,58.41378280150899,70.49288375955285,2.9206891400754493,1.1072996287468524,B,708,Incorrect
2,relearn,47,588,B,51.54302829478728,42.22776473539119,2.577151414739364,0.6633121773511155,A,1142,Incorrect
2,relearn,47,589,B,66.81932167623741,36.69265116060185,3.34096608381187,0.5763668166343988,B,698,Correct
2,relearn,47,590,A,40.91180112419713,70.40173566574751,2.0455900562098566,1.1058678778374145,A,651,Correct
2,relearn,47,591,B,55.74117987568576,43.4129614830338,2.787058993784288,0.6819292043283782,B,532,Correct
2,relearn,47,592,B,54.724530458520036,41.74566185055509,2.7362265229260014,0.6557393229447377,A,670,Incorrect
2,relearn,47,593,B,40.0506815828998,21.806320927651242,2.00253407914499,0.3425328881406525,B,822,Incorrect
2,relearn,47,594,B,36.33052757454734,17.25427731374169,1.816526378727367,0.2710295542592596,A,526,Correct
2,relearn,47,595,A,32.076278928595826,53.03238629918534,1.6038139464297914,0.8330307759992833,A,427,Correct
2,relearn,47,596,A,19.430022364691805,37.60367807937652,0.9715011182345903,0.590677194010624,A,662,Correct
2,relearn,47,597,A,49.64186535015688,74.77095891336185,2.4820932675078438,1.1744994761204095,B,633,Incorrect
2,relearn,47,598,B,51.38584081094331,23.94878662993875,2.5692920405471655,0.3761866606950252,A,531,Correct
2,relearn,47,599,B,80.79526987492758,50.08810062487971,4.0397634937463796,0.7867820447769419,B,598,Correct
2,relearn,47,600,A,17.86287180838859,38.77517414877611,0.8931435904194295,0.6090790112372995,A,687,Correct
2,relearn,47,601,B,64.73505412903776,52.06183707458293,3.2367527064518877,0.8177854244294923,B,1422,Correct
2,relearn,47,602,A,53.665926583515876,69.89814323687276,2.6832963291757936,1.0979574664626326,A,1742,Correct
2,relearn,47,603,A,34.869902924932035,44.963064111274754,1.7434951462466017,0.7062781594743383,A,1027,Correct
2,relearn,47,604,B,71.09828304276024,50.48940731677886,3.5549141521380125,0.7930857555524761,B,445,Correct
2,relearn,47,605,A,19.54323453145211,36.002191987797474,0.9771617265726056,0.5655211093099693,A,717,Correct
2,relearn,47,606,B,64.50887478217315,49.803987821222194,3.2254437391086577,0.7823192112931359,B,717,Correct
2,relearn,47,607,A,31.558126680145627,51.22630645155008,1.5779063340072812,0.8046609400936457,A,868,Correct
2,relearn,47,608,B,41.665523608718345,31.730854803522853,2.083276180435917,0.49842710171435894,A,2950,Incorrect
2,relearn,47,609,A,24.585343944598318,42.20570661108293,1.2292671972299158,0.6629656891447215,A,682,Correct
2,relearn,47,610,B,77.95634692442196,46.67201702846243,3.897817346221098,0.7331223291241765,B,783,Correct
2,relearn,47,611,B,47.188287149764726,16.887086243743447,2.3594143574882365,0.26526173041940837,B,1259,Correct
2,relearn,47,612,B,49.51298501081184,20.80394826053753,2.475649250540592,0.3267876551048344,B,1163,Correct
2,relearn,47,613,B,38.68507889707546,24.69473061827385,1.9342539448537732,0.3879039214637403,B,1386,Correct
2,relearn,47,614,B,32.33860381063776,12.919814161899943,1.6169301905318878,0.20294396628385114,A,469,Incorrect
2,relearn,47,615,A,56.288568594700436,72.14437820009812,2.814428429735022,1.1332412427561591,B,747,Incorrect
2,relearn,47,616,A,22.070947284552094,34.316383013711615,1.1035473642276046,0.5390404838682499,A,420,Correct
2,relearn,47,617,A,45.04536206376598,60.71071744847604,2.252268103188299,0.9536417196514901,B,900,Incorrect
2,relearn,47,618,B,72.49306939474323,48.357725788907764,3.624653469737161,0.7596013804137115,B,658,Correct
2,relearn,47,619,B,46.16361265544805,26.336011552777897,2.3081806327724026,0.41368510209531484,A,780,Incorrect
2,relearn,47,620,A,22.001640336908853,46.25623454524238,1.1000820168454426,0.7265912331502994,A,525,Correct
2,relearn,47,621,A,55.40972961533782,70.08816821294167,2.7704864807668907,1.100942371806716,B,404,Incorrect
2,relearn,47,622,A,40.42228823400702,63.6021633811692,2.021114411700351,0.9990604461534947,B,860,Incorrect
2,relearn,47,623,B,75.89865754667044,50.474390913116466,3.794932877333522,0.7928498784353306,B,549,Correct
2,relearn,47,624,A,36.12037778554126,61.473797279861714,1.8060188892770628,0.9656281496134088,B,1339,Incorrect
2,relearn,47,625,A,24.259062954190263,43.3655753454989,1.212953147709513,0.6811848646205699,A,516,Correct
2,relearn,47,626,A,19.78685647856576,37.69758827202661,0.9893428239282881,0.5921523318672577,B,717,Incorrect
2,relearn,47,627,B,52.28587927855877,40.8413519163933,2.6142939639279383,0.6415344557160831,B,657,Correct
2,relearn,47,628,B,44.596410130506676,18.47488436310935,2.229820506525334,0.29020280495532635,B,848,Correct
2,relearn,47,629,B,81.23245547907689,57.32503365256717,4.061622773953844,0.9004595229484634,B,579,Correct
2,relearn,47,630,A,19.31821553660248,36.81608523969812,0.965910776830124,0.578305714614856,A,567,Correct
2,relearn,47,631,A,47.234356184041594,61.85849571797565,2.3617178092020796,0.97167097854854,B,573,Incorrect
2,relearn,47,632,B,45.780547231598895,27.52489492932154,2.2890273615799446,0.4323600385039375,B,1148,Correct
2,relearn,47,633,B,78.55184588038813,50.9500188690747,3.9275922940194063,0.8003210248967321,B,1008,Correct
2,relearn,47,634,A,51.689020197828114,81.04878098992543,2.5844510098914055,1.273111274701789,A,885,Correct
2,relearn,47,635,B,75.32966472103607,62.37185745193652,3.7664832360518035,0.9797348458087678,B,632,Correct
2,relearn,47,636,A,43.18240536932193,53.84174537421018,2.1591202684660966,0.8457441586203547,A,552,Correct
2,relearn,47,637,B,47.103288856706776,38.51145757093823,2.355164442835339,0.6049365609194727,B,988,Correct
2,relearn,47,638,A,48.57748317275483,60.42395446935603,2.4288741586377416,0.9491372573088654,B,609,Incorrect
2,relearn,47,639,A,43.93690640967736,54.19337859256957,2.196845320483868,0.8512676002981346,B,454,Incorrect
2,relearn,47,640,B,74.97858030738433,47.552625993017344,3.7489290153692165,0.7469549023928317,B,1023,Correct
2,relearn,47,641,B,53.625171965077236,39.281991780704296,2.6812585982538617,0.6170400839831762,B,563,Correct
2,relearn,47,642,A,49.8986016636732,65.5703752456147,2.4949300831836596,1.0299770458237458,A,806,Correct
2,relearn,47,643,A,36.055204953298855,56.59667481962051,1.802760247664943,0.8890184891546511,A,562,Correct
2,relearn,47,644,A,32.916767119665494,55.17464307680454,1.6458383559832748,0.8666812667726405,A,1751,Correct
2,relearn,47,645,B,63.40318407418046,47.064120088467874,3.170159203709023,0.7392814695879925,B,800,Correct
2,relearn,47,646,A,36.76381319032918,54.81311614770384,1.8381906595164592,0.8610024150499522,A,763,Correct
2,relearn,47,647,B,47.494053849669925,35.42730178915342,2.374702692483496,0.5564907551865645,B,1827,Correct
2,relearn,47,648,B,69.7977912760422,52.015062399085096,3.48988956380211,0.8170506895449021,B,997,Correct
2,relearn,47,649,B,73.56299577287416,55.97274242498924,3.678149788643708,0.8792177820180999,A,1061,Incorrect
2,relearn,47,650,A,39.904538642495204,69.92865867134003,1.9952269321247602,1.0984368017863502,A,454,Correct
2,relearn,47,651,A,63.252057101702576,87.44927594166562,3.1626028550851286,1.3736500143004167,B,683,Incorrect
2,relearn,47,652,B,72.77686523571485,60.09248685479342,3.638843261785743,0.943930576194801,B,809,Correct
2,relearn,47,653,A,22.27902787035583,42.41737899676387,1.1139513935177916,0.6662906312038369,A,458,Correct
2,relearn,47,654,B,50.024262812253056,28.803934073791062,2.501213140612653,0.4524511384035336,B,616,Correct
2,relearn,47,655,B,42.607501318127106,28.7661769478321,2.1303750659063554,0.45185805085586694,B,520,Correct
2,relearn,47,656,B,67.68915228050601,38.98174195735018,3.3844576140253,0.6123237707867217,B,588,Correct
2,relearn,47,657,A,21.482126842546567,35.401461049299,1.0741063421273283,0.5560848497941148,A,578,Correct
2,relearn,47,658,B,46.55714988800676,20.866022467147047,2.3278574944003383,0.32776271446214367,B,736,Correct
2,relearn,47,659,A,43.59823190019747,56.32544665406014,2.1799115950098735,0.8847580470927956,A,772,Correct
2,relearn,47,660,B,83.04871885541164,64.33010881627165,4.152435942770581,1.0104949863091548,B,493,Correct
2,relearn,47,661,B,45.05626726885746,27.16788094287184,2.252813363442873,0.42675207591864156,A,1871,Incorrect
2,relearn,47,662,A,49.54169353224528,67.6903104733726,2.477084676612264,1.0632769105117978,B,682,Incorrect
2,relearn,47,663,A,46.07492684894321,71.186413410059,2.3037463424471607,1.1181935670222363,B,862,Incorrect
2,relearn,47,664,A,16.653993268276754,36.772128151691476,0.8326996634138376,0.5776152382910817,A,724,Correct
2,relearn,47,665,A,21.127777487076898,41.36879774216076,1.056388874353845,0.6498195553730712,A,571,Correct
2,relearn,47,666,B,45.550638298664566,19.96353704054523,2.2775319149332285,0.31358650653122305,B,806,Correct
2,relearn,47,667,B,54.42657782271402,46.195029762771526,2.721328891135701,0.7256298306754243,B,667,Correct
2,relearn,47,668,B,45.86387167828082,17.741453517623977,2.293193583914041,0.2786821001748614,B,658,Correct
2,relearn,47,669,A,66.99754305277364,83.440852531128,3.3498771526386815,1.310685846605305,B,786,Incorrect
2,relearn,47,670,B,83.57946395326451,59.95524679896639,4.178973197663225,0.941774814438979,B,593,Correct
2,relearn,47,671,A,62.15099799848564,71.87152831898287,3.107549899924282,1.1289553268459367,B,534,Incorrect
2,relearn,47,672,B,75.22819599040636,56.163669937794154,3.761409799520318,0.8822168643760802,A,669,Incorrect
2,relearn,47,673,B,34.31080809245026,11.617723171561824,1.715540404622513,0.1824907688360927,A,837,Incorrect
2,relearn,47,674,B,85.5962045870467,66.92258975949149,4.279810229352335,1.05121758173811,B,502,Correct
2,relearn,47,675,A,49.51130647936183,59.8623805105877,2.4755653239680915,0.9403160741922956,A,807,Correct
2,relearn,47,676,B,41.245193353003586,14.327181988617916,2.062259667650179,0.22505084841043022,A,766,Incorrect
2,relearn,47,677,A,66.2111823211436,80.25662684301528,3.31055911605718,1.260668146459571,B,401,Incorrect
2,relearn,47,678,B,43.49082345568261,20.114574171625748,2.17454117278413,0.31595899223833224,A,826,Incorrect
2,relearn,47,679,A,50.69285661876984,76.10022348067778,2.534642830938492,1.195379515117194,B,620,Incorrect
2,relearn,47,680,B,88.94908377030798,64.15454037556373,4.447454188515399,1.0077371636915038,B,522,Correct
2,relearn,47,681,A,36.589907457911174,58.771178648362394,1.8294953728955587,0.9231755154225432,A,463,Correct
2,relearn,47,682,A,54.49618283521309,71.77512405568186,2.7248091417606544,1.1274410122191307,B,500,Incorrect
2,relearn,47,683,B,63.24247873144008,50.87542860358861,3.1621239365720037,0.7991493637463299,B,988,Correct
2,relearn,47,684,A,60.6398553628984,75.7358630163404,3.03199276814492,1.1896561543270896,B,625,Incorrect
2,relearn,47,685,B,64.17158007727483,40.72136212766764,3.208579003863741,0.6396496605222514,B,855,Correct
2,relearn,47,686,A,56.03779662596582,84.13388110394142,2.8018898312982907,1.3215719139706974,A,857,Correct
2,relearn,47,687,B,80.72135234664646,55.067993130746885,4.036067617332322,0.865006013337438,B,764,Correct
2,relearn,47,688,B,57.997607981092216,39.95422034688061,2.8998803990546107,0.6275994256083398,B,498,Correct
2,relearn,47,689,A,47.963232619312194,78.53800501633877,2.3981616309656095,1.2336720979346412,A,586,Correct
2,relearn,47,690,A,52.6453358217313,63.244080432315954,2.632266791086565,0.993435692346029,B,545,Incorrect
2,relearn,47,691,A,21.79632362324551,51.87927478807452,1.0898161811622755,0.8149177427389053,A,378,Correct
2,relearn,47,692,A,41.01262949437978,52.791022826980054,2.050631474718989,0.829239447443658,B,524,Incorrect
2,relearn,47,693,B,73.0784252279165,51.30806587907294,3.653921261395825,0.8059452141779834,A,363,Incorrect
2,relearn,47,694,A,59.176752038870205,77.1744965645691,2.95883760194351,1.2122541572587051,B,366,Incorrect
2,relearn,47,695,B,83.35231584301002,53.28842866545555,4.167615792150501,0.8370526800836945,B,432,Correct
2,relearn,47,696,A,44.511359789261746,61.410437236105466,2.2255679894630873,0.9646328923734301,B,483,Incorrect
2,relearn,47,697,B,67.92376319632685,38.49239468591653,3.396188159816342,0.6046371218217708,B,513,Correct
2,relearn,47,698,A,24.058678685193872,53.19996433363814,1.2029339342596936,0.8356630856089831,A,615,Correct
2,relearn,47,699,A,16.87047378564776,41.9720203503635,0.8435236892823881,0.6592949539451164,A,566,Correct
2,relearn,47,700,B,39.57838275024184,19.28789215162354,1.9789191375120923,0.30297350143386376,B,511,Correct
2,relearn,47,701,B,60.36996513011544,34.102514149376354,3.018498256505772,0.5356810396031136,B,481,Correct
2,relearn,47,702,A,23.21824895801633,55.52046734208704,1.1609124479008164,0.8721134616288634,A,527,Correct
2,relearn,47,703,B,48.65697366306135,41.50131482103936,2.432848683153068,0.6519011287804722,B,394,Correct
2,relearn,47,704,B,60.93881939951609,49.766091597053865,3.0469409699758048,0.7817239387959058,B,561,Correct
2,relearn,47,705,A,40.017943755655665,61.669443770951325,2.0008971877827832,0.9687013575089477,B,555,Incorrect
2,relearn,47,706,A,40.78657999022034,62.40610200009013,2.039328999511017,0.9802727579132924,A,505,Correct
2,relearn,47,707,B,59.0777538787689,36.65152797965403,2.9538876939384453,0.5757208552186092,B,593,Correct
2,relearn,47,708,B,34.792140848412075,13.537608821935265,1.7396070424206038,0.21264826211082102,A,577,Incorrect
2,relearn,47,709,B,62.21800781658473,43.61831551778055,3.110900390829237,0.6851548979631054,B,615,Correct
2,relearn,47,710,B,59.62345480290883,42.62534533072884,2.9811727401454413,0.6695573587387286,B,666,Correct
2,relearn,47,711,A,48.38951656496578,73.64217618890989,2.4194758282482893,1.1567685985472225,A,533,Correct
2,relearn,47,712,A,17.894982839115706,45.36774525888016,0.8947491419557853,0.7126348760761554,A,554,Correct
2,relearn,47,713,B,81.24062452524683,52.042683548132395,4.0620312262623415,0.8174845615395554,B,560,Correct
2,relearn,47,714,A,46.70157848424184,53.97884250473581,2.3350789242120924,0.8478976753107926,A,651,Correct
2,relearn,47,715,B,72.28352903408786,58.81441384172044,3.614176451704393,0.9238546522516938,B,618,Correct
2,relearn,47,716,B,54.257917973171935,25.666840450743557,2.712895898658597,0.40317378700458645,A,649,Incorrect
2,relearn,47,717,B,40.39135784491488,23.30442270437764,2.019567892245744,0.36606501582111983,A,476,Incorrect
2,relearn,47,718,A,19.98119094467485,34.874333254786805,0.9990595472337425,0.5478047457604022,A,402,Correct
2,relearn,47,719,B,75.78784758914736,58.84432205024983,3.789392379457368,0.9243244492926835,B,500,Correct
2,relearn,47,720,B,49.13215669997782,30.66295761056436,2.456607834998891,0.4816526118334211,B,697,Correct
2,relearn,47,721,B,51.258037361660094,39.08769896377852,2.5629018680830047,0.6139881395516799,A,544,Incorrect
2,relearn,47,722,A,54.448387364762986,69.23450513974637,2.7224193682381492,1.08753306360976,B,545,Incorrect
2,relearn,47,723,B,33.669773742732474,22.550957686626756,1.6834886871366237,0.35422961499860445,B,910,Correct
2,relearn,47,724,B,66.54437702635548,51.17618285270005,3.3272188513177743,0.8038736004440521,B,723,Correct
2,relearn,47,725,B,62.15364106289526,47.790205010117035,3.107682053144763,0.750686784866669,B,587,Correct
2,relearn,47,726,B,77.34421249306227,57.562217644188365,3.8672106246531137,0.9041852003765947,B,529,Correct
2,relearn,47,727,B,57.247561983976524,39.77791119428658,2.8623780991988266,0.6248299679155895,B,666,Correct
2,relearn,47,728,A,38.60772354869629,52.926196564319994,1.9303861774348148,0.831362751544585,B,533,Incorrect
2,relearn,47,729,A,46.544868442160734,53.952927412184025,2.3272434221080367,0.8474906019889035,B,778,Incorrect
2,relearn,47,730,B,68.24220139375308,55.57140276296845,3.412110069687654,0.872913553349106,B,702,Correct
2,relearn,47,731,B,85.5369646309606,65.79278293995266,4.27684823154803,1.0334706177169157,B,446,Correct
2,relearn,47,732,A,36.71279588288194,59.838586733909466,1.8356397941440972,0.9399423224222281,A,680,Correct
2,relearn,47,733,A,36.638021513327914,60.385789701747875,1.8319010756663956,0.9485377665411465,A,728,Correct
2,relearn,47,734,B,68.28792323518178,55.84171170828612,3.4143961617590888,0.8771595563331541,B,695,Correct
2,relearn,47,735,B,89.26547897566697,67.01506300967341,4.463273948783348,1.0526701481552354,B,764,Correct
2,relearn,47,736,B,63.12900299562112,55.30009142402963,3.1564501497810564,0.8686518048028771,A,679,Incorrect
2,relearn,47,737,B,64.47653846183424,34.425249798347224,3.2238269230917123,0.5407505593224057,B,350,Correct
2,relearn,47,738,A,39.85236118813538,61.146807494603166,1.992618059406769,0.9604918060775731,B,438,Incorrect
2,relearn,47,739,A,30.104469708136854,46.760707746436694,1.5052234854068427,0.7345154796643243,A,640,Correct
2,relearn,47,740,A,58.808772665329585,84.83504250444939,2.940438633266479,1.3325857314947802,B,531,Incorrect
2,relearn,47,741,B,79.38429420915078,66.74783388280773,3.969214710457539,1.0484725228463032,B,756,Correct
2,relearn,47,742,A,68.23097004881737,85.62873578895234,3.4115485024408683,1.3450530364537703,A,670,Correct
2,relearn,47,743,B,60.42291187000262,30.05119295399857,3.021145593500131,0.4720430350794563,B,819,Correct
2,relearn,47,744,A,46.06691369969235,53.386876703851584,2.3033456849846177,0.838599098254621,B,1282,Incorrect
2,relearn,47,745,B,53.4909858582163,21.423609002941394,2.674549292910815,0.3365212632851042,A,592,Incorrect
2,relearn,47,746,A,42.23754677605418,63.42869991540458,2.1118773388027092,0.9963356884049328,A,417,Correct
2,relearn,47,747,B,67.36187297138684,34.80502826190384,3.3680936485693422,0.5467161054779112,B,581,Correct
2,relearn,47,748,A,21.541139376653472,35.229662123264404,1.0770569688326737,0.5533862385744903,A,765,Correct
2,relearn,47,749,A,46.388876524062475,68.13441836565927,2.319443826203124,1.0702529409708432,B,433,Incorrect
2,relearn,47,750,A,43.72834601252396,59.18507444531161,2.1864173006261978,0.9296769753977797,A,417,Correct
2,relearn,47,751,A,36.427050269953966,54.45411539441528,1.8213525134976982,0.8553632444041295,B,340,Incorrect
2,relearn,47,752,A,28.693143831857782,58.96015917048468,1.4346571915928892,0.9261440145223978,A,689,Correct
2,relearn,47,753,A,20.42903840290981,43.591163704441186,1.0214519201454906,0.6847283982765123,A,546,Correct
2,relearn,47,754,A,11.880188187818689,31.35352499128019,0.5940094093909345,0.49250001888374917,A,391,Correct
2,relearn,47,755,B,40.47887917944705,27.445168856779027,2.0239439589723527,0.43110770428494183,A,1350,Incorrect
2,relearn,47,756,A,52.86960318818589,64.81579388597632,2.643480159409295,1.0181241095438671,B,359,Incorrect
2,relearn,47,757,A,22.16273973486573,53.947074153120155,1.1081369867432866,0.8473986592105305,A,444,Correct
2,relearn,47,758,B,66.13300459562507,37.19710700390284,3.306650229781253,0.5842907904912731,B,539,Correct
2,relearn,47,759,A,46.88036442582101,55.43432509043711,2.34401822129105,0.8707603423041279,B,679,Incorrect
2,relearn,47,760,A,45.89972019874939,74.883802084734,2.2949860099374693,1.176272012511362,B,489,Incorrect
2,relearn,47,761,A,22.706254075143757,50.07021755912861,1.135312703757188,0.7865011382370055,A,401,Correct
2,relearn,47,762,A,31.868130965385753,41.397227282797445,1.5934065482692876,0.650266125553117,A,361,Correct
2,relearn,47,763,A,39.07227189663357,67.69698151026256,1.9536135948316786,1.0633816989142246,B,295,Incorrect
2,relearn,47,764,A,27.676198450077102,57.39767979399978,1.383809922503855,0.9016006458696451,A,511,Correct
2,relearn,47,765,A,29.333139026015374,60.03706159349609,1.4666569513007688,0.9430599582262262,A,559,Correct
2,relearn,47,766,A,38.46291752716941,53.888914947873275,1.9231458763584703,0.8464850965508194,A,669,Correct
2,relearn,47,767,B,87.16469177463335,63.35045873475626,4.358234588731667,0.995106678813268,B,481,Correct
2,relearn,47,768,A,30.807403630875925,63.29093234001032,1.540370181543796,0.9941716403911255,A,417,Correct
2,relearn,47,769,B,67.2317891692217,44.946312060008154,3.361589458461085,0.7060150188683796,B,352,Correct
2,relearn,47,770,A,22.627763323204253,43.86983777924368,1.1313881661602125,0.6891058004072396,A,371,Correct
2,relearn,47,771,A,40.74669425623559,53.70260508344198,2.03733471281178,0.8435585480438761,A,941,Correct
2,relearn,47,772,A,45.22243201086822,54.3598779770069,2.2611216005434107,0.8538829665130122,B,381,Incorrect
2,relearn,47,773,A,49.20032716406055,62.33903462081915,2.4600163582030277,0.979219265983226,A,363,Correct
2,relearn,47,774,B,36.187495954410515,12.834854082107654,1.8093747977205257,0.20160941647123184,A,460,Incorrect
2,relearn,47,775,A,37.34944509110506,54.96708352046804,1.867472254555253,0.8634209288857949,B,350,Incorrect
2,relearn,47,776,B,56.408664781272066,39.067661205335284,2.8204332390636035,0.6136733871780814,B,325,Correct
2,relearn,47,777,B,82.93826114260389,66.6110621746217,4.146913057130194,1.0463241178780223,B,673,Correct
2,relearn,47,778,B,69.82721516323953,59.202561945122184,3.4913607581619766,0.9299516684024525,B,693,Correct
2,relearn,47,779,B,86.56586797947199,62.9535234737852,4.328293398973599,0.9888716343141809,B,645,Correct
2,relearn,47,780,A,42.7107495417413,67.35686835417879,2.135537477087065,1.0580392139515145,A,697,Correct
2,relearn,47,781,A,37.24407324321246,48.7868931338671,1.862203662160623,0.766342725304136,A,645,Correct
2,relearn,47,782,B,58.201235270862064,43.32515543547683,2.910061763543103,0.6805499501586495,B,632,Correct
2,relearn,47,783,B,64.08805263318175,44.469919747032186,3.2044026316590872,0.69853186591502,B,643,Correct
2,relearn,47,784,B,53.386666152697956,27.30960064493658,2.669333307634898,0.42897820379301915,B,998,Correct
2,relearn,47,785,B,48.55159847694953,24.167123153047015,2.4275799238474765,0.37961628278006154,B,553,Correct
2,relearn,47,786,B,59.57922633820752,46.19193710164052,2.9789613169103757,0.7255812512679783,B,681,Correct
2,relearn,47,787,B,70.93855314304025,43.74796478331777,3.546927657152013,0.6871914238638804,B,571,Correct
2,relearn,47,788,A,15.053694494226438,31.147229403500294,0.7526847247113219,0.4892595353685626,A,464,Correct
2,relearn,47,789,A,64.25318487050914,86.18303106952419,3.212659243525457,1.3537598863605902,B,403,Incorrect
2,relearn,47,790,B,56.44345709991612,48.417735868223026,2.8221728549958063,0.7605440165353025,B,420,Correct
2,relearn,47,791,B,65.43073176848132,54.503021257337316,3.271536588424066,0.8561314559024962,B,603,Correct
2,relearn,47,792,B,47.21302007235984,30.110206042229713,2.360651003617992,0.47297001050171933,A,446,Incorrect
2,relearn,47,793,A,51.70970591133385,60.856718763850076,2.5854852955666923,0.9559351029504577,A,1060,Correct
2,relearn,47,794,B,50.59670082445774,24.250254105527755,2.529835041222887,0.38092210072805865,B,655,Correct
2,relearn,47,795,A,52.31781885635041,82.00710969194762,2.6158909428175203,1.2881646667517748,A,866,Correct
2,relearn,47,796,B,49.24891308091982,32.66297207349238,2.462445654045991,0.5130687655524612,B,1469,Correct
2,relearn,47,797,B,58.438378327202685,25.799787533234717,2.9219189163601347,0.4052621148929386,A,748,Incorrect
2,relearn,47,798,A,54.55027538448374,75.14300156339078,2.7275137692241866,1.1803435084011742,B,614,Incorrect
2,relearn,47,799,B,47.37375028995885,17.208608158481407,2.3686875144979425,0.2703121848459529,B,613,Correct
2,relearn,47,800,A,43.143806791963655,64.03022674554411,2.1571903395981824,1.0057844497574502,B,451,Incorrect
2,relearn,47,801,A,27.011811417343672,54.677003928056344,1.3505905708671835,0.8588643693034104,A,631,Correct
2,relearn,47,802,A,35.113875848698626,65.70694584605677,1.7556937924349314,1.0321222917989714,A,1629,Correct
2,relearn,47,803,B,51.802644624233345,34.63092060435508,2.5901322312116672,0.5439812287884667,B,643,Correct
2,relearn,47,804,B,45.671048706715844,19.95209302141938,2.283552435335792,0.3134067442991565,B,483,Correct
2,relearn,47,805,B,77.54767933632851,46.799008058620245,3.877383966816426,0.7351170995612544,B,638,Correct
2,relearn,47,806,B,80.45263357401308,49.713577837473906,4.0226316787006535,0.7808990545893618,B,530,Correct
2,relearn,47,807,A,47.33377027043164,74.30600673823628,2.366688513521582,1.1671960244321835,B,418,Incorrect
2,relearn,47,808,B,74.13277034289604,52.66569802231074,3.706638517144802,0.8272708500153496,B,607,Correct
2,relearn,47,809,B,51.15280431687317,35.860333250399385,2.5576402158436586,0.5632927974736824,B,469,Correct
2,relearn,47,810,A,53.656535795757165,63.56225340735269,2.6828267897878586,0.99843354175076,B,520,Incorrect
2,relearn,47,811,B,68.14071498488006,36.909241378610865,3.407035749244003,0.5797690078230815,B,421,Correct
2,relearn,47,812,A,42.313509755747916,69.54356322771892,2.115675487787396,1.0923877367032953,B,499,Incorrect
2,relearn,47,813,B,48.547375471434265,19.091149838500705,2.4273687735717133,0.2998830804060789,A,1281,Incorrect
2,relearn,47,814,B,34.138748602480746,10.924175996356801,1.7069374301240372,0.1715965552833824,A,408,Incorrect
2,relearn,47,815,A,40.29540653064865,60.1099172724304,2.0147703265324326,0.9442043725547877,A,979,Correct
2,relearn,47,816,A,41.002573397678916,68.07012748061439,2.050128669883946,1.0692430621100943,B,509,Incorrect
2,relearn,47,817,B,52.01365266390411,29.22860674244723,2.6006826331952055,0.45912188108368657,B,607,Correct
2,relearn,47,818,B,47.1868553521564,29.774530483355854,2.35934276760782,0.4676972311529805,B,503,Correct
2,relearn,47,819,B,41.56282373748803,22.31878207460242,2.0781411868744017,0.3505826090132126,B,534,Correct
2,relearn,47,820,A,47.095376490917936,64.30189843975792,2.354768824545897,1.0100518587511023,B,550,Incorrect
2,relearn,47,821,A,27.893380178587094,44.773268040595724,1.3946690089293547,0.703296849767711,B,421,Incorrect
2,relearn,47,822,B,67.26543783784828,51.479580080877795,3.363271891892414,0.8086393529598656,B,516,Correct
2,relearn,47,823,A,22.516920462941844,41.151802673160674,1.1258460231470921,0.6464110047998919,A,543,Correct
2,relearn,47,824,B,52.96535935034312,33.51894387472946,2.6482679675171563,0.5265143391646934,B,553,Correct
2,relearn,47,825,A,32.689156044253785,52.58948422321438,1.6344578022126894,0.826073686458633,A,885,Correct
2,relearn,47,826,B,84.43169659565521,64.2038828516851,4.221584829782761,1.0085122334939678,B,778,Correct
2,relearn,47,827,A,48.42014207316497,61.4707340794215,2.4210071036582486,0.9655800329734116,A,1293,Correct
2,relearn,47,828,A,23.990720164490277,52.91005272855845,1.199536008224514,0.8311091647654391,B,461,Incorrect
2,relearn,47,829,B,73.77787936827178,60.46641833906803,3.688893968413589,0.9498042782145163,B,479,Correct
2,relearn,47,830,B,58.33517850007909,34.215535498992026,2.9167589250039545,0.5374563748113705,B,609,Correct
2,relearn,47,831,A,10.318037704088912,33.812706918253,0.5159018852044456,0.531128758261842,A,600,Correct
2,relearn,47,832,A,41.93291734196095,59.76458773012687,2.0966458670980477,0.9387799487889463,A,1347,Correct
2,relearn,47,833,B,56.0757236061524,36.63984524241169,2.80378618030762,0.5755373432111375,B,580,Correct
2,relearn,47,834,B,60.27909403675745,49.08593374239982,3.0139547018378727,0.7710400441985932,B,638,Correct
2,relearn,47,835,A,23.07842650589524,49.94098805417179,1.153921325294762,0.7844712059200086,A,571,Correct
2,relearn,47,836,B,69.07864606763195,53.35065916981732,3.4539323033815976,0.838030194560355,B,681,Correct
2,relearn,47,837,B,79.61563126177475,66.98182043909028,3.9807815630887378,1.0521479750775835,B,527,Correct
2,relearn,47,838,B,66.7382797353249,56.46084932449517,3.3369139867662447,0.8868849472663713,B,586,Correct
2,relearn,47,839,B,70.5161100347607,49.416985604718484,3.5258055017380348,0.7762401946916807,B,668,Correct
2,relearn,47,840,A,49.7582634337456,70.8169401312457,2.4879131716872798,1.1123898943301485,B,467,Incorrect
2,relearn,47,841,A,43.47806920598644,57.39500666562277,2.1739034602993224,0.9015586564672885,A,641,Correct
2,relearn,47,842,A,31.85263733536877,51.13543930070535,1.5926318667684385,0.8032336022259136,B,700,Incorrect
2,relearn,47,843,A,52.179988313955995,62.39231036284917,2.6089994156977996,0.9800561193821065,A,594,Correct
2,relearn,47,844,B,73.4274168402747,62.28254612341195,3.671370842013735,0.9783319467408921,B,638,Correct
2,relearn,47,845,B,73.00036807685287,58.57922725674382,3.650018403842643,0.9201603500137666,B,705,Correct
2,relearn,47,846,B,57.26279958426687,35.02883102312366,2.8631399792133436,0.5502315910304175,B,809,Correct
2,relearn,47,847,B,71.98736185645603,46.502717709670634,3.5993680928228016,0.730462981643306,B,690,Correct
2,relearn,47,848,A,40.02330805189937,53.183790380202446,2.0011654025949683,0.8354090257425175,A,498,Correct
2,relearn,47,849,B,57.62402671626591,28.656887300725295,2.8812013358132953,0.4501413330935461,B,457,Correct
2,relearn,47,850,A,54.70857060076595,76.2671312936082,2.7354285300382974,1.1980012969118385,A,537,Correct
2,relearn,47,851,A,28.823698167460062,51.14984424251339,1.441184908373003,0.8034598745227112,A,872,Correct
2,relearn,47,852,B,40.47244106821856,14.825628136592037,2.0236220534109277,0.2328804221938584,A,1199,Incorrect
2,relearn,47,853,B,36.31147417800992,23.615280603920386,1.8155737089004957,0.3709479602886891,A,858,Incorrect
2,relearn,47,854,B,78.73495250813667,65.9539475294564,3.9367476254068334,1.0360021851689345,B,531,Correct
2,relearn,47,855,A,23.31528622829453,52.0921100178174,1.1657643114147265,0.8182609507098318,A,594,Correct
2,relearn,47,856,B,43.49506470385142,16.639504247200712,2.174753235192571,0.26137272151190954,A,819,Incorrect
2,relearn,47,857,B,48.553279063842915,19.65864469508312,2.427663953192146,0.30879726876802543,B,361,Correct
2,relearn,47,858,B,74.88692403835017,52.23144971074942,3.7443462019175087,0.8204496934881755,B,491,Correct
2,relearn,47,859,A,11.111025865438485,30.87395938964834,0.5555512932719242,0.4849670200287442,A,513,Correct
2,relearn,47,860,B,38.79467284275063,21.81732140487387,1.9397336421375315,0.3427056832327955,B,507,Correct
2,relearn,47,861,A,31.46948296707223,39.8652050652061,1.5734741483536114,0.6262011768335104,A,596,Correct
2,relearn,47,862,A,39.92559832274219,56.48261821583214,1.9962799161371094,0.8872268922118763,B,536,Incorrect
2,relearn,47,863,B,61.633380897232286,49.30769190187927,3.0816690448616146,0.7745234132220642,A,422,Incorrect
2,relearn,47,864,A,46.58121244414187,61.96429594652449,2.3290606222070935,0.9733328846523256,B,956,Incorrect
2,relearn,47,865,A,15.93495468162391,41.321296260723344,0.7967477340811955,0.6490734038474792,A,516,Correct
2,relearn,47,866,A,36.25417558488368,50.532313056114916,1.812708779244184,0.793759717329951,A,583,Correct
2,relearn,47,867,A,45.61471088170349,74.45359313586086,2.2807355440851746,1.1695143061449196,B,725,Incorrect
2,relearn,47,868,A,48.074438879908286,70.9657215242989,2.4037219439954143,1.1147269469871823,B,2283,Incorrect
2,relearn,47,869,B,79.3727202813022,50.743882239988245,3.9686360140651096,0.7970830382988633,B,583,Correct
2,relearn,47,870,A,30.91301978451194,60.830121989923754,1.5456509892255967,0.955517321802577,A,599,Correct
2,relearn,47,871,A,16.29195689566888,34.79186700230015,0.8145978447834439,0.5465093688954965,A,806,Correct
2,relearn,47,872,A,32.14850776784816,43.891111154799646,1.6074253883924081,0.689439961809058,A,896,Correct
2,relearn,47,873,A,39.07323891687126,67.01789616747612,1.9536619458435631,1.0527146512939327,B,689,Incorrect
2,relearn,47,874,B,37.144176538941934,22.16777299873124,1.8572088269470968,0.3482105639963012,A,963,Incorrect
2,relearn,47,875,B,76.83168950040917,65.484372781882,3.8415844750204586,1.0286261222824795,B,711,Correct
2,relearn,47,876,A,25.94257877326895,45.99816973969501,1.2971289386634475,0.7225375606640108,A,594,Correct
2,relearn,47,877,A,20.977220377360556,37.01434269946343,1.0488610188680279,0.5814199355104465,A,662,Correct
2,relearn,47,878,B,63.0975018009427,36.03138480290638,3.154875090047135,0.5659796689773879,B,701,Correct
2,relearn,47,879,A,21.55074110690263,37.746851677287694,1.0775370553451316,0.5929261596275529,A,797,Correct
2,relearn,47,880,B,68.97077359786964,49.09718776950568,3.448538679893482,0.7712168220429885,B,586,Correct
2,relearn,47,881,B,45.20474690222284,18.169403136191168,2.260237345111142,0.28540431706384756,B,415,Correct
2,relearn,47,882,B,87.04852578130078,68.3760510428111,4.352426289065039,1.0740484981878802,B,765,Correct
2,relearn,47,883,B,71.85097832865844,54.846897686762716,3.5925489164329223,0.8615330542246238,B,717,Correct
2,relearn,47,884,A,34.89779675634881,45.34150649643049,1.7448898378174404,0.7122227185593994,A,394,Correct
2,relearn,47,885,B,72.3059281546833,49.779061606032684,3.6152964077341654,0.7819276712205301,B,733,Correct
2,relearn,47,886,B,35.41093569867139,15.666946336313636,1.7705467849335692,0.24609581757174223,A,1171,Incorrect
2,relearn,47,887,B,59.36767601363232,45.028807946618606,2.968383800681616,0.7073108612250135,B,568,Correct
2,relearn,47,888,B,52.92216738552567,44.01847158200587,2.6461083692762832,0.6914405347214038,A,793,Incorrect
2,relearn,47,889,A,35.46625153620495,60.591944775630616,1.7733125768102473,0.9517760428691979,B,399,Incorrect
2,relearn,47,890,B,78.46353331194342,49.26275640560516,3.923176665597171,0.7738175680971635,B,590,Correct
2,relearn,47,891,B,65.1660688431544,55.55136063336646,3.25830344215772,0.8725987323135065,A,793,Incorrect
2,relearn,47,892,A,41.6231225786002,52.23975187263716,2.0811561289300102,0.8205801035421527,A,668,Correct
2,relearn,47,893,B,67.06254463364006,34.26794151602361,3.353127231682003,0.5382795666019222,B,865,Correct
2,relearn,47,894,A,39.6658069924836,53.572359033152026,1.98329034962418,0.8415126478701258,B,1241,Incorrect
2,relearn,47,895,B,80.7645133748326,60.060507735173026,4.038225668741631,0.9434282493584626,B,409,Correct
2,relearn,47,896,A,18.128161492183654,37.67748715592232,0.9064080746091827,0.5918365842738467,A,564,Correct
2,relearn,47,897,A,62.85832892762101,84.75700358295889,3.1429164463810504,1.331359898982537,B,470,Incorrect
2,relearn,47,898,A,20.074677014999246,36.46789756502298,1.0037338507499625,0.5728363954107064,A,405,Correct
