experiment,condition,subject,trial,cat,x,y,xt,yt,resp,rt,fb
1,relearn,13,0,A,36.8601626840944,51.03385430177081,1.84300813420472,0.8016379087940751,A,3290,Correct
1,relearn,13,1,A,18.305200428176143,31.611348882608645,0.915260021408807,0.4965499070983362,A,1945,Correct
1,relearn,13,2,B,49.42823739438369,41.273036296265744,2.471411869719185,0.6483153380984668,A,847,Incorrect
1,relearn,13,3,A,49.266907156309884,68.29576512011388,2.463345357815494,1.0727873698632189,B,1471,Incorrect
1,relearn,13,4,A,54.71121836384965,68.4575619126441,2.7355609181924825,1.0753288679371558,A,2580,Correct
1,relearn,13,5,A,67.60778903172888,83.48863450684726,3.3803894515864443,1.3114364041247732,B,2152,Incorrect
1,relearn,13,6,A,31.224764130902187,52.56282904767848,1.5612382065451096,0.8256549879404145,A,1852,Correct
1,relearn,13,7,A,29.761227807534553,61.45699783271349,1.4880613903767277,0.9653642645146827,A,1802,Correct
1,relearn,13,8,B,69.45617346666874,57.87705968828901,3.4728086733334376,0.9091307276405336,A,1715,Incorrect
1,relearn,13,9,A,43.72563541851371,71.78784438785922,2.1862817709256857,1.127640822729729,A,1465,Correct
1,relearn,13,10,B,72.08367168541076,48.680252789761155,3.604183584270538,0.7646676226960384,B,888,Correct
1,relearn,13,11,B,45.69126902507447,27.011625352493077,2.284563451253723,0.4242976188445603,A,2321,Incorrect
1,relearn,13,12,A,45.13846038432564,68.68486423782662,2.256923019216282,1.078899324511842,B,3136,Incorrect
1,relearn,13,13,A,20.247084953397305,47.279394242141834,1.0123542476698653,0.7426629880864417,A,937,Correct
1,relearn,13,14,A,51.25449898978328,64.55211474833771,2.562724949489164,1.0139822473353155,A,2526,Correct
1,relearn,13,15,B,60.51930502779172,38.72540588019541,3.0259652513895854,0.6082972531025244,B,1153,Correct
1,relearn,13,16,A,46.89003256202864,59.36752457976582,2.344501628101432,0.9325428954080188,A,1283,Correct
1,relearn,13,17,A,33.47897919586007,51.470528371549776,1.6739489597930035,0.808497169042229,A,1909,Correct
1,relearn,13,18,B,74.04747561299956,48.74699127781635,3.702373780649978,0.7657159484149678,B,924,Correct
1,relearn,13,19,A,28.2405558289655,46.86338094666337,1.412027791448275,0.7361282665220876,A,715,Correct
1,relearn,13,20,A,21.19899024391461,45.21590298362642,1.0599495121957305,0.7102497431939478,A,683,Correct
1,relearn,13,21,A,29.426773497133116,56.84765463573537,1.4713386748566557,0.89296087088718,A,477,Correct
1,relearn,13,22,B,80.71466331746146,53.28590553512964,4.035733165873073,0.8370130468452149,B,1697,Correct
1,relearn,13,23,B,30.23063869825511,13.78377971100888,1.5115319349127554,0.21651510539402766,B,1487,Correct
1,relearn,13,24,A,18.754870740612205,36.55678751869201,0.9377435370306102,0.5742326755378294,A,2037,Correct
1,relearn,13,25,B,81.06312045187012,65.55987887228794,4.053156022593506,1.0298121691770823,B,980,Correct
1,relearn,13,26,B,54.60451153208178,44.11992689086044,2.730225576604089,0.6930341909862296,B,3285,Correct
1,relearn,13,27,A,40.18051338406286,60.65856656195807,2.009025669203143,0.9528225354416746,A,2088,Correct
1,relearn,13,28,A,67.97624425364461,84.92156864713644,3.3988122126822304,1.3339448809658256,B,1156,Incorrect
1,relearn,13,29,B,33.47541605366156,13.937965161563227,1.673770802683078,0.21893704478778753,B,914,Correct
1,relearn,13,30,B,53.15658176847209,26.50480682471693,2.6578290884236044,0.41633653202673654,B,1431,Correct
1,relearn,13,31,A,53.41287224447659,74.07788539742016,2.6706436122238295,1.163612702790009,A,2614,Correct
1,relearn,13,32,B,56.518863797992836,48.632435899690385,2.8259431898996414,0.7639165167432191,B,6477,Correct
1,relearn,13,33,A,28.713636871553923,55.701794026342235,1.4356818435776961,0.874961734524643,A,923,Correct
1,relearn,13,34,A,39.84912853282823,68.84225913585732,1.9924564266414115,1.0813716777886708,A,1294,Correct
1,relearn,13,35,B,37.87301555995357,14.700797513729388,1.8936507779976786,0.2309195873552167,B,947,Correct
1,relearn,13,36,B,66.46568550101033,58.48187783649405,3.3232842750505167,0.9186311888963273,B,1159,Correct
1,relearn,13,37,B,47.68814639648778,39.263875905492235,2.384407319824389,0.6167555204807784,A,4219,Incorrect
1,relearn,13,38,A,23.534888219021564,38.58767981407489,1.1767444109510783,0.6061338571148641,A,754,Correct
1,relearn,13,39,A,60.48813848781829,75.32222353641633,3.0244069243909144,1.1831587205702687,B,899,Incorrect
1,relearn,13,40,A,49.10231314387006,61.48881487358182,2.455115657193503,0.9658640454239372,B,1373,Incorrect
1,relearn,13,41,B,31.26075513099312,15.370273454186592,1.5630377565496563,0.24143569083669406,B,967,Correct
1,relearn,13,42,B,46.75729248726367,19.783013445141407,2.3378646243631835,0.31075084852562174,B,2234,Correct
1,relearn,13,43,A,57.66478288888112,74.29872403641792,2.883239144444056,1.1670816280195297,A,1044,Correct
1,relearn,13,44,B,57.29373879067306,48.155645439285294,2.864686939533653,0.7564271097046675,B,3135,Correct
1,relearn,13,45,A,49.2087771048849,73.28102432859785,2.460438855244245,1.1510956383912894,A,1565,Correct
1,relearn,13,46,A,43.1957986395348,66.23342845413246,2.15978993197674,1.0403922612678387,A,4643,Correct
1,relearn,13,47,B,59.98709662503908,35.79201051824184,2.999354831251954,0.5622195865065858,B,1950,Correct
1,relearn,13,48,A,31.268724941237046,52.39374650039137,1.5634362470618524,0.8229990454983773,A,1284,Correct
1,relearn,13,49,B,61.90889862928707,30.667338569843054,3.0954449314643533,0.4817214277808493,B,1524,Correct
1,relearn,13,50,B,63.228179391656816,38.48830499595142,3.161408969582841,0.6045728811220215,B,1290,Correct
1,relearn,13,51,A,52.47247557811207,61.2816610859477,2.623623778905603,0.962610081336964,B,4324,Incorrect
1,relearn,13,52,A,26.6773760089768,56.62877892248557,1.3338688004488402,0.889522779223206,A,773,Correct
1,relearn,13,53,A,47.233041258881855,60.78550239395083,2.361652062944093,0.9548164388280036,A,1422,Correct
1,relearn,13,54,B,72.12354568580282,61.2936251822927,3.606177284290141,0.9627980129228855,B,865,Correct
1,relearn,13,55,A,50.37812386764827,74.0047184002916,2.5189061933824135,1.1624633982866874,A,2597,Correct
1,relearn,13,56,A,43.555354875654714,64.44184706947185,2.1777677437827356,1.0122501666860484,A,948,Correct
1,relearn,13,57,B,52.26779873455774,38.21374875161299,2.613389936727887,0.6002601617209674,B,1404,Correct
1,relearn,13,58,A,16.271832034498583,35.3186671373886,0.8135916017249292,0.5547843260670164,A,1857,Correct
1,relearn,13,59,A,22.014311501958968,52.65763569230445,1.1007155750979485,0.8271442072317567,A,607,Correct
1,relearn,13,60,B,46.98324323020359,35.80592784558802,2.3491621615101796,0.5624381993733277,B,2819,Correct
1,relearn,13,61,A,12.206857870089653,34.34077474274629,0.6103428935044826,0.5394236282519683,A,845,Correct
1,relearn,13,62,A,42.468763157605984,57.604657809091385,2.123438157880299,0.904851848927977,A,3683,Correct
1,relearn,13,63,A,30.553928303505707,57.7295630373276,1.5276964151752852,0.9068138556650863,A,957,Correct
1,relearn,13,64,B,69.35971219732994,47.867093215922836,3.467985609866497,0.751894541979205,B,1511,Correct
1,relearn,13,65,A,68.38942770131378,82.38420982022413,3.419471385065689,1.2940881417150811,A,2475,Correct
1,relearn,13,66,A,17.351452272782875,43.06624773911801,0.8675726136391438,0.6764830375744558,A,890,Correct
1,relearn,13,67,A,41.11996546345101,49.19986765044966,2.0559982731725506,0.7728297138412139,A,5079,Correct
1,relearn,13,68,B,75.77501595005828,56.283599305885346,3.7887507975029138,0.8841007104848049,B,965,Correct
1,relearn,13,69,A,44.70384034389547,73.4579548410055,2.2351920171947737,1.1538748563811683,A,1948,Correct
1,relearn,13,70,B,70.10222025956982,47.77489276410475,3.505111012978491,0.7504462606687582,B,1108,Correct
1,relearn,13,71,A,30.363046153207904,62.92633299015269,1.518152307660395,0.9884445271960435,A,1230,Correct
1,relearn,13,72,B,78.19006541804187,57.56695530522188,3.909503270902093,0.9042596193820851,B,3639,Correct
1,relearn,13,73,B,39.8647266374705,13.88785130957842,1.9932363318735247,0.21814985824159477,B,2006,Correct
1,relearn,13,74,B,54.80188801440438,45.96391064878818,2.740094400720219,0.7219994201224531,B,4466,Correct
1,relearn,13,75,B,37.536176396617115,11.732296366510447,1.876808819830856,0.18429048037383725,B,2024,Correct
1,relearn,13,76,A,43.526990249516956,72.50087346920891,2.1763495124758476,1.1388410573485492,A,2169,Correct
1,relearn,13,77,A,57.398560462965946,81.23463077053198,2.8699280231482978,1.276030596228913,A,3647,Correct
1,relearn,13,78,B,37.27902356977438,26.529514501478364,1.863951178488719,0.4167246393057416,A,1196,Incorrect
1,relearn,13,79,A,55.868943030673954,64.29638700379844,2.7934471515336976,1.0099652853174972,A,5014,Correct
1,relearn,13,80,B,52.39732303728542,20.87071993819114,2.619866151864271,0.3278365021647565,B,1441,Correct
1,relearn,13,81,B,38.68184778351521,16.552573350862932,1.9340923891757604,0.26000721418538586,B,6589,Correct
1,relearn,13,82,A,33.361720127999085,57.40494203896902,1.6680860063999543,0.9017147209468648,A,1950,Correct
1,relearn,13,83,B,54.816333874743364,34.66056167972994,2.740816693737168,0.5444468297116773,B,7111,Correct
1,relearn,13,84,B,59.69443320982937,52.13070802325107,2.984721660491468,0.8188672467614002,B,3939,Correct
1,relearn,13,85,B,76.04005679567625,44.62887370783766,3.8020028397838126,0.7010287088926473,B,863,Correct
1,relearn,13,86,B,67.4553345276228,45.024655226989346,3.3727667263811396,0.7072456304576151,B,1479,Correct
1,relearn,13,87,B,36.472591276863234,12.559428207872436,1.8236295638431617,0.19728303695570232,A,7433,Incorrect
1,relearn,13,88,B,79.42011524379843,61.58418460194977,3.9710057621899217,0.9673621096140153,B,1489,Correct
1,relearn,13,89,A,38.602544591259786,65.93017732418274,1.9301272295629894,1.0356288036576244,A,2829,Correct
1,relearn,13,90,B,69.10511752650353,43.60037561692428,3.4552558763251766,0.6848730986594244,B,4635,Correct
1,relearn,13,91,A,35.21451461434208,67.45626440215008,1.760725730717104,1.059600523422027,A,2141,Correct
1,relearn,13,92,A,68.60563983888233,89.4110540132987,3.430281991944116,1.404465552189497,A,3308,Correct
1,relearn,13,93,A,28.075790828683893,52.77025521127846,1.4037895414341945,0.8289132304990545,A,4197,Correct
1,relearn,13,94,A,22.652213273435787,37.63189245814152,1.1326106636717894,0.5911203844358927,A,854,Correct
1,relearn,13,95,A,31.091329492648853,45.349046403062076,1.5545664746324428,0.7123411551358122,A,558,Correct
1,relearn,13,96,B,57.21752467440948,40.921540897801776,2.860876233720474,0.6427940612905417,B,1626,Correct
1,relearn,13,97,B,56.978518145970895,34.61892151402498,2.8489259072985447,0.5437927475183126,B,2748,Correct
1,relearn,13,98,A,36.317346768401755,59.16001076897814,1.8158673384200879,0.9292832760905739,A,3043,Correct
1,relearn,13,99,A,37.477584907235,45.91015504232106,1.8738792453617499,0.7211550290306211,A,1671,Correct
1,relearn,13,100,B,65.60719344430565,54.443226673832484,3.280359672215283,0.85519220478118,B,1119,Correct
1,relearn,13,101,A,35.29390395856436,57.6217076604681,1.764695197928218,0.9051196673671265,A,1401,Correct
1,relearn,13,102,A,43.04529368389031,56.19822753035368,2.152264684194515,0.882759693770634,A,4102,Correct
1,relearn,13,103,A,54.0960483410926,83.02313997031597,2.7048024170546294,1.304124433043509,A,1795,Correct
1,relearn,13,104,A,42.99072758896401,53.07981441194572,2.1495363794482008,0.8337757750523915,A,4898,Correct
1,relearn,13,105,A,36.06687964823845,51.99337066890364,1.8033439824119224,0.8167099566439935,A,3453,Correct
1,relearn,13,106,A,35.60156633746341,68.5773616186,1.7800783168731704,1.077210677317822,A,5006,Correct
1,relearn,13,107,A,41.20318312346035,63.80975517571065,2.0601591561730173,1.0023212904368792,B,2011,Incorrect
1,relearn,13,108,B,46.077038059267664,31.538547767484932,2.303851902963383,0.49540634985610715,B,1035,Correct
1,relearn,13,109,B,42.43845527098803,34.208242465745776,2.121922763549401,0.5373418161130267,B,1351,Correct
1,relearn,13,110,B,36.31258550351617,19.90237965034131,1.8156292751758085,0.3126258484923363,A,7741,Incorrect
1,relearn,13,111,A,64.28878420493044,76.87292907487219,3.214439210246522,1.2075171462077385,A,4074,Correct
1,relearn,13,112,A,55.23090189130381,64.85090649590026,2.7615450945651907,1.0186756571307942,A,1473,Correct
1,relearn,13,113,A,46.463184819600535,77.87814654903602,2.323159240980027,1.2233070653682043,A,3563,Correct
1,relearn,13,114,B,35.78844631790744,16.076242625020527,1.7894223158953722,0.2525250286404579,B,1010,Correct
1,relearn,13,115,B,73.32496581561116,50.50091545033709,3.6662482907805582,0.7932665248916915,B,2058,Correct
1,relearn,13,116,B,42.47937404058171,15.08401777473992,2.1239687020290856,0.23693919713870393,B,1513,Correct
1,relearn,13,117,A,57.9696941963955,81.13025722760278,2.8984847098197752,1.2743911004504356,A,1974,Correct
1,relearn,13,118,B,66.68296953603247,50.80795324449891,3.334148476801624,0.7980894632842574,B,1421,Correct
1,relearn,13,119,A,21.373693842477255,36.42335499102235,1.0686846921238626,0.5721367222944447,A,1335,Correct
1,relearn,13,120,B,40.92505313256365,18.267435431165456,2.0462526566281825,0.2869442047523764,B,3691,Correct
1,relearn,13,121,A,26.842785126681054,48.03434345860951,1.3421392563340526,0.7545217026478829,A,2955,Correct
1,relearn,13,122,A,43.51637278620241,55.03989799460408,2.1758186393101204,0.8645646959708988,A,1891,Correct
1,relearn,13,123,B,51.1657524291945,35.8749623726373,2.558287621459725,0.5635225911884381,B,2919,Correct
1,relearn,13,124,B,68.93363235794953,59.887610273088015,3.4466816178974766,0.9407123823749097,B,1426,Correct
1,relearn,13,125,B,59.29776406504467,47.33900502520816,2.9648882032522335,0.7435993520772213,B,1413,Correct
1,relearn,13,126,B,41.24505007763439,22.59351548010881,2.0622525038817194,0.3548981112553855,A,3441,Incorrect
1,relearn,13,127,B,36.765351846889445,11.98989671298201,1.8382675923444722,0.18833685715402346,A,3138,Incorrect
1,relearn,13,128,B,56.69293117173506,47.42769544879792,2.834646558586753,0.744992497993188,B,1056,Correct
1,relearn,13,129,B,54.57493761610389,43.70188316279863,2.7287468808051942,0.6864675754614382,B,1203,Correct
1,relearn,13,130,A,43.222090987016614,50.78928230643339,2.1611045493508305,0.7977961808749462,A,2318,Correct
1,relearn,13,131,B,47.04856398964462,37.32565922563991,2.352428199482231,0.5863100840683321,B,1841,Correct
1,relearn,13,132,A,36.0212979296256,59.337366322801955,1.8010648964812799,0.932069170615405,A,1271,Correct
1,relearn,13,133,B,46.58134273128705,25.01316839394907,2.329067136564353,0.39290593034717397,B,4560,Correct
1,relearn,13,134,A,20.6557737310376,40.377051832010736,1.0327886865518798,0.634241247045296,A,1150,Correct
1,relearn,13,135,A,34.60269850516421,58.197610564964734,1.7301349252582106,0.9141659290368646,A,2662,Correct
1,relearn,13,136,B,82.96685230538417,63.260095453345485,4.1483426152692084,0.9936872557080961,B,1018,Correct
1,relearn,13,137,A,24.814794045181557,38.09066907853642,1.2407397022590778,0.5983268307372497,A,2865,Correct
1,relearn,13,138,A,41.02031662758877,53.089316136828636,2.0510158313794387,0.8339250277978346,A,4177,Correct
1,relearn,13,139,A,45.66764048408386,54.0904733751696,2.283382024204193,0.8496511689231356,B,1901,Incorrect
1,relearn,13,140,B,71.53011684972434,52.772624930735496,3.576505842486217,0.8289504539652409,B,761,Correct
1,relearn,13,141,B,51.99168630502489,25.80040126711959,2.599584315251245,0.40527175540225846,B,1100,Correct
1,relearn,13,142,A,43.450958435634355,60.77523743552525,2.172547921781718,0.9546551972381075,A,4381,Correct
1,relearn,13,143,A,28.57751499861797,42.88228243546221,1.4288757499308986,0.6735933173420535,A,924,Correct
1,relearn,13,144,B,59.58708589162893,43.738043095052014,2.9793542945814466,0.6870355743490459,B,1031,Correct
1,relearn,13,145,B,50.671424401339955,39.94389582770359,2.5335712200669978,0.627437248440348,B,3406,Correct
1,relearn,13,146,A,52.12562931415,79.60712659894283,2.6062814657075,1.250465820483157,A,5136,Correct
1,relearn,13,147,B,74.08052868801845,62.718980946570184,3.704026434400922,0.9851874489119155,B,854,Correct
1,relearn,13,148,B,62.97230967432479,34.46754103603758,3.1486154837162394,0.541414868530602,B,1980,Correct
1,relearn,13,149,B,56.17420911722037,32.303068157082265,2.8087104558610183,0.5074154080535002,B,1267,Correct
1,relearn,13,150,B,33.64916719764145,21.675367605978405,1.6824583598820724,0.3404758781739997,A,2050,Incorrect
1,relearn,13,151,A,14.460411890103064,43.75619738810251,0.7230205945051531,0.6873207413174387,A,865,Correct
1,relearn,13,152,A,47.323422412987576,71.23299539811156,2.366171120649379,1.118925275179514,B,2374,Incorrect
1,relearn,13,153,B,69.03796141416088,58.506094139611974,3.4518980707080438,0.9190115776961892,B,1024,Correct
1,relearn,13,154,A,41.86622769992101,64.01055369756901,2.0933113849960505,1.0054754262424888,A,5136,Correct
1,relearn,13,155,A,63.98399615928345,75.22505371677688,3.199199807964172,1.181632380612619,B,1316,Incorrect
1,relearn,13,156,B,46.195320057408594,28.580473420503225,2.30976600287043,0.44894102666985647,A,8481,Incorrect
1,relearn,13,157,B,43.04254600277664,21.756121616505837,2.152127300138832,0.34174435920510415,B,3268,Correct
1,relearn,13,158,A,24.868429811774433,45.46852612488367,1.2434214905887218,0.7142179382174506,A,773,Correct
1,relearn,13,159,A,52.00274673951871,81.05729220856439,2.6001373369759357,1.2732449686115352,A,1982,Correct
1,relearn,13,160,A,19.3885137153033,39.37033583146251,0.9694256857651651,0.6184277890874281,A,884,Correct
1,relearn,13,161,A,65.87734769086886,80.52882351291666,3.293867384543443,1.26494380175204,A,2319,Correct
1,relearn,13,162,B,81.87160309873353,58.36067100569601,4.093580154936677,0.9167272764503271,B,1724,Correct
1,relearn,13,163,A,13.790243878681103,34.03080921951905,0.6895121939340553,0.5345547011987842,A,817,Correct
1,relearn,13,164,A,61.43220326000612,75.51913803996507,3.0716101630003063,1.1862518463589387,B,4661,Incorrect
1,relearn,13,165,A,20.842324370768715,39.912307080422664,1.0421162185384358,0.6269410535583786,A,1426,Correct
1,relearn,13,166,B,67.1401983035182,46.314943559217674,3.3570099151759103,0.7275134321853207,B,4152,Correct
1,relearn,13,167,A,56.66496436114468,77.74972231335266,2.8332482180572343,1.2212897821913757,A,809,Correct
1,relearn,13,168,B,64.0097837010909,43.600162286335376,3.2004891850545447,0.6848697476703699,B,956,Correct
1,relearn,13,169,A,37.47962560820486,50.97499233460775,1.8739812804102431,0.8007133071759985,A,3337,Correct
1,relearn,13,170,B,52.009601152026804,34.04421320867116,2.60048005760134,0.5347652505680296,B,1504,Correct
1,relearn,13,171,B,38.16891349990017,16.16305860856194,1.9084456749950085,0.2538887309209973,A,2430,Incorrect
1,relearn,13,172,A,35.247656344410956,60.14503361735607,1.7623828172205478,0.9447559788109848,A,1617,Correct
1,relearn,13,173,A,24.74644896395078,54.80493516791319,1.2373224481975391,0.860873908519905,A,1968,Correct
1,relearn,13,174,B,35.030910033407935,16.074282233964254,1.7515455016703967,0.25249423488975514,A,4135,Incorrect
1,relearn,13,175,B,83.22549524651913,59.747852441580385,4.161274762325957,0.9385170714911796,B,976,Correct
1,relearn,13,176,B,79.20695374260708,55.88492141226197,3.960347687130354,0.8778382927760255,B,752,Correct
1,relearn,13,177,B,49.20480331750639,22.131026810572116,2.4602401658753195,0.34763335622246055,B,7091,Correct
1,relearn,13,178,B,77.23370991406684,48.29019471254762,3.8616854957033415,0.7585406047468014,B,1139,Correct
1,relearn,13,179,A,41.992744029200864,60.55449909344998,2.0996372014600433,0.9511878474689611,A,2366,Correct
1,relearn,13,180,B,55.23343670132915,44.928602478353284,2.7616718350664575,0.7057368374102542,B,971,Correct
1,relearn,13,181,A,17.980906785065415,35.4696816401161,0.8990453392532707,0.5571564563287875,A,984,Correct
1,relearn,13,182,B,86.17813005689659,61.6481051736641,4.308906502844829,0.9683661716065701,B,1495,Correct
1,relearn,13,183,B,78.71050642467418,60.37577529352699,3.935525321233709,0.9483804605846626,B,1411,Correct
1,relearn,13,184,B,68.33770680066344,53.41612812903578,3.416885340033172,0.8390585785669494,B,3064,Correct
1,relearn,13,185,A,67.61118941152465,81.14428093674174,3.3805594705762325,1.2746113843584705,A,1848,Correct
1,relearn,13,186,B,46.25663351578109,25.979896447324677,2.3128316757890546,0.4080912590996939,A,9901,Incorrect
1,relearn,13,187,A,60.705932763650296,84.88354999962695,3.035296638182515,1.3333476854472495,A,2304,Correct
1,relearn,13,188,A,42.75431302034698,57.7926736051525,2.137715651017349,0.9078051941462992,A,1837,Correct
1,relearn,13,189,A,15.886347102446472,36.53528020329999,0.7943173551223236,0.5738948394176592,A,949,Correct
1,relearn,13,190,A,51.583024475903784,68.07454257145037,2.5791512237951895,1.0693124141947705,B,5796,Incorrect
1,relearn,13,191,A,21.463280487453247,42.443775471168465,1.0731640243726623,0.6667052660541875,A,694,Correct
1,relearn,13,192,A,19.641652868093658,36.15781049218062,0.9820826434046829,0.5679655590606328,A,715,Correct
1,relearn,13,193,B,74.04072619728615,55.00735606670775,3.7020363098643077,0.864053528562835,B,756,Correct
1,relearn,13,194,A,56.590931285389985,76.97279053664765,2.829546564269499,1.209085766381191,B,1813,Incorrect
1,relearn,13,195,A,28.71048624531143,59.8641566419125,1.4355243122655714,0.9403439735979048,A,2687,Correct
1,relearn,13,196,A,56.11794878022944,70.65773629275778,2.805897439011472,1.1098891262830637,B,6748,Incorrect
1,relearn,13,197,B,35.64870537202569,19.740785417031752,1.7824352686012843,0.31008753221119734,A,1730,Incorrect
1,relearn,13,198,B,44.3856184616228,36.32751397654514,2.21928092308114,0.5706312551594738,A,1587,Incorrect
1,relearn,13,199,A,31.77214098908216,48.769703981216935,1.5886070494541082,0.7660727187257,A,2517,Correct
1,relearn,13,200,B,71.43300225748075,56.24927448330355,3.5716501128740377,0.8835615374325112,B,834,Correct
1,relearn,13,201,A,50.46539413636455,80.98656030061265,2.5232697068182275,1.2721339143995576,A,6523,Correct
1,relearn,13,202,B,43.02984409471392,32.87896721156804,2.151492204735696,0.5164616092474092,B,1257,Correct
1,relearn,13,203,B,54.14607887866578,39.07486858410227,2.7073039439332893,0.6137866004190115,B,2478,Correct
1,relearn,13,204,A,46.927861609717986,78.08196901976332,2.3463930804858992,1.2265087012515714,A,10374,Correct
1,relearn,13,205,A,18.21114258675806,41.05128894763763,0.910557129337903,0.6448321388914512,A,2261,Correct
1,relearn,13,206,B,55.6486341005472,45.69560751353664,2.78243170502736,0.7177849243292465,B,1600,Correct
1,relearn,13,207,A,65.20603435608754,78.6860484475463,3.2603017178043774,1.2359975587141099,B,8545,Incorrect
1,relearn,13,208,A,22.47970495907736,49.58581622806361,1.1239852479538681,0.7788921799216908,A,723,Correct
1,relearn,13,209,B,66.49784866299755,53.68920947997243,3.324892433149878,0.8433481303966245,B,2361,Correct
1,relearn,13,210,A,35.51389336092574,66.59658856641688,1.7756946680462873,1.0460967669719863,A,3372,Correct
1,relearn,13,211,A,63.09726348238231,74.13129097629503,3.1548631741191158,1.1644515956612789,B,956,Incorrect
1,relearn,13,212,A,31.354314931442335,60.29777359708057,1.5677157465721168,0.9471552128020445,A,1119,Correct
1,relearn,13,213,B,46.79186821377611,34.61089109239983,2.339593410688806,0.5436666059503986,B,1095,Correct
1,relearn,13,214,A,47.17798091458673,58.21807676392639,2.3588990457293364,0.914487411338389,A,8005,Correct
1,relearn,13,215,A,22.799671135651373,46.561246969463575,1.1399835567825687,0.7313823571062339,A,741,Correct
1,relearn,13,216,B,31.791441934879415,13.865585546421123,1.5895720967439706,0.2178001084517871,B,2245,Correct
1,relearn,13,217,B,63.305901251639106,35.757226310943096,3.165295062581955,0.5616731974560325,B,8004,Correct
1,relearn,13,218,B,45.10862153597169,19.489556724247706,2.2554310767985846,0.3061412411330907,B,11223,Correct
1,relearn,13,219,A,41.63062574471982,64.58839030401654,2.081531287235991,1.0145520624314428,A,2419,Correct
1,relearn,13,220,B,45.798391476470655,33.54256199137701,2.289919573823533,0.5268853316734513,A,3677,Incorrect
1,relearn,13,221,B,40.03204363932586,20.811889581210846,2.0016021819662932,0.32691239707826975,B,1304,Correct
1,relearn,13,222,A,37.21763546873375,46.558342956158455,1.8608817734366874,0.7313367409719075,A,3561,Correct
1,relearn,13,223,A,41.36067188088464,56.701822691975714,2.068033594044232,0.8906701480713097,A,1760,Correct
1,relearn,13,224,B,63.45197130491218,41.89201310006835,3.172598565245609,0.6580382029963106,A,1665,Incorrect
1,relearn,13,225,A,45.84292885362899,56.91279560118556,2.2921464426814495,0.8939841027797101,B,11005,Incorrect
1,relearn,13,226,A,46.062348320956744,73.91779641641668,2.3031174160478374,1.1610980309568026,B,1115,Incorrect
1,relearn,13,227,A,57.26153006927777,65.15763336253576,2.8630765034638888,1.0234937114851979,B,1214,Incorrect
1,relearn,13,228,B,75.0522015032295,45.05193939665128,3.752610075161475,0.7076742091924612,B,1266,Correct
1,relearn,13,229,B,62.94361146414305,32.765659315475055,3.147180573207153,0.514681772977612,B,3215,Correct
1,relearn,13,230,B,51.46301045100954,35.1844396160113,2.573150522550477,0.552675885091674,B,3516,Correct
1,relearn,13,231,A,65.84144706993845,80.22895672942191,3.2920723534969225,1.2602335053316265,A,2135,Correct
1,relearn,13,232,B,60.67787171856813,47.80047192472223,3.033893585928406,0.7508480571841627,B,1200,Correct
1,relearn,13,233,B,39.31724478118964,21.56830966474719,1.965862239059482,0.3387942159655975,A,1031,Incorrect
1,relearn,13,234,A,38.7314370032435,55.949370101117715,1.9365718501621751,0.8788506504132391,B,1341,Incorrect
1,relearn,13,235,A,49.08582409930824,61.67939902090671,2.454291204965412,0.96885773420957,B,1489,Incorrect
1,relearn,13,236,B,77.38091096516564,51.323558176561235,3.869045548258282,0.8061885666178656,B,1314,Correct
1,relearn,13,237,B,52.14731735345957,40.417677123207085,2.6073658676729785,0.634879387627158,B,5195,Correct
1,relearn,13,238,A,43.86091973834411,70.57242810927474,2.1930459869172054,1.1085491084704566,A,4030,Correct
1,relearn,13,239,A,42.809264241742554,71.01111240907609,2.1404632120871274,1.1154399453379622,A,6245,Correct
1,relearn,13,240,B,35.162762364329154,18.456150523842314,1.7581381182164577,0.28990853449625215,A,710,Incorrect
1,relearn,13,241,B,51.4909381879038,27.078089739377404,2.57454690939519,0.42534163899236604,B,1661,Correct
1,relearn,13,242,A,53.65138446895974,77.76304827692135,2.6825692234479868,1.2214991059376226,B,1355,Incorrect
1,relearn,13,243,B,37.32367999899493,21.341059455278653,1.8661839999497465,0.33522457802263206,A,6029,Incorrect
1,relearn,13,244,A,52.42944432606449,60.68936415389345,2.6214722163032245,0.953306302884537,B,1108,Incorrect
1,relearn,13,245,B,79.45155674645102,63.990682017913194,3.972577837322551,1.0051632826283827,B,918,Correct
1,relearn,13,246,A,39.19027757297908,55.66752879426579,1.9595138786489539,0.8744234975178184,A,3867,Correct
1,relearn,13,247,B,70.18104739810043,38.35176941398926,3.5090523699050213,0.6024281852157919,B,1019,Correct
1,relearn,13,248,B,54.82433022449467,24.284251485016497,2.7412165112247338,0.3814561303162743,B,4795,Correct
1,relearn,13,249,A,25.76793056737996,36.969595583239,1.288396528368998,0.5807170494524466,A,924,Correct
1,relearn,13,250,A,25.648572471470164,49.68243877529801,1.282428623573508,0.7804099233445045,A,669,Correct
1,relearn,13,251,A,27.468005007906818,46.24092430848855,1.3734002503953409,0.7263507405137466,A,648,Correct
1,relearn,13,252,B,57.01666633929498,39.89810352232554,2.850833316964749,0.6267179445895148,B,878,Correct
1,relearn,13,253,B,69.96064759394972,45.77720768339434,3.4980323796974857,0.7190666968000294,B,2656,Correct
1,relearn,13,254,B,66.82883581418282,42.02305172196632,3.341441790709141,0.6600965528557665,B,777,Correct
1,relearn,13,255,A,52.54216619785276,64.51136231654586,2.627108309892638,1.0133421096336497,A,5366,Correct
1,relearn,13,256,B,60.82733914558072,45.30227395814054,3.041366957279036,0.7116064552890327,A,4695,Incorrect
1,relearn,13,257,A,40.067330448852516,67.27595158789335,2.003366522442626,1.0567681763589416,A,1077,Correct
1,relearn,13,258,A,65.56956339949305,81.95318638703161,3.278478169974653,1.2873176414588678,B,966,Incorrect
1,relearn,13,259,A,14.173654138235783,39.4315432024467,0.708682706911789,0.6193892322225754,A,700,Correct
1,relearn,13,260,B,83.77466027176865,56.38919296175933,4.188733013588433,0.8857593717526018,B,1890,Correct
1,relearn,13,261,B,60.91573301716022,40.442666712472224,3.045786650858011,0.6352719231774161,B,2822,Correct
1,relearn,13,262,B,69.85173726973825,48.10486728123286,3.4925868634869124,0.7556294882631658,B,4213,Correct
1,relearn,13,263,A,54.55415447123529,64.17323538012516,2.7277077235617644,1.008030824136449,B,2403,Incorrect
1,relearn,13,264,B,50.59518520868494,25.980226643635667,2.529759260434247,0.40809644581121807,B,1129,Correct
1,relearn,13,265,A,65.16349340334209,79.93563939248118,3.2581746701671044,1.2556260873771086,A,790,Correct
1,relearn,13,266,A,38.56196711554113,59.66605197696314,1.9280983557770566,0.9372321527976707,A,2676,Correct
1,relearn,13,267,A,57.6296213279377,67.53970830043363,2.881481066396885,1.0609112571111994,B,2580,Incorrect
1,relearn,13,268,B,81.58528136144696,61.54969741013351,4.079264068072348,0.9668203860717507,B,695,Correct
1,relearn,13,269,A,43.69181930728177,74.61224637777266,2.1845909653640887,1.1720064254412113,B,4348,Incorrect
1,relearn,13,270,B,39.308750637324785,26.92895057320429,1.9654375318662392,0.42299896644830615,B,572,Correct
1,relearn,13,271,B,67.69785292156172,59.43139582157899,3.384892646078086,0.9335461825282985,B,2872,Correct
1,relearn,13,272,B,51.74952304802841,26.757828817663235,2.5874761524014205,0.42031099219792045,A,4752,Incorrect
1,relearn,13,273,A,45.812202333011626,61.29426544579222,2.2906101166505812,0.9628080701584177,A,3762,Correct
1,relearn,13,274,A,22.51442195126046,45.94406819643953,1.125721097563023,0.7216877356098144,A,927,Correct
1,relearn,13,275,A,25.54096304646396,39.118436270239485,1.277048152323198,0.6144709600325243,A,723,Correct
1,relearn,13,276,A,51.94683658584177,65.15465771998196,2.597341829292089,1.023446970201264,B,5570,Incorrect
1,relearn,13,277,B,78.03310282240969,57.22862098526676,3.901655141120484,0.8989450763119438,B,655,Correct
1,relearn,13,278,A,15.332508303026263,38.102470812275584,0.7666254151513131,0.5985122119373224,A,747,Correct
1,relearn,13,279,A,46.37039124976253,56.34284749091145,2.318519562488126,0.8850313787988876,A,2195,Correct
1,relearn,13,280,A,54.94540922544572,64.07100215433233,2.747270461272286,1.0064249483809313,A,2636,Correct
1,relearn,13,281,A,37.890967467882405,61.7519366051245,1.8945483733941202,0.9699971519180088,B,1986,Incorrect
1,relearn,13,282,B,65.57313630305961,37.91745214355403,3.278656815152981,0.5956059454851594,B,1260,Correct
1,relearn,13,283,B,63.490922013427095,34.68447313290626,3.174546100671355,0.5448224299398543,B,1102,Correct
1,relearn,13,284,A,35.629718605479,48.84336228890313,1.78148593027395,0.7672297407172142,A,1531,Correct
1,relearn,13,285,A,38.56089339988207,55.47384352010428,1.9280446699941036,0.8713810963457467,A,811,Correct
1,relearn,13,286,B,59.59420858041821,39.09979087902662,2.9797104290209107,0.6141780789122362,B,2852,Correct
1,relearn,13,287,B,74.82225219961767,58.57834892051855,3.741112609980883,0.9201465531406033,B,847,Correct
1,relearn,13,288,A,27.161057741054112,38.964454938036994,1.3580528870527055,0.6120522269223378,A,1474,Correct
1,relearn,13,289,B,74.28803601053795,50.42962382510296,3.7144018005268977,0.7921466786612013,B,797,Correct
1,relearn,13,290,B,43.82947898427839,26.427233737904146,2.1914739492139192,0.4151180168284999,B,5528,Correct
1,relearn,13,291,A,32.18116672661117,62.40056009244637,1.6090583363305584,0.9801857058315897,A,1503,Correct
1,relearn,13,292,A,56.38102432645873,71.50187288085415,2.8190512163229364,1.1231487928020132,B,1708,Incorrect
1,relearn,13,293,A,21.61881911083094,44.20454665146772,1.080940955541547,0.6943633950775915,A,1594,Correct
1,relearn,13,294,A,68.27867139869024,81.47566665952844,3.4139335699345117,1.279816779119527,A,1134,Correct
1,relearn,13,295,B,79.2016948481882,66.6737308516881,3.9600847424094097,1.0473085151554324,A,4624,Incorrect
1,relearn,13,296,A,62.31223761813789,87.97129793969562,3.115611880906895,1.3818499166705334,A,1000,Correct
1,relearn,13,297,A,23.526521288016866,41.84205263158382,1.1763260644008433,0.657253425792506,A,898,Correct
1,relearn,13,298,B,85.27731437184083,66.69434056928388,4.263865718592041,1.0476322518423897,B,2121,Correct
1,relearn,13,299,B,60.44716855757476,41.56610444804973,3.0223584278787383,0.6529188418616951,B,1429,Correct
1,relearn,13,300,B,69.8217063312392,59.25796248719808,3.4910853165619598,0.930821898082405,B,1308,Correct
1,relearn,13,301,A,31.624776232293847,57.42612774921598,1.5812388116146923,0.9020475053052295,A,2426,Incorrect
1,relearn,13,302,B,48.126296520541274,35.35155382207664,2.4063148260270637,0.5553009089021007,B,3459,Incorrect
1,relearn,13,303,A,64.01343984065613,86.26805445361974,3.200671992032807,1.35509543055488,A,1229,Incorrect
1,relearn,13,304,B,79.82973452381049,50.11289571450227,3.9914867261905242,0.7871715251339589,B,2520,Correct
1,relearn,13,305,A,35.95081805962083,44.6997735145274,1.7975409029810414,0.7021424004518344,A,4012,Correct
1,relearn,13,306,A,49.82894440289749,59.306888361464786,2.4914472201448747,0.9315904239182389,A,4232,Correct
1,relearn,13,307,B,50.042118823361115,29.268663050860685,2.5021059411680557,0.4597510841048948,B,1171,Incorrect
1,relearn,13,308,A,53.36202167878398,75.17141299887365,2.668101083939199,1.1807897941861287,A,1388,Correct
1,relearn,13,309,B,82.17124625063266,55.184348609400665,4.108562312531633,0.8668337209221562,B,1300,Incorrect
1,relearn,13,310,A,37.65056461331049,45.948881982198536,1.8825282306655249,0.7217633503796967,B,1378,Incorrect
1,relearn,13,311,A,28.197376281189143,42.39309394028708,1.4098688140594573,0.6659091624287393,A,1026,Incorrect
1,relearn,13,312,A,27.195612814248513,39.628817690140686,1.3597806407124255,0.622488012628976,B,1346,Incorrect
1,relearn,13,313,A,32.122563030317195,52.052858573112935,1.6061281515158599,0.8176443904582005,A,773,Incorrect
1,relearn,13,314,A,55.53873938755417,69.34186523628217,2.776936969377709,1.0892194720625878,A,1730,Incorrect
1,relearn,13,315,B,45.38197959812622,29.210808438564776,2.2690989799063113,0.4588423059800691,B,845,Correct
1,relearn,13,316,B,55.06860456603399,34.815215948953245,2.7534302283016996,0.5468761332918686,B,1647,Incorrect
1,relearn,13,317,A,51.49042154326382,61.693317629222456,2.5745210771631912,0.9690763671977346,A,1448,Incorrect
1,relearn,13,318,A,38.20728236476539,65.97893096669316,1.9103641182382693,1.0363946240833566,B,1116,Correct
1,relearn,13,319,B,58.15517042179854,33.162275344655946,2.907758521089927,0.5209118029954652,B,5232,Incorrect
1,relearn,13,320,B,86.76011730720532,69.59051483101791,4.338005865360266,1.0931252507632871,B,733,Correct
1,relearn,13,321,A,17.839763099297727,31.432655321392765,0.8919881549648864,0.4937429952025381,A,1151,Correct
1,relearn,13,322,A,55.45332578470515,79.72227062626047,2.772666289235257,1.2522744986347862,A,1355,Incorrect
1,relearn,13,323,B,42.49770088443594,27.948809932756603,2.1248850442217972,0.43901887980662785,A,2209,Incorrect
1,relearn,13,324,A,52.80036672620674,76.78867821171917,2.6400183363103373,1.2061937367440376,B,2833,Correct
1,relearn,13,325,B,43.02181726612653,20.8334192229788,2.151090863306327,0.3272505839003329,B,3107,Correct
1,relearn,13,326,A,23.33637666070294,35.990989515155235,1.166818833035147,0.5653451412811947,A,848,Incorrect
1,relearn,13,327,B,72.24464587092928,48.756162539538536,3.6122322935464637,0.7658600102572207,B,1667,Incorrect
1,relearn,13,328,B,85.7261421532863,64.60952147652182,4.2863071076643156,1.0148839901129645,B,2272,Correct
1,relearn,13,329,B,47.50204489318733,36.18153595976284,2.3751022446593666,0.5683382378339292,B,1831,Correct
1,relearn,13,330,A,36.713265278768624,68.67847005273848,1.8356632639384314,1.078798884887349,A,1784,Incorrect
1,relearn,13,331,B,53.63006443087086,27.430561316314673,2.681503221543543,0.4308782495758927,B,3892,Incorrect
1,relearn,13,332,A,11.411313841685981,30.400251092411168,0.5705656920842991,0.47752602749602,A,891,Correct
1,relearn,13,333,A,50.618568260960785,77.51329439149505,2.530928413048039,1.2175759810793185,A,1370,Correct
1,relearn,13,334,B,39.155829041318185,17.058468084354917,1.9577914520659092,0.2679537900765268,B,1162,Correct
1,relearn,13,335,A,65.17582990570241,87.94692990869356,3.258791495285121,1.3814671445346405,A,2991,Incorrect
1,relearn,13,336,A,64.02238952319905,86.90816206552664,3.201119476159953,1.3651502174102481,B,1013,Correct
1,relearn,13,337,B,58.93459886807543,35.84391156445242,2.9467299434037715,0.5630348462340298,B,1384,Correct
1,relearn,13,338,B,65.36993030747627,52.54095865877798,3.2684965153738132,0.8253114486749097,B,981,Correct
1,relearn,13,339,B,45.64783940343235,33.834098184202254,2.2823919701716178,0.5314647714816277,B,4736,Incorrect
1,relearn,13,340,B,62.785962704357175,44.99407186403179,3.139298135217859,0.7067652281156674,B,995,Incorrect
1,relearn,13,341,B,50.187765553488084,32.508594638174785,2.5093882776744043,0.5106438104690922,A,404,Correct
1,relearn,13,342,A,51.6160357555113,71.69182606238684,2.580801787775565,1.126132570400159,A,747,Incorrect
1,relearn,13,343,A,36.30396226156582,63.998794249889976,1.8151981130782913,1.005290709270295,A,868,Incorrect
1,relearn,13,344,A,18.62021218728644,46.77550361042441,0.931010609364322,0.734747892552361,B,1168,Correct
1,relearn,13,345,B,35.038241131516735,16.04089337685975,1.7519120565758368,0.2519697639487988,B,1490,Correct
1,relearn,13,346,B,78.50152661629022,57.47289067040089,3.925076330814511,0.9027820555535039,A,1624,Incorrect
1,relearn,13,347,A,32.52185138532968,57.05803640878594,1.626092569266484,0.8962655400505042,B,2786,Incorrect
1,relearn,13,348,B,89.06146583551397,66.41020437256755,4.4530732917756986,1.0431690509012748,B,2410,Incorrect
1,relearn,13,349,A,40.623411507509466,64.68477732659146,2.0311705753754734,1.0160661062415566,A,337,Incorrect
1,relearn,13,350,B,82.818470529001,65.38343571506846,4.14092352645005,1.0270406065445978,A,1026,Correct
1,relearn,13,351,A,67.41764841112689,83.8447343435772,3.3708824205563443,1.3170300072798495,B,4611,Correct
1,relearn,13,352,B,60.85645259954565,40.247193843886045,3.0428226299772825,0.6322014425377838,A,1878,Incorrect
1,relearn,13,353,B,64.00594353106541,35.77197844831025,3.200297176553271,0.5619049234879194,B,4224,Incorrect
1,relearn,13,354,A,53.843011259828714,81.86501304160137,2.6921505629914355,1.2859326177876371,B,1703,Correct
1,relearn,13,355,A,66.2877356156551,80.95911645526192,3.3143867807827547,1.2717028274848567,A,2792,Correct
1,relearn,13,356,A,46.64545379153323,54.90657619398303,2.3322726895766612,0.8624704820239265,B,5109,Correct
1,relearn,13,357,A,31.09421025076182,56.102351284462486,1.554710512538091,0.8812536732219062,B,4261,Incorrect
1,relearn,13,358,A,24.752913371487747,48.88282512983975,1.2376456685743873,0.7678496215730954,A,625,Incorrect
1,relearn,13,359,B,72.04592678049261,58.41617432169531,3.6022963390246305,0.9175991204992934,B,1630,Correct
1,relearn,13,360,A,44.89448038234439,69.74538589719576,2.2447240191172195,1.095557959782077,A,1040,Correct
1,relearn,13,361,A,34.44404370095237,59.1632773101271,1.7222021850476184,0.9293345867989549,B,4185,Incorrect
1,relearn,13,362,A,57.1943477054338,82.51182244543624,2.85971738527169,1.2960926761444393,A,816,Correct
1,relearn,13,363,B,72.1428812113565,54.12468611015865,3.607144060567825,0.8501885813076395,B,4506,Incorrect
1,relearn,13,364,A,46.261717417795396,59.07602054074127,2.31308587088977,0.9279639606705624,A,827,Correct
1,relearn,13,365,B,34.34469993920007,10.944163483409298,1.7172349969600034,0.17191051799582163,B,1524,Incorrect
1,relearn,13,366,B,32.696917397032834,12.218950830721926,1.634845869851642,0.19193483082185453,A,2232,Correct
1,relearn,13,367,A,15.239046091116304,45.02943258595479,0.7619523045558152,0.707320673036762,B,1081,Incorrect
1,relearn,13,368,B,67.67275285939463,41.04801634509838,3.3836376429697315,0.6447807329709742,B,2591,Incorrect
1,relearn,13,369,B,70.50694348161862,55.464852012693996,3.525347174080931,0.8712398580776224,A,976,Incorrect
1,relearn,13,370,A,42.257534018985865,74.32282951215237,2.1128767009492933,1.1674602759469226,B,4528,Incorrect
1,relearn,13,371,B,47.84910716609319,36.3407238699765,2.3924553583046593,0.570838755680267,A,947,Correct
1,relearn,13,372,B,75.89227094436693,62.81264467467477,3.7946135472183466,0.9866587153125214,B,2730,Incorrect
1,relearn,13,373,A,45.599656655993854,67.39129761136837,2.2799828327996927,1.0585800274587913,A,806,Incorrect
1,relearn,13,374,A,10.341191760692865,31.707806412895415,0.5170595880346432,0.4980650584409978,A,786,Incorrect
1,relearn,13,375,B,43.01673081378405,31.579234893347895,2.1508365406892027,0.496045461734641,B,1744,Correct
1,relearn,13,376,A,40.55004187079229,70.41393727711494,2.0275020935396144,1.106059540300584,A,2292,Correct
1,relearn,13,377,B,70.78990517932786,61.44261051993539,3.5394952589663933,0.9651382691340399,B,3153,Correct
1,relearn,13,378,B,50.46477497058055,29.765254132913437,2.5232387485290273,0.4675515185809705,B,3091,Correct
1,relearn,13,379,B,77.51901282237247,66.14657799015869,3.8759506411186235,1.0390280173699342,A,1188,Correct
1,relearn,13,380,A,29.79858003938338,61.673878325503146,1.489929001969169,0.9687710153289574,B,1410,Correct
1,relearn,13,381,A,32.13853520695872,48.442890898155895,1.606926760347936,0.760939150821492,B,3174,Incorrect
1,relearn,13,382,B,42.99370286061877,23.449307275719914,2.1496851430309385,0.3683408573458568,A,1745,Correct
1,relearn,13,383,A,37.83143515657516,49.98866917442768,1.891571757828758,0.7852201792055629,B,1398,Correct
1,relearn,13,384,B,59.6141472687185,37.75689577734294,2.980707363435925,0.5930839319822803,B,3134,Incorrect
1,relearn,13,385,A,10.781343069814586,31.894501415306646,0.5390671534907292,0.500997656681183,A,1104,Incorrect
1,relearn,13,386,A,53.32785313417351,61.90445011931057,2.666392656708675,0.9723928285967093,A,2769,Correct
1,relearn,13,387,B,51.96530981837358,41.418755285223774,2.5982654909186795,0.6506042866244621,B,3077,Incorrect
1,relearn,13,388,A,53.82153080225796,64.08438156660432,2.691076540112898,1.0066351116974463,B,1212,Incorrect
1,relearn,13,389,B,57.12153584008665,43.18675077493937,2.8560767920043326,0.6783758948348141,A,737,Incorrect
1,relearn,13,390,B,36.13933738342393,12.393200377914674,1.8069668691711964,0.19467193630861496,B,1178,Incorrect
1,relearn,13,391,A,58.81151802364775,76.24537762774521,2.9405759011823873,1.1976595911275196,A,695,Correct
1,relearn,13,392,A,28.168282795184666,46.41404979119338,1.4084141397592334,0.72907018923682,A,1280,Correct
1,relearn,13,393,A,55.61514315536491,76.31342133480597,2.7807571577682455,1.198728419178645,A,1261,Incorrect
1,relearn,13,394,A,55.94950563563383,68.44408912095838,2.7974752817816917,1.0751172378202396,B,767,Incorrect
1,relearn,13,395,A,45.33570487271294,68.9139454624343,2.266785243635647,1.0824977239733562,A,2428,Incorrect
1,relearn,13,396,B,77.46463252847822,48.35863208415687,3.8732316264239106,0.7596156164661946,B,714,Incorrect
1,relearn,13,397,B,83.62934084163676,68.17722710147578,4.181467042081838,1.0709253790205964,A,1151,Correct
1,relearn,13,398,B,46.179082127848766,29.288402592436796,2.3089541063924384,0.4600611520988985,B,1410,Incorrect
1,relearn,13,399,A,37.45873811414967,68.75775160243352,1.8729369057074834,1.0800442365577847,A,1178,Correct
1,relearn,13,400,B,44.07888844544174,29.15549141759747,2.203944422272087,0.45797338824662237,A,1282,Correct
1,relearn,13,401,A,51.75866748867103,61.82417768152579,2.5879333744335513,0.9711319120925572,A,2374,Correct
1,relearn,13,402,B,64.67529685752886,44.49818210415669,3.233764842876443,0.6989758099825973,B,2798,Incorrect
1,relearn,13,403,B,80.42076271798045,51.20333203118216,4.021038135899023,0.8043000587424038,A,1037,Incorrect
1,relearn,13,404,A,35.95409088306659,50.70679919612293,1.7977045441533295,0.796500539207963,B,4261,Correct
1,relearn,13,405,A,55.65737377621127,69.77140698962047,2.782868688810564,1.095966698146076,A,3261,Incorrect
1,relearn,13,406,A,34.420398609978584,64.26607941198864,1.721019930498929,1.0094892147786088,B,753,Incorrect
1,relearn,13,407,B,79.791031614411,58.14491836702231,3.98955158072055,0.9133382419270777,A,777,Correct
1,relearn,13,408,B,61.99821511651228,40.11344211230218,3.099910755825614,0.6301004752510398,A,2010,Incorrect
1,relearn,13,409,B,71.79191535158088,48.43341271819536,3.589595767579044,0.7607902679188249,B,640,Correct
1,relearn,13,410,B,43.74892238964989,30.58063196548219,2.1874461194824946,0.48035944362446015,B,769,Incorrect
1,relearn,13,411,B,77.56944215070095,48.878594502062384,3.878472107535048,0.7677831670273683,A,1128,Incorrect
1,relearn,13,412,B,51.35918495603089,43.984708109162696,2.5679592478015447,0.6909101793301847,B,584,Incorrect
1,relearn,13,413,A,20.804679283153853,33.40009792860683,1.0402339641576928,0.5246475114084544,A,547,Correct
1,relearn,13,414,A,26.938135971234434,50.593611261278944,1.3469067985617218,0.7947225872850587,A,2461,Correct
1,relearn,13,415,B,73.4519951524569,42.247365659613465,3.6725997576228453,0.6636200679488168,A,2403,Incorrect
1,relearn,13,416,B,55.14485621116948,45.46466213442556,2.7572428105584743,0.7141572427972668,A,338,Correct
1,relearn,13,417,B,72.71799689525656,54.42141235371985,3.635899844762828,0.8548495462421356,A,1759,Incorrect
1,relearn,13,418,A,62.385848302728874,71.99360760376291,3.1192924151364436,1.130872943767039,B,1049,Incorrect
1,relearn,13,419,A,35.852953558389736,59.7977239092951,1.7926476779194869,0.9393004506741611,A,599,Correct
1,relearn,13,420,A,30.883836365508216,63.022271549193874,1.5441918182754109,0.9899515265574423,A,938,Correct
1,relearn,13,421,A,22.717969762580747,49.08432063096214,1.1358984881290375,0.7710147055033829,A,741,Correct
1,relearn,13,422,B,34.50819469950709,14.919477588460385,1.7254097349753545,0.23435460593652352,B,1347,Incorrect
1,relearn,13,423,B,57.36283184634557,31.882069728938966,2.8681415923172784,0.5008023802083609,A,692,Incorrect
1,relearn,13,424,A,42.52231687639186,54.662086824705355,2.1261158438195933,0.8586300519919089,A,1787,Correct
1,relearn,13,425,B,65.93556784428243,43.529156790689456,3.296778392214122,0.6837543959529413,B,766,Correct
1,relearn,13,426,B,75.88692238474455,47.03831815757308,3.794346119237227,0.7388761738052548,B,758,Incorrect
1,relearn,13,427,B,59.23378090148231,29.019210971135074,2.961689045074116,0.45583269999945136,B,2730,Incorrect
1,relearn,13,428,B,77.59703775515055,57.81056639991459,3.8798518877575274,0.9080862535091829,B,629,Incorrect
1,relearn,13,429,A,50.365634134119205,74.97249236743599,2.5182817067059604,1.1776651562142688,B,2274,Incorrect
1,relearn,13,430,A,38.29841184062631,47.78541903590099,1.9149205920313153,0.750611606959482,A,759,Correct
1,relearn,13,431,A,55.52019062778859,66.24536506705392,2.7760095313894295,1.0405797611451526,A,1212,Incorrect
1,relearn,13,432,B,55.19392931300503,31.43164337472762,2.759696465650251,0.49372709958149297,B,898,Incorrect
1,relearn,13,433,B,76.34331138525823,52.119359500703865,3.8171655692629116,0.8186889845860831,B,1016,Incorrect
1,relearn,13,434,A,34.10042116017046,48.376593607881816,1.7050210580085232,0.7598977554211022,A,552,Incorrect
1,relearn,13,435,A,39.322380259650714,58.90208889512629,1.9661190129825357,0.9252318487701083,A,656,Incorrect
1,relearn,13,436,A,20.404074688623105,35.65108619089279,1.0202037344311552,0.5600059523490265,A,1164,Incorrect
1,relearn,13,437,B,73.65190503973292,52.902411557266376,3.6825952519866463,0.8309891375274592,B,1022,Incorrect
1,relearn,13,438,B,51.517699020788726,19.958959946891916,2.575884951039436,0.3135146097122428,A,961,Incorrect
1,relearn,13,439,A,54.715941138388935,72.08886099819884,2.7357970569194467,1.1323691805879863,B,2904,Correct
1,relearn,13,440,B,59.63010608281564,51.85926544143868,2.9815053041407817,0.8146034366569341,B,2033,Incorrect
1,relearn,13,441,B,69.53898763303381,39.28899817054634,3.4769493816516905,0.6171501400974561,A,2917,Incorrect
1,relearn,13,442,B,65.02448306775798,57.02098858366033,3.251224153387899,0.8956835941742739,B,1216,Incorrect
1,relearn,13,443,A,26.47173441019333,37.02228246766627,1.3235867205096665,0.5815446530977328,B,1153,Correct
1,relearn,13,444,B,62.60467200160876,32.78384860451848,3.1302336000804383,0.5149674896617762,A,1793,Incorrect
1,relearn,13,445,A,59.29008328234225,70.47677270473743,2.9645041641171126,1.1070465568896037,A,2390,Incorrect
1,relearn,13,446,B,32.94487068198055,14.099356520738617,1.6472435340990272,0.22147217432947894,B,464,Correct
1,relearn,13,447,B,40.97217664447961,25.257164818344783,2.0486088322239806,0.3967386172190928,B,2069,Correct
1,relearn,13,448,B,51.30019572340698,21.6376517586367,2.5650097861703487,0.3398834390293366,B,3422,Incorrect
1,relearn,13,449,A,26.7929392821181,46.229626933293126,1.3396469641059048,0.7261732817591526,B,1726,Incorrect
1,relearn,13,450,B,54.31277526111884,25.803570666215265,2.7156387630559418,0.4053215402068348,A,2532,Correct
1,relearn,13,451,A,37.37070885566823,53.18931626690144,1.8685354427834113,0.8354958261678083,A,1480,Correct
1,relearn,13,452,A,21.080522688465166,39.59311794487953,1.0540261344232582,0.6219272423417388,A,1117,Incorrect
1,relearn,13,453,B,60.46374631759543,48.76673559448041,3.0231873158797713,0.7660260914158777,B,589,Incorrect
1,relearn,13,454,B,82.84329678262488,52.71176322956424,4.142164839131244,0.827994440598818,B,1023,Incorrect
1,relearn,13,455,A,67.41938820803406,86.72372296589741,3.3709694104017034,1.3622530548080987,B,1260,Incorrect
1,relearn,13,456,A,56.969261785302116,65.32079107203101,2.8484630892651057,1.026056586792832,A,1134,Correct
1,relearn,13,457,B,35.36814200287191,17.54583259853576,1.7684071001435955,0.2756092939633813,B,1819,Incorrect
1,relearn,13,458,A,59.91760124311915,85.84344866374101,2.995880062155958,1.3484257384041067,A,767,Incorrect
1,relearn,13,459,A,62.00668683797099,79.74244658698042,3.100334341898549,1.2525914218846708,A,628,Incorrect
1,relearn,13,460,A,40.8118909229621,58.11094698390238,2.040594546148105,0.9128046206888684,B,766,Correct
1,relearn,13,461,A,36.90955954537538,66.59094095811128,1.8454779772687688,1.0460080545481703,B,2962,Incorrect
1,relearn,13,462,B,58.32586461530101,43.086983836031585,2.9162932307650506,0.676808759423095,B,572,Incorrect
1,relearn,13,463,A,15.618236958467183,45.058946510332035,0.7809118479233591,0.7077842766767728,A,841,Incorrect
1,relearn,13,464,B,35.60495642700873,17.24148452689769,1.7802478213504367,0.2708286056334194,A,1106,Correct
1,relearn,13,465,A,55.65115313246887,69.67741781092468,2.7825576566234433,1.094490319579538,A,1476,Correct
1,relearn,13,466,B,83.53302309045979,55.06063472936812,4.17665115452299,0.8648904278388696,A,824,Incorrect
1,relearn,13,467,B,38.30960751687335,22.44245645964194,1.9154803758436674,0.3525252817105995,A,939,Incorrect
1,relearn,13,468,A,54.86769564849277,78.42347113552492,2.7433847824246387,1.2318730039418815,A,680,Correct
1,relearn,13,469,A,36.13575368175522,56.780202963306465,1.8067876840877608,0.8919013424943051,B,1991,Correct
1,relearn,13,470,B,61.76783722222368,48.3115285086043,3.0883918611111842,0.7588757152316256,A,952,Correct
1,relearn,13,471,B,57.58859665126623,49.982055683727296,2.8794298325633116,0.7851162947365681,B,1253,Correct
1,relearn,13,472,A,64.78179145482486,86.81732372471919,3.239089572741243,1.363723332089523,A,968,Correct
1,relearn,13,473,A,49.59364007311433,61.81399938784509,2.4796820036557166,0.9709720318292905,B,729,Incorrect
1,relearn,13,474,A,58.21526434835434,67.94700442007017,2.9107632174177174,1.0673090495976283,A,1252,Incorrect
1,relearn,13,475,A,51.03775693737443,61.17585211334972,2.5518878468687216,0.9609480378819756,B,1507,Incorrect
1,relearn,13,476,B,42.32176998925742,19.398068496437997,2.1160884994628706,0.30470414741120605,B,1664,Correct
1,relearn,13,477,B,81.57536633725502,67.74348520352919,4.07876831686275,1.064112177219881,A,2769,Correct
1,relearn,13,478,A,35.255953698149156,58.42843832486941,1.7627976849074576,0.9177917630106702,A,1891,Correct
1,relearn,13,479,B,40.106991431468806,25.526917932709843,2.0053495715734404,0.400975889230954,B,1256,Incorrect
1,relearn,13,480,B,83.93212569822144,67.19132835842125,4.196606284911073,1.0554389177787786,A,950,Correct
1,relearn,13,481,A,32.15797709212979,48.068628457311654,1.6078988546064894,0.7550602501481377,A,837,Correct
1,relearn,13,482,A,32.122514166910946,45.968426355133765,1.6061257083455474,0.7220703526718582,A,1000,Correct
1,relearn,13,483,A,15.400006341003543,39.02650699229015,0.7700003170501772,0.6130269383112472,B,1426,Correct
1,relearn,13,484,B,50.070944407377084,25.308547998460035,2.503547220368854,0.3975457423249336,A,1446,Correct
1,relearn,13,485,B,52.71448826018657,32.419610137706286,2.6357244130093282,0.5092460452043163,A,2085,Correct
1,relearn,13,486,A,30.296101847235036,38.99727695411359,1.5148050923617518,0.612567793945249,A,1038,Correct
1,relearn,13,487,A,38.94490959849945,68.1252603356492,1.9472454799249725,1.0701090869718382,A,3086,Correct
1,relearn,13,488,A,64.86487636746674,82.52361806363302,3.243243818373337,1.2962779612817974,A,2972,Incorrect
1,relearn,13,489,B,45.72311619698373,31.635334070577684,2.2861558098491868,0.49692666554992865,A,631,Incorrect
1,relearn,13,490,A,53.181508836123,79.02586041441057,2.65907544180615,1.2413353126076236,B,702,Correct
1,relearn,13,491,B,37.085606146402824,12.819580536681535,1.8542803073201413,0.20136950018070704,B,6054,Incorrect
1,relearn,13,492,A,43.8268820090872,63.833301824526956,2.19134410045436,1.0026911603315691,A,1554,Correct
1,relearn,13,493,A,45.664862097838764,72.98090705839448,2.283243104891938,1.1463814073348577,A,896,Correct
1,relearn,13,494,B,46.35508036526214,38.76107858622034,2.3177540182631073,0.6088575986584324,A,602,Correct
1,relearn,13,495,A,57.76308372495771,72.66037582134172,2.8881541862478857,1.1413465144370027,A,640,Correct
1,relearn,13,496,A,44.498905218561376,65.31035917784612,2.224945260928069,1.0258927229821606,A,811,Correct
1,relearn,13,497,B,72.66908485223716,54.10396996399248,3.633454242611858,0.8498631728446081,B,652,Incorrect
1,relearn,13,498,A,55.04475336434032,63.664828474696314,2.752237668217016,1.0000447871408011,A,65,Incorrect
1,relearn,13,499,B,73.92286622091889,49.828559539615604,3.6961433110459443,0.7827051829430899,A,498,Correct
1,relearn,13,500,A,58.44090159878931,68.20104995036269,2.9220450799394655,1.0712995874558497,A,281,Correct
1,relearn,13,501,B,56.849048049817064,32.63392047244327,2.8424524024908533,0.5126124240703067,A,300,Correct
1,relearn,13,502,B,42.867758851712416,34.721182955917946,2.143387942585621,0.5453990664912948,A,342,Correct
1,relearn,13,503,A,25.983071619476284,46.77589145060101,1.2991535809738142,0.7347539847316088,B,498,Correct
1,relearn,13,504,B,51.15283130436288,43.5793072337679,2.5576415652181437,0.6845421572706888,B,406,Incorrect
1,relearn,13,505,A,33.15771947224211,60.47296803408135,1.6578859736121052,0.9499071605832018,100,276,Incorrect
1,relearn,13,506,B,58.34386100545982,33.2301058652581,2.9171930502729913,0.5219772823215298,A,503,Correct
1,relearn,13,507,A,54.114018172950274,83.0042941079713,2.7057009086475134,1.3038284029300462,A,656,Correct
1,relearn,13,508,A,46.04360457800188,68.01567388277942,2.3021802289000943,1.068387706995495,A,334,Correct
1,relearn,13,509,B,83.82833678269049,58.41316647723028,4.191416839134524,0.9175518733889211,A,322,Incorrect
1,relearn,13,510,B,50.17581429653017,39.91575382217049,2.5087907148265085,0.6269951948511475,B,487,Incorrect
1,relearn,13,511,B,45.156151305908075,24.369412859174055,2.257807565295404,0.38279384205338923,A,292,Correct
1,relearn,13,512,B,33.044462386046064,18.222126347841982,1.6522231193023031,0.2862324913358269,A,278,Correct
1,relearn,13,513,A,53.28233155810251,83.28419425672061,2.6641165779051255,1.3082250641852935,A,352,Incorrect
1,relearn,13,514,B,54.32739224429402,29.495054833802705,2.7163696122147005,0.4633072379155135,B,233,Incorrect
1,relearn,13,515,B,76.67052119608533,47.97452241246109,3.833526059804267,0.7535820358523332,A,527,Incorrect
1,relearn,13,516,B,37.4673679008054,17.266319563010562,1.8733683950402702,0.27121871346843857,A,308,Incorrect
1,relearn,13,517,A,40.786378186698215,67.77854042226173,2.0393189093349107,1.0646628233080815,B,468,Incorrect
1,relearn,13,518,B,53.80768347553502,31.380191562565912,2.690384173776751,0.4929188964059874,B,584,Incorrect
1,relearn,13,519,B,87.5159153667375,67.6970707325282,4.375795768336875,1.063383100414296,A,62,Correct
1,relearn,13,520,B,86.69743549490433,63.40729150519179,4.334871774745216,0.9959994058836851,A,289,Incorrect
1,relearn,13,521,A,33.40810112952979,46.88725410330054,1.6704050564764896,0.7365032651896343,A,209,Correct
1,relearn,13,522,A,14.750327371491206,41.72736935844935,0.7375163685745604,0.6554519851506616,A,336,Correct
1,relearn,13,523,A,38.10648813610563,50.20778780441779,1.9053244068052817,0.7886620865967708,A,267,Incorrect
1,relearn,13,524,A,41.835581491983774,63.60861388199512,2.0917790745991884,0.999161770383528,B,360,Correct
1,relearn,13,525,B,47.038736516381235,19.46695003428525,2.3519368258190614,0.3057861360775506,B,331,Correct
1,relearn,13,526,B,79.67718748034791,51.96753236985878,3.9838593740173955,0.8163040895916905,B,330,Incorrect
1,relearn,13,527,A,20.832032738537105,48.531149282573764,1.0416016369268553,0.7623255102820166,B,450,Incorrect
1,relearn,13,528,B,83.8188112640126,65.47205156610798,4.19094056320063,1.0284325810776846,A,236,Correct
1,relearn,13,529,B,76.31918266527289,65.57116826227613,3.8159591332636444,1.0299895025003345,A,567,Incorrect
1,relearn,13,530,A,54.554848690439975,65.28436747578631,2.7277424345219985,1.0254844462809336,A,1054,Correct
1,relearn,13,531,A,48.23595114323843,62.820496788439044,2.4117975571619215,0.9867820560271064,A,512,Correct
1,relearn,13,532,B,38.931132469240694,22.46991471690386,1.9465566234620348,0.35295659500707177,B,289,Correct
1,relearn,13,533,B,50.77700697426164,38.58373598757413,2.538850348713082,0.606071907633055,A,975,Incorrect
1,relearn,13,534,B,84.98409536445213,66.84928747198397,4.249204768222606,1.0500661520984853,A,211,Correct
1,relearn,13,535,B,74.22095517390815,58.25082219001449,3.711047758695407,0.9150017752885741,A,323,Incorrect
1,relearn,13,536,B,51.797746007802196,33.27645890587806,2.5898873003901097,0.5227053941809457,A,217,Correct
1,relearn,13,537,A,47.26067761964053,54.747095126722016,2.3630338809820266,0.8599653592774572,A,293,Incorrect
1,relearn,13,538,B,72.23110998974025,55.77896113060131,3.6115554994870127,0.8761738725638384,B,258,Incorrect
1,relearn,13,539,A,52.36792104360208,61.24297310715904,2.6183960521801044,0.9620023719872404,A,250,Correct
1,relearn,13,540,B,49.97674581738609,19.535288490806195,2.498837290869304,0.3068595940423699,A,267,Correct
1,relearn,13,541,A,19.803817168212564,50.34485138230374,0.9901908584106281,0.7908150762435768,A,390,Correct
1,relearn,13,542,A,57.29014350951849,75.72747855682154,2.864507175475924,1.1895244515449457,A,301,Correct
1,relearn,13,543,A,59.86283119929436,84.07477622521526,2.993141559964718,1.3206434967067102,A,350,Correct
1,relearn,13,544,A,16.746503090568304,40.74624248751621,0.8373251545284152,0.640040480300846,A,72,Correct
1,relearn,13,545,B,47.42311422831866,19.67314500124273,2.371155711415933,0.3090250390445546,B,571,Incorrect
1,relearn,13,546,B,76.22197541709626,47.87994258667118,3.8110987708548127,0.7520963794229363,A,813,Correct
1,relearn,13,547,B,56.404981448509396,27.51387770957247,2.82024907242547,0.4321869804208041,A,367,Incorrect
1,relearn,13,548,B,60.78435924961184,53.3258298907256,3.039217962480592,0.8376401771564127,A,359,Correct
1,relearn,13,549,B,73.14371204549123,44.39033849593981,3.657185602274561,0.6972818065460434,A,448,Correct
1,relearn,13,550,B,47.706141014745825,17.51334783412226,2.385307050737291,0.275099024477206,A,347,Correct
1,relearn,13,551,A,51.65376913115448,67.95325513297861,2.582688456557724,1.0674072355663926,A,408,Incorrect
1,relearn,13,552,B,57.045517896260286,37.37379933268585,2.8522758948130145,0.5870662671015249,A,432,Incorrect
1,relearn,13,553,B,35.14726475123638,14.137051715301357,1.757363237561819,0.22206428906104864,B,481,Correct
1,relearn,13,554,B,75.44132897082126,56.73091166810478,3.7720664485410627,0.8911270766398472,B,442,Incorrect
1,relearn,13,555,B,68.95827508543591,44.967039179008445,3.4479137542717955,0.7063405996922867,B,499,Correct
1,relearn,13,556,B,64.61940993553978,43.4992359436095,3.230970496776989,0.6832844003860633,B,579,Incorrect
1,relearn,13,557,B,37.13684490069659,20.281663238461103,1.8568422450348294,0.31858362116265787,B,574,Correct
1,relearn,13,558,A,60.31586592239398,80.71578251723773,3.015793296119699,1.2678805469245273,A,702,Correct
1,relearn,13,559,B,41.79358093663531,25.541982058804727,2.0896790468317654,0.4012125159703161,B,649,Correct
1,relearn,13,560,B,82.56551402486727,61.20561856121516,4.128275701243364,0.9614156081516632,A,830,Correct
1,relearn,13,561,B,34.86144216552923,23.538571613224093,1.7430721082764618,0.36974301828051026,B,625,Correct
1,relearn,13,562,B,72.77822034749985,43.158923632471655,3.638911017374993,0.6779387871030793,B,582,Correct
1,relearn,13,563,B,49.47557147896499,25.748881720910866,2.473778573948249,0.40446248826283043,B,433,Correct
1,relearn,13,564,B,31.093746267004445,13.149159168627708,1.5546873133502224,0.2065465092252184,B,633,Correct
1,relearn,13,565,A,33.882715640683244,56.8494438121285,1.6941357820341623,0.892988975204243,B,496,Incorrect
1,relearn,13,566,A,49.8835019124264,81.18061623443495,2.49417509562132,1.2751821378799657,A,412,Correct
1,relearn,13,567,B,51.10358784460385,33.987441056756225,2.5551793922301926,0.5338734756911073,B,803,Correct
1,relearn,13,568,A,36.60652911598198,59.66015867691996,1.8303264557990988,0.9371395810570656,A,526,Incorrect
1,relearn,13,569,A,57.459747937289684,76.91667320250312,2.872987396864484,1.2082042773577535,A,407,Incorrect
1,relearn,13,570,B,34.87417000360317,20.611261395024524,1.7437085001801587,0.32376093689913976,B,412,Correct
1,relearn,13,571,B,42.704387179169714,26.816554276404723,2.135219358958486,0.42123344954672515,A,1139,Incorrect
1,relearn,13,572,B,66.92995697177152,42.21104977238929,3.3464978485885757,0.6630496193262564,B,363,Incorrect
1,relearn,13,573,B,34.608366871151496,11.763183921777376,1.7304183435575748,0.18477566095740686,B,559,Incorrect
1,relearn,13,574,B,73.09086926899836,46.35688177237592,3.654543463449918,0.7281721960971339,A,315,Correct
1,relearn,13,575,B,62.14443283987213,42.71314729932646,3.1072216419936063,0.6709365488363136,A,442,Correct
1,relearn,13,576,B,40.648116839785416,30.454158195307134,2.032405841989271,0.4783727982881914,A,709,Correct
1,relearn,13,577,A,55.38601716806711,73.94802544031242,2.7693008584033554,1.1615728673537828,A,436,Incorrect
1,relearn,13,578,B,35.23616901260024,20.811224915359784,1.7618084506300122,0.3269019565314958,A,368,Incorrect
1,relearn,13,579,B,54.31948967977893,30.690543467486034,2.7159744839889464,0.48208592946066164,B,311,Correct
1,relearn,13,580,B,44.51531507329182,25.102974152354527,2.225765753664591,0.39431659590145723,A,1340,Incorrect
1,relearn,13,581,A,51.92201429489949,69.920873001395,2.596100714744974,1.098314504768837,A,628,Incorrect
1,relearn,13,582,B,39.5967861176066,23.15882676846813,1.9798393058803299,0.3637780002078906,B,1705,Correct
1,relearn,13,583,B,38.572460026059076,24.69073679844574,1.9286230013029537,0.3878411866885816,B,2339,Correct
1,relearn,13,584,A,27.969103930569922,38.70408195129994,1.3984551965284961,0.607962297610706,B,379,Incorrect
1,relearn,13,585,A,21.72752731021669,35.54688166365753,1.0863763655108345,0.5583691114628612,A,821,Incorrect
1,relearn,13,586,A,39.05355855651084,68.46684395976115,1.9526779278255422,1.0754746699923217,B,545,Incorrect
1,relearn,13,587,B,83.99592381606935,55.649269375359594,4.199796190803467,0.8741366792363459,B,809,Correct
1,relearn,13,588,A,23.554780335337128,40.51234860236528,1.1777390167668564,0.6363664837442975,A,788,Incorrect
1,relearn,13,589,B,66.15872005916044,42.195956505944835,3.307936002958022,0.6628125348513536,B,395,Incorrect
1,relearn,13,590,A,38.25523058354626,51.60436140273582,1.9127615291773128,0.8105994133801376,A,287,Incorrect
1,relearn,13,591,A,36.853779854983244,51.15249569080974,1.8426889927491623,0.8035015233751571,B,353,Incorrect
1,relearn,13,592,A,56.89948887463917,67.10165699401522,2.8449744437319584,1.054030363280502,B,413,Correct
1,relearn,13,593,A,23.16284595612477,53.18926378712001,1.1581422978062386,0.8354950018173294,A,653,Correct
1,relearn,13,594,B,51.874373800304504,38.01659877695382,2.593718690015225,0.5971633371607441,A,551,Correct
1,relearn,13,595,B,66.19937516886087,53.503624991016196,3.309968758443043,0.8404329760609988,A,364,Incorrect
1,relearn,13,596,B,57.577198852406454,48.40154523580648,2.878859942620323,0.7602896946760184,B,400,Correct
1,relearn,13,597,B,40.14422555330819,29.059107663197665,2.0072112776654096,0.4564593957728832,A,312,Incorrect
1,relearn,13,598,A,42.28775839602027,61.228591021147835,2.114387919801014,0.96177645870846,B,348,Correct
1,relearn,13,599,B,70.99332012798452,45.50210894465677,3.5496660063992262,0.7147454559168805,B,929,Incorrect
1,relearn,13,600,B,58.52917264391256,48.161274635713454,2.9264586321956276,0.7565155329153891,A,311,Incorrect
1,relearn,13,601,B,68.90461212232742,48.81221611262101,3.445230606116371,0.7667404977242375,B,1988,Correct
1,relearn,13,602,A,50.57748940081895,68.39617894637543,2.528874470040947,1.0743646665577298,A,2586,Correct
1,relearn,13,603,B,39.5980108890854,24.575467848095045,1.97990054445427,0.3860305462505378,B,2406,Correct
1,relearn,13,604,B,34.493250878185954,14.440523254791756,1.7246625439092977,0.22683120885623176,A,1532,Incorrect
1,relearn,13,605,B,75.13750642664888,60.027600419113,3.756875321332444,0.942911342446545,B,1660,Correct
1,relearn,13,606,A,41.690653624697475,54.24910744776618,2.0845326812348737,0.8521429871085276,A,2300,Correct
1,relearn,13,607,B,57.53320164828163,36.69983104597247,2.876660082414082,0.5764795980100688,B,1673,Correct
1,relearn,13,608,B,66.3092358027051,57.181054505756336,3.315461790135255,0.8981979037990083,B,907,Correct
1,relearn,13,609,A,25.700562381308757,53.67785906824847,1.285028119065438,0.8431698385461882,A,1547,Correct
1,relearn,13,610,A,37.5417382723272,59.15420002759831,1.87708691361636,0.9291920011784199,A,1223,Correct
1,relearn,13,611,B,57.21860726833086,28.428383035313495,2.860930363416543,0.44655199648588795,B,775,Correct
1,relearn,13,612,B,62.17646179961739,34.18145014778331,3.1088230899808695,0.5369209633666089,B,874,Correct
1,relearn,13,613,A,23.248345122967805,48.87278191787617,1.1624172561483903,0.7676918631684793,A,782,Correct
1,relearn,13,614,A,25.834732968629645,54.21910263844863,1.2917366484314823,0.851671672665906,A,900,Correct
1,relearn,13,615,B,47.02379102097126,39.49421823471003,2.351189551048563,0.6203737293271855,B,1413,Correct
1,relearn,13,616,A,60.07594411112471,84.3166872215599,3.0037972055562356,1.3244434257514048,A,698,Correct
1,relearn,13,617,A,47.263965717036456,59.031042185813455,2.363198285851823,0.9272574423235036,B,758,Incorrect
1,relearn,13,618,B,78.36349958896649,50.88764754921364,3.9181749794483243,0.7993412984953809,B,805,Correct
1,relearn,13,619,B,39.656202627201154,21.51996023443103,1.9828101313600575,0.338034744890165,B,1027,Correct
1,relearn,13,620,B,50.13341204325076,18.8752641449757,2.506670602162538,0.2964919558621124,B,1177,Correct
1,relearn,13,621,A,63.76707134594716,81.59220105354342,3.1883535672973577,1.281647297100167,A,723,Correct
1,relearn,13,622,B,59.34182550696836,39.815514675967144,2.9670912753484178,0.6254206420245748,B,870,Correct
1,relearn,13,623,A,57.531216067288355,85.29612759377673,2.876560803364418,1.339828439141333,A,600,Correct
1,relearn,13,624,B,44.62462082894021,36.16560704131901,2.2312310414470105,0.5680880269681154,B,745,Correct
1,relearn,13,625,B,79.31403300053476,61.00854011784959,3.9657016500267384,0.9583199072023721,B,737,Correct
1,relearn,13,626,A,28.97707120307394,42.673492488550984,1.448853560153697,0.6703136525252549,A,958,Correct
1,relearn,13,627,B,73.54799844434059,56.275575203432886,3.6773999222170293,0.8839746681782233,B,556,Correct
1,relearn,13,628,A,53.21513530389244,76.6533120387809,2.660756765194622,1.2040674098718007,A,756,Correct
1,relearn,13,629,B,55.586873250194685,48.632068947666866,2.779343662509734,0.7639107526743125,B,600,Correct
1,relearn,13,630,B,46.09725645500118,20.089378970870282,2.3048628227500587,0.31556322695033684,B,753,Correct
1,relearn,13,631,B,79.55134766788056,56.19695512347883,3.977567383394028,0.882739706850182,B,920,Correct
1,relearn,13,632,B,58.252494545479934,40.48933090318448,2.9126247272739967,0.6360049225710528,B,818,Correct
1,relearn,13,633,B,50.14298768155135,40.244722787978795,2.507149384077567,0.6321626272823596,B,1739,Correct
1,relearn,13,634,A,36.343273722795196,57.92407668393186,1.81716368613976,0.9098692688810608,A,893,Correct
1,relearn,13,635,B,50.156988982260245,26.45320736203881,2.5078494491130123,0.4155260095623428,B,904,Correct
1,relearn,13,636,B,78.9058755619231,58.61099675331402,3.945293778096155,0.9206593840989327,B,1076,Correct
1,relearn,13,637,B,67.65578308887295,58.95833455965631,3.382789154443648,0.9261153536025273,B,610,Correct
1,relearn,13,638,A,37.13676439207294,64.14374766097166,1.856838219603647,1.00756763212713,A,2718,Correct
1,relearn,13,639,B,35.19980354022054,24.196239388221752,1.7599901770110273,0.38007363953268725,B,753,Correct
1,relearn,13,640,A,47.928859731903394,67.89931252217727,2.39644298659517,1.0665599070173477,A,847,Correct
1,relearn,13,641,B,51.01942889723279,27.802871015408726,2.5509714448616396,0.43672647665356323,B,506,Correct
1,relearn,13,642,B,83.16711793359966,55.643525382098666,4.158355896679983,0.8740464528011918,B,685,Correct
1,relearn,13,643,B,58.4739635289168,35.51283400907948,2.9236981764458396,0.5578342921553892,B,1128,Correct
1,relearn,13,644,A,46.30018670307449,77.09859850868759,2.315009335153724,1.2110619533848097,A,604,Correct
1,relearn,13,645,A,60.883256955039315,77.80549611640217,3.0441628477519656,1.222165875040991,B,977,Incorrect
1,relearn,13,646,A,23.46014436539191,54.69736019433997,1.1730072182695954,0.8591841247864661,A,1100,Correct
1,relearn,13,647,A,38.25455231975048,48.01595872406447,1.912727615987524,0.7542329159129584,A,813,Correct
1,relearn,13,648,A,45.18326668021294,65.19802421075379,2.2591633340106467,1.0241281694453679,B,1372,Incorrect
1,relearn,13,649,B,60.03303025282333,26.95487758591997,3.0016515126411667,0.4234062270116918,B,772,Correct
1,relearn,13,650,A,64.23500820519781,75.14321178626159,3.2117504102598904,1.1803468105743067,B,1043,Incorrect
1,relearn,13,651,B,36.94144149536109,18.353056149696947,1.8470720747680545,0.2882891318540445,B,1098,Correct
1,relearn,13,652,B,41.72606027063529,23.138258664982025,2.086303013531764,0.3634549171938395,A,1975,Incorrect
1,relearn,13,653,A,38.67892408392647,48.46402226269023,1.9339462041963233,0.7612710815193989,B,630,Incorrect
1,relearn,13,654,A,40.83875041290384,55.221702561662134,2.041937520645192,0.8674204754321921,A,2848,Correct
1,relearn,13,655,B,58.98140931921141,47.19529902179007,2.9490704659605704,0.741342023454146,B,499,Correct
1,relearn,13,656,B,59.602544021720334,50.31892088050321,2.9801272010860167,0.7904077608737746,B,575,Correct
1,relearn,13,657,B,68.11923866186137,37.57527439598646,3.4059619330930686,0.5902310299952586,B,757,Correct
1,relearn,13,658,B,52.36008825668699,41.69305084305502,2.61800441283435,0.6549129111714369,B,786,Correct
1,relearn,13,659,B,46.21788266826981,29.448257223812405,2.3108941334134903,0.46257214277675807,B,1784,Correct
1,relearn,13,660,A,50.79694360696403,68.92451559865792,2.5398471803482012,1.082663759284894,A,1184,Correct
1,relearn,13,661,A,46.91721863472675,60.4612041093066,2.3458609317363375,0.9497223732849531,B,1450,Incorrect
1,relearn,13,662,B,71.66302064826604,46.41510235322021,3.5831510324133022,0.7290867228424746,B,1106,Correct
1,relearn,13,663,A,47.225998536836705,72.77826984866952,2.361299926841835,1.1431983894877786,A,1098,Correct
1,relearn,13,664,A,37.406667250160694,47.806198096464655,1.8703333625080347,0.7509380036795587,B,1891,Incorrect
1,relearn,13,665,B,59.399507140191155,38.08519399612315,2.9699753570095577,0.598240828343813,B,1032,Correct
1,relearn,13,666,B,43.46467325935549,30.752583696708854,2.1732336629677746,0.4830604551024289,A,673,Incorrect
1,relearn,13,667,A,38.39191685927665,49.35221129146932,1.9195958429638325,0.775222722158456,A,600,Correct
1,relearn,13,668,A,42.215078961742094,71.826759811958,2.1107539480871047,1.128252104782029,A,3125,Correct
1,relearn,13,669,A,49.382692677668516,74.17005624076609,2.4691346338834257,1.1650605190116627,B,1678,Incorrect
1,relearn,13,670,B,77.76101542327348,61.168355557013875,3.888050771163674,0.9608302822504159,B,669,Correct
1,relearn,13,671,A,53.51312504123666,80.44017784254457,2.675656252061833,1.2635513588179725,A,1724,Correct
1,relearn,13,672,B,87.08460614431085,69.14455384478586,4.354230307215542,1.0861201119726158,B,572,Correct
1,relearn,13,673,A,43.38845392609078,71.67320418038645,2.1694226963045393,1.1258400585617165,A,1203,Correct
1,relearn,13,674,B,67.52966442684586,38.10680214462024,3.3764832213422924,0.5985802483466937,B,614,Correct
1,relearn,13,675,B,79.06316394542044,55.005716730193036,3.9531581972710224,0.864027777925078,B,649,Correct
1,relearn,13,676,B,82.19466700471058,61.52747979580192,4.109733350235529,0.9664713926019287,B,577,Correct
1,relearn,13,677,A,32.278507634040615,48.04400554232848,1.6139253817020307,0.7546734743040323,A,657,Correct
1,relearn,13,678,B,79.97190015402379,49.795546322591406,3.9985950077011894,0.782186612542717,B,790,Correct
1,relearn,13,679,A,26.421732763847352,48.86133438009683,1.3210866381923676,0.7675120456655329,A,659,Correct
1,relearn,13,680,A,44.33143019226875,61.7475945638847,2.2165715096134373,0.9699289472937062,A,640,Correct
1,relearn,13,681,B,68.07479253819865,38.537021985659166,3.4037396269099327,0.605338125806876,B,424,Correct
1,relearn,13,682,B,84.91222311228044,67.28675834093016,4.245611155614022,1.0569379284386895,B,611,Correct
1,relearn,13,683,A,36.879753660539855,56.21995576473409,1.8439876830269926,0.8831010000781587,A,762,Correct
1,relearn,13,684,A,12.955157530623598,33.2719391955672,0.6477578765311799,0.522634398737401,A,683,Correct
1,relearn,13,685,A,50.99411490053985,73.30144415338823,2.5497057450269924,1.1514163922490348,B,1682,Incorrect
1,relearn,13,686,A,55.46294130343473,75.55304208476632,2.7731470651717363,1.1867844098493119,B,697,Incorrect
1,relearn,13,687,B,71.25831571044247,44.9684111129841,3.562915785522124,0.7063621499807823,B,671,Correct
1,relearn,13,688,B,75.37052931641557,43.63567932989154,3.7685264658207784,0.6854276480859361,B,744,Correct
1,relearn,13,689,A,56.59525325198526,76.54334335549473,2.829762662599263,1.2023400258341166,A,1121,Correct
1,relearn,13,690,B,70.54250687549491,51.82561818230934,3.5271253437747454,0.8140749067464632,B,668,Correct
1,relearn,13,691,A,36.193203402258625,61.47446411583445,1.8096601701129313,0.9656386242483743,A,1066,Correct
1,relearn,13,692,A,18.470357040558582,44.9642204681115,0.9235178520279291,0.7062963234850544,A,1867,Correct
1,relearn,13,693,B,67.29249307641254,48.57060959122224,3.364624653820627,0.7629453513608085,B,645,Correct
1,relearn,13,694,A,49.63295208699718,70.08002760483862,2.481647604349859,1.1008144994336546,A,883,Correct
1,relearn,13,695,A,35.76735303513412,61.30108860933231,1.7883676517567062,0.9629152481606766,A,2986,Correct
1,relearn,13,696,B,38.11302913304406,28.301593150066182,1.905651456652203,0.4445603856256757,B,794,Correct
1,relearn,13,697,B,54.62769417976299,24.83139360381296,2.7313847089881493,0.39005061862067686,B,805,Correct
1,relearn,13,698,A,51.07637291845024,62.274913997260015,2.553818645922512,0.9782120615836413,B,1160,Incorrect
1,relearn,13,699,B,67.10573173960867,43.24924263161128,3.355286586980434,0.6793575146239624,B,715,Correct
1,relearn,13,700,A,38.17466467372764,65.55420952493562,1.908733233686382,1.0297231152771187,A,623,Correct
1,relearn,13,701,A,57.27197847610435,74.93947772124952,2.8635989238052173,1.1771465633646672,B,779,Incorrect
1,relearn,13,702,A,34.384510273960935,46.30591961177312,1.7192255136980465,0.7273716843503298,B,579,Incorrect
1,relearn,13,703,A,60.36584055333346,77.00299458877114,3.018292027666673,1.20956021052249,A,694,Correct
1,relearn,13,704,A,23.533678186054885,49.97969964115936,1.1766839093027444,0.7850792861064534,A,1327,Correct
1,relearn,13,705,B,74.72788557844326,61.954486727478695,3.736394278922163,0.9731788017998672,B,641,Correct
1,relearn,13,706,B,79.00683305977849,50.175038329282586,3.9503416529889246,0.7881476590443024,B,505,Correct
1,relearn,13,707,A,31.887447189347274,62.74219519578298,1.5943723594673636,0.9855520974858432,A,658,Correct
1,relearn,13,708,A,68.85471752642621,88.28051879742897,3.4427358763213105,1.3867071465454923,A,1168,Correct
1,relearn,13,709,A,67.19316297320023,88.86971381906176,3.3596581486600114,1.3959622003029586,A,530,Correct
1,relearn,13,710,B,42.41031483112633,20.780849259268518,2.1205157415563165,0.3264248168413743,B,729,Correct
1,relearn,13,711,B,44.593011851998874,31.05903117698273,2.2296505925999437,0.4878741208661265,B,786,Correct
1,relearn,13,712,A,32.52861426773799,65.82094629359428,1.6264307133868996,1.0339130066414204,A,1628,Correct
1,relearn,13,713,A,22.82938848636825,51.39240708201328,1.1414694243184125,0.8072700426957448,A,1110,Correct
1,relearn,13,714,B,63.887597817203975,44.39545690289151,3.1943798908601986,0.6973622062944312,B,1855,Correct
1,relearn,13,715,B,53.81222931595473,30.83593609519088,2.6906114657977365,0.48436975151608,B,747,Correct
1,relearn,13,716,B,81.27261780619716,57.15682619808407,4.063630890309858,0.8978173264320476,B,715,Correct
1,relearn,13,717,B,37.31303209737947,22.735777495356743,1.8656516048689735,0.3571327577653245,A,1959,Incorrect
1,relearn,13,718,A,47.72657294831816,73.10917831094694,2.3863286474159078,1.1483962874582858,B,1627,Incorrect
1,relearn,13,719,B,36.4875981185413,17.27540884383942,1.8243799059270651,0.2713614875578303,A,2472,Incorrect
1,relearn,13,720,B,87.30944263915363,67.48363027483965,4.365472131957682,1.06003038554503,B,684,Correct
1,relearn,13,721,B,38.70992316065936,29.839470991627703,1.9354961580329677,0.46871731427151664,A,2000,Incorrect
1,relearn,13,722,B,68.87335832708315,59.406224945667034,3.443667916354158,0.9331507993340513,B,575,Correct
1,relearn,13,723,B,71.92834225230277,55.957608569514825,3.5964171126151383,0.8789800599722051,B,481,Correct
1,relearn,13,724,A,57.834703649446645,80.2807898341237,2.8917351824723325,1.2610476978363456,A,1434,Correct
1,relearn,13,725,A,24.18211899430332,35.11317569886843,1.209105949715166,0.5515564740988637,B,803,Incorrect
1,relearn,13,726,A,12.013401970396764,37.54223104257244,0.6006700985198382,0.5897119862135813,100,483,Correct
1,relearn,13,727,A,44.306430378121654,70.0242183211398,2.215321518906083,1.099937849255303,A,1777,Correct
1,relearn,13,728,A,67.62637916641756,83.07017828411327,3.381318958320878,1.3048633091488233,A,2398,Correct
1,relearn,13,729,A,50.25694618789066,78.34256545379468,2.512847309394533,1.2306021404650946,B,1626,Incorrect
1,relearn,13,730,B,51.45097135416956,26.59369475648382,2.5725485677084783,0.4177327803938949,B,708,Correct
1,relearn,13,731,A,36.42756105339291,46.541048327076396,1.8213780526696453,0.7310650775735535,B,744,Incorrect
1,relearn,13,732,A,31.70254841886109,42.090963737599786,1.5851274209430546,0.6611633123027892,A,686,Correct
1,relearn,13,733,A,39.09138091124299,65.9434085623642,1.9545690455621496,1.0358366394609684,A,520,Correct
1,relearn,13,734,B,88.48853455162431,62.33053359509053,4.424426727581215,0.979085732183341,B,659,Correct
1,relearn,13,735,A,48.58543476636444,56.42781952664619,2.429271738318222,0.8863661164150117,B,2550,Incorrect
1,relearn,13,736,B,47.2044081401982,23.30197840631183,2.36022040700991,0.36602662087688614,B,836,Correct
1,relearn,13,737,A,58.86195381661966,75.70677354884623,2.9430976908309834,1.189199218040207,A,1042,Correct
1,relearn,13,738,A,35.580492168662545,61.350242963614185,1.7790246084331272,0.963687362952196,A,1996,Correct
1,relearn,13,739,B,74.90823489037071,47.57825626841441,3.745411744518535,0.7473575018173162,B,633,Correct
1,relearn,13,740,A,20.75906489760498,44.03857627161811,1.037953244880249,0.6917563384473462,A,642,Correct
1,relearn,13,741,A,55.04216790621988,64.23722375926242,2.752108395310994,1.0090359512455127,B,1111,Incorrect
1,relearn,13,742,A,60.87747161452166,84.98476907831233,3.0438735807260833,1.3349376310172552,A,494,Correct
1,relearn,13,743,A,44.57735757179882,60.355543075163325,2.228867878589941,0.948062653641777,A,785,Correct
1,relearn,13,744,B,40.617346977689806,24.331746179525545,2.0308673488844904,0.38220217523304484,B,636,Correct
1,relearn,13,745,A,26.381651502750824,58.840293153496596,1.319082575137541,0.9242611635304734,A,483,Correct
1,relearn,13,746,B,79.1801055020416,66.39053293132284,3.95900527510208,1.0428600526247753,B,633,Correct
1,relearn,13,747,B,49.936896002561014,21.17870866611868,2.4968448001280508,0.3326743777899847,A,1298,Incorrect
1,relearn,13,748,A,18.198114580167516,35.024395025646726,0.9099057290083757,0.5501619105449932,B,464,Incorrect
1,relearn,13,749,B,40.21600979949159,28.44638911399401,2.0108004899745793,0.44683483530840123,A,565,Incorrect
1,relearn,13,750,A,31.21255507092662,52.09997229624522,1.5606277535463309,0.8183844510905788,A,593,Correct
1,relearn,13,751,A,21.164516585895555,52.31347493321927,1.0582258292947777,0.8217381426697772,A,563,Correct
1,relearn,13,752,A,58.52211087151822,74.78910991506872,2.926105543575911,1.1747845913884971,B,565,Incorrect
1,relearn,13,753,B,76.55632037668337,45.071581357361595,3.8278160188341688,0.7079827443898092,B,790,Correct
1,relearn,13,754,A,49.29850745118105,72.88679446442559,2.4649253725590525,1.1449030901657433,B,1424,Incorrect
1,relearn,13,755,A,56.57382189853752,70.2664183586965,2.8286910949268758,1.1037423185487396,A,296,Correct
1,relearn,13,756,A,39.04076931291611,52.623004871847264,1.9520384656458054,0.8266002275760763,A,611,Correct
1,relearn,13,757,B,46.98007250159334,19.68561212397482,2.349003625079667,0.30922087215048727,B,694,Correct
1,relearn,13,758,A,29.1241528859811,60.35255399208475,1.456207644299055,0.9480157012345739,A,963,Correct
1,relearn,13,759,A,34.58622625333953,58.01642560027567,1.7293113126669766,0.9113198822668241,A,876,Correct
1,relearn,13,760,A,43.53549997340793,55.7584463415658,2.1767749986703966,0.875851627011219,A,1201,Correct
1,relearn,13,761,B,68.53546539245428,44.87037007818205,3.4267732696227142,0.70482212500736,B,583,Correct
1,relearn,13,762,A,45.53119299450515,73.64900510542012,2.2765596497252574,1.156875866916925,A,1125,Correct
1,relearn,13,763,B,45.80213721923296,26.22226262650453,2.2901068609616484,0.41189833813964416,B,611,Correct
1,relearn,13,764,A,49.55168451121973,68.27042394923656,2.4775842255609866,1.0723893116819112,A,796,Correct
1,relearn,13,765,B,32.208787026596156,17.684971843400106,1.6104393513298079,0.2777948881108406,B,539,Correct
1,relearn,13,766,B,30.048589861953026,13.301123779732961,1.5024294930976512,0.20893356375448788,B,500,Correct
1,relearn,13,767,A,57.381767652150415,73.61874726565738,2.869088382607521,1.1564005778813642,A,579,Correct
1,relearn,13,768,A,47.004313163374874,67.96560333402098,2.350215658168744,1.0676012006547912,B,675,Incorrect
1,relearn,13,769,B,32.817895602061675,12.834244333299488,1.6408947801030838,0.20159983855935049,A,917,Incorrect
1,relearn,13,770,B,47.38077210688892,38.77793649310208,2.369038605344446,0.6091224020405053,B,426,Correct
1,relearn,13,771,A,40.22445981420827,52.637927235323204,2.0112229907104133,0.8268346275134273,A,836,Correct
1,relearn,13,772,B,41.7798257186045,30.84881187865541,2.0889912859302253,0.48457200384978694,B,639,Correct
1,relearn,13,773,B,46.92453364410851,26.15807008445239,2.3462266822054256,0.4108900040470128,A,755,Incorrect
1,relearn,13,774,A,31.607818009142488,45.53156761536554,1.5803909004571244,0.7152081916342965,B,379,Incorrect
1,relearn,13,775,A,52.77711183432235,68.61634115546569,2.6388555917161174,1.0778229664511099,A,342,Correct
1,relearn,13,776,A,39.13132480967444,62.546139732441965,1.9565662404837219,0.9824724654692018,A,586,Correct
1,relearn,13,777,B,51.65432670153174,36.17453068498786,2.582716335076587,0.568228199235082,B,648,Correct
1,relearn,13,778,B,63.16841970596472,55.0468607444346,3.158420985298236,0.8646740665894808,B,655,Correct
1,relearn,13,779,A,63.8306302182457,82.07602854364177,3.191531510912285,1.2892472415426557,A,762,Correct
1,relearn,13,780,A,64.01885889116926,79.27307061949774,3.200942944558463,1.245218481428595,A,508,Correct
1,relearn,13,781,A,39.63853136420266,47.191258286139856,1.9819265682101332,0.7412785517269771,A,428,Correct
1,relearn,13,782,B,65.10423796047165,46.897435811087576,3.2552118980235827,0.736663199081558,B,576,Correct
1,relearn,13,783,B,69.45878068933158,59.65915784609841,3.4729390344665787,0.9371238600432832,A,403,Incorrect
1,relearn,13,784,A,37.68162346804589,65.07371763163154,1.8840811734022946,1.0221755662665513,B,286,Incorrect
1,relearn,13,785,B,40.44718549766429,32.03214367524218,2.0223592748832147,0.5031597362443679,A,210,Incorrect
1,relearn,13,786,A,35.86980102543447,67.03882828597652,1.7934900512717236,1.0530434522424574,A,289,Correct
1,relearn,13,787,A,59.58370370188711,68.92614048057968,2.9791851850943556,1.082689282870436,B,589,Incorrect
1,relearn,13,788,A,20.219256434930102,38.3464983521526,1.0109628217465052,0.6023453875700786,A,338,Correct
1,relearn,13,789,A,15.905617204675515,40.44104973025769,0.7952808602337756,0.6352465236801852,A,347,Correct
1,relearn,13,790,B,50.59713568592047,27.888383593887493,2.529856784296024,0.4380697050952552,B,1384,Correct
1,relearn,13,791,B,36.671783466184024,26.941561474776474,1.8335891733092011,0.4231970580269778,B,670,Correct
1,relearn,13,792,B,72.95822538065141,58.352051226789236,3.6479112690325706,0.9165918772798817,A,645,Incorrect
1,relearn,13,793,A,41.62748855409347,59.40285208863024,2.0813744277046733,0.9330978186196093,B,367,Incorrect
1,relearn,13,794,B,35.387603133390776,18.070794453142,1.7693801566695386,0.2838553754926104,B,1231,Correct
1,relearn,13,795,A,46.80608748540047,64.09260193616028,2.3403043742700236,1.0067642369604803,A,955,Correct
1,relearn,13,796,B,56.50315552338316,29.07333453194404,2.8251577761691578,0.45668287090456927,A,745,Incorrect
1,relearn,13,797,B,56.7179288168448,46.30362763693044,2.83589644084224,0.7273356820936898,B,973,Correct
1,relearn,13,798,B,73.69681716917675,59.40989985457055,3.6848408584588377,0.9332085246681208,B,604,Correct
1,relearn,13,799,A,51.754461901951146,82.0743941656091,2.587723095097557,1.2892215687925528,B,888,Incorrect
1,relearn,13,800,A,25.57099554557099,42.751510238797145,1.2785497772785497,0.6715391524803697,B,586,Incorrect
1,relearn,13,801,B,51.669952231901114,32.441603221609576,2.583497611595056,0.5095915117584181,A,364,Incorrect
1,relearn,13,802,B,31.782333132045967,12.457199063779154,1.5891166566022983,0.19567722531537118,A,666,Incorrect
1,relearn,13,803,A,26.066762451575848,36.24529384335766,1.3033381225787923,0.5693397443274789,A,1125,Correct
1,relearn,13,804,B,49.73696114119666,19.545077930075195,2.486848057059833,0.30701336619482117,B,648,Correct
1,relearn,13,805,A,48.73463647082893,64.51422066941313,2.4367318235414466,1.0133870085354955,A,658,Correct
1,relearn,13,806,B,68.98378898494978,37.44367561053578,3.4491894492474895,0.5881638811072925,B,967,Correct
1,relearn,13,807,B,71.45800440777603,55.618145194138194,3.572900220388801,0.8736477817409751,B,692,Correct
1,relearn,13,808,A,42.01892287017547,49.02774753153619,2.1009461435087733,0.7701260573356461,B,601,Incorrect
1,relearn,13,809,B,65.06541447181213,43.70184589972488,3.2532707235906067,0.6864669901344445,A,538,Incorrect
1,relearn,13,810,A,24.66663774135761,37.212748673779686,1.2333318870678807,0.584536489267148,B,553,Incorrect
1,relearn,13,811,B,74.97614473994867,56.755336620874175,3.7488072369974335,0.8915107429007704,A,520,Incorrect
1,relearn,13,812,A,17.970044186089055,44.403309848581195,0.8985022093044528,0.6974855600768699,A,765,Correct
1,relearn,13,813,B,84.84124221574878,61.49957407816408,4.2420621107874386,0.9660330506143077,B,718,Correct
1,relearn,13,814,A,42.38183682259833,51.453737154209065,2.1190918411299164,0.8082334132170168,B,562,Incorrect
1,relearn,13,815,B,54.80001703891913,46.87879180743992,2.7400008519459567,0.7363703397570932,A,315,Incorrect
1,relearn,13,816,A,53.65052058115636,75.09114585195431,2.6825260290578177,1.1795289607906967,B,387,Incorrect
1,relearn,13,817,B,66.25057501719161,37.33800316149983,3.3125287508595807,0.5865039821594016,A,427,Incorrect
1,relearn,13,818,B,77.22722177773298,59.22285205984464,3.861361088886649,0.9302703847792153,B,305,Correct
1,relearn,13,819,A,52.202416390600725,77.20311245865547,2.6101208195300365,1.2127036546718932,A,1045,Correct
1,relearn,13,820,B,44.225173859251974,30.41094421999599,2.211258692962599,0.47769399475134194,B,711,Correct
1,relearn,13,821,A,52.11182238831332,76.14117115402226,2.605591119415666,1.196022719665997,A,920,Correct
1,relearn,13,822,A,37.07503932448725,50.033906942464625,1.8537519662243624,0.785930772404211,B,550,Incorrect
1,relearn,13,823,A,52.97156729886017,67.14153124393275,2.6485783649430084,1.0546567065335433,A,402,Correct
1,relearn,13,824,A,30.496404452333948,47.72676328549241,1.5248202226166974,0.7496902445866099,B,855,Incorrect
1,relearn,13,825,A,50.1722113002001,61.11914071143067,2.508610565010005,0.9600572172637571,A,942,Correct
1,relearn,13,826,A,48.60937404207927,72.40957720850103,2.4304687021039633,1.1374069790388488,A,955,Correct
1,relearn,13,827,B,56.13949124202536,42.00341771700761,2.806974562101268,0.6597881426270722,B,562,Correct
1,relearn,13,828,A,44.46698576442141,74.10580711874366,2.2233492882210704,1.1640512961629361,A,738,Correct
1,relearn,13,829,B,79.9922554615032,58.353683827020305,3.9996127730751603,0.9166175221043426,B,677,Correct
1,relearn,13,830,A,39.476253940032535,51.47126244480595,1.9738126970016268,0.8085086998379729,B,1814,Incorrect
1,relearn,13,831,A,27.60694526707555,40.27403773625075,1.3803472633537774,0.6326231054130173,A,396,Correct
1,relearn,13,832,B,84.50826974742264,65.72807726672141,4.225413487371132,1.0324542233785714,B,744,Correct
1,relearn,13,833,B,34.82102167897336,20.525403477513542,1.741051083948668,0.3224122838846147,B,825,Correct
1,relearn,13,834,A,46.80218911769212,54.89925770804371,2.3401094558846065,0.8623555235156146,B,623,Incorrect
1,relearn,13,835,A,50.60940819050814,74.7833179041825,2.530470409525407,1.1746936106942487,A,65,Correct
1,relearn,13,836,A,25.884569683006603,47.89913041800671,1.29422848415033,0.7523977811727464,A,647,Correct
1,relearn,13,837,A,29.971675653345287,41.006815533106774,1.4985837826672646,0.6441335521296002,A,561,Correct
1,relearn,13,838,A,66.44377509127465,83.0007237701872,3.322188754563732,1.3037723201952789,B,607,Incorrect
1,relearn,13,839,B,54.07019168176483,45.600649607102476,2.7035095840882417,0.716293329022977,B,596,Correct
1,relearn,13,840,B,48.11998556592128,40.987430497875664,2.4059992782960644,0.6438290527082422,B,679,Correct
1,relearn,13,841,B,66.65842616893539,49.43087550410834,3.3329213084467697,0.7764583767210921,B,583,Correct
1,relearn,13,842,B,72.61231746331987,54.90880193313844,3.6306158731659934,0.8625054438528238,B,641,Correct
1,relearn,13,843,A,27.710154457916126,51.083494542823445,1.3855077228958064,0.8024176558771422,A,1056,Correct
1,relearn,13,844,B,43.57815219320116,33.490864210908825,2.178907609660058,0.5260732648368225,A,814,Incorrect
1,relearn,13,845,B,32.66631095641955,12.337188692842322,1.6333155478209775,0.1937921068169225,A,589,Incorrect
1,relearn,13,846,B,58.67937629613979,28.469749940457145,2.93396881480699,0.44720178631239316,B,1247,Correct
1,relearn,13,847,A,69.55150141729064,85.86178376827728,3.477575070864532,1.3487137455526763,B,669,Incorrect
1,relearn,13,848,A,13.779054534277112,35.643176983922956,0.6889527267138555,0.5598817148164659,A,645,Correct
1,relearn,13,849,B,36.59434775146103,13.239117255265608,1.8297173875730517,0.20795956754578146,A,689,Incorrect
1,relearn,13,850,B,51.169584252297156,37.47353087236019,2.558479212614858,0.5886328464633854,B,716,Correct
1,relearn,13,851,B,72.66835679173492,53.84845505344724,3.6334178395867465,0.8458495540153501,A,1398,Incorrect
1,relearn,13,852,A,40.22675242047064,62.15765293423888,2.011337621023532,0.9763701291129446,A,620,Correct
1,relearn,13,853,B,89.33609125854537,68.91465309649777,4.466804562927268,1.0825088394632323,B,834,Correct
1,relearn,13,854,B,80.21048558773744,65.2345319649358,4.010524279386872,1.0247016319070543,B,636,Correct
1,relearn,13,855,B,79.66299481326986,56.78281736335086,3.983149740663493,0.8919424093941701,B,468,Correct
1,relearn,13,856,A,54.67387494752475,66.47287201234356,2.7336937473762375,1.0441534318849655,A,749,Correct
1,relearn,13,857,B,67.61232954217715,35.53257309967054,3.380616477108857,0.5581443530653364,B,579,Correct
1,relearn,13,858,A,37.92004360035332,45.829246609905006,1.8960021800176659,0.7198841223461625,B,937,Incorrect
1,relearn,13,859,B,33.55217690342599,16.585286637209684,1.6776088451712994,0.26052107328569457,A,712,Incorrect
1,relearn,13,860,B,69.94899434599694,55.949196290546595,3.4974497172998467,0.8788479202031725,107,622,Incorrect
1,relearn,13,861,A,16.907867876067325,40.58134248591297,0.8453933938033663,0.6374502371327777,A,625,Correct
1,relearn,13,862,B,58.24947553546361,42.561156454332206,2.9124737767731808,0.6685490822260793,B,589,Correct
1,relearn,13,863,A,67.26663815865277,87.84447220159348,3.3633319079326385,1.3798577426349943,A,993,Correct
1,relearn,13,864,A,63.81307134719455,74.31063905564503,3.1906535673597274,1.167268788703886,A,803,Correct
1,relearn,13,865,B,38.8496967754152,14.172827237392998,1.9424848387707598,0.2226262496479558,B,470,Correct
1,relearn,13,866,A,36.805580642622964,52.64386186668569,1.8402790321311482,0.8269278484848782,A,652,Correct
1,relearn,13,867,B,70.19406438765151,59.11337584841461,3.5097032193825752,0.9285507364713582,B,559,Correct
1,relearn,13,868,A,21.510162439232545,42.02510161311442,1.0755081219616272,0.6601287524706242,A,764,Correct
1,relearn,13,869,A,54.31485923085053,64.16343875268977,2.715742961542526,1.0078769390725442,B,531,Incorrect
1,relearn,13,870,B,56.34144754691208,26.837934313350843,2.817072377345604,0.4215692863817422,B,695,Correct
1,relearn,13,871,A,37.57628315735068,68.15829083070503,1.878814157867534,1.0706279287748972,A,818,Correct
1,relearn,13,872,A,56.99986836905481,75.83053674705172,2.8499934184527405,1.1911432858115427,A,686,Correct
1,relearn,13,873,B,42.31832153019505,28.44607814288628,2.1159160765097527,0.44682995058566366,B,535,Correct
1,relearn,13,874,A,50.68272734827901,65.9339327913284,2.5341363674139505,1.0356877943976024,A,617,Correct
1,relearn,13,875,B,46.37341732703028,35.694901943709496,2.318670866351514,0.560694208584829,B,522,Correct
1,relearn,13,876,A,28.597739122163148,45.61173996906311,1.4298869561081573,0.716467536021283,B,728,Incorrect
1,relearn,13,877,B,57.790286993053435,36.49801455155316,2.889514349652672,0.5733094719288638,B,614,Correct
1,relearn,13,878,B,80.21838494080673,54.83820270642515,4.010919247040337,0.8613964737928659,B,645,Correct
1,relearn,13,879,B,54.773324226795815,44.74341504703255,2.738666211339791,0.7028279200413823,B,669,Correct
1,relearn,13,880,A,13.14521373695105,40.10687970829837,0.6572606868475525,0.6299973932499986,A,950,Correct
1,relearn,13,881,B,34.2459610567992,23.13834856283895,1.7122980528399603,0.3634563293060739,B,608,Correct
1,relearn,13,882,B,74.42240254474676,63.060545426008645,3.721120127237338,0.9905527312085709,B,769,Correct
1,relearn,13,883,B,33.352643152639395,13.414812642938664,1.6676321576319697,0.21071938424169795,A,1592,Incorrect
1,relearn,13,884,B,70.01040219531981,58.690399573375736,3.5005201097659904,0.9219066406798339,B,552,Correct
1,relearn,13,885,B,66.46521177167816,40.533108688395174,3.3232605885839077,0.6366925824130945,B,481,Correct
1,relearn,13,886,B,82.21436511179782,55.8184485619942,4.110718255589891,0.8767941396857035,B,534,Correct
1,relearn,13,887,B,60.92351716829643,34.6330680760675,3.0461758584148213,0.5440149611952443,B,478,Correct
1,relearn,13,888,B,43.40668647137265,28.927249638860836,2.1703343235686328,0.454388174770016,B,496,Correct
1,relearn,13,889,A,43.45289774417479,53.28794908719223,2.1726448872087394,0.8370451468859501,B,411,Incorrect
1,relearn,13,890,A,38.38446407066109,46.6704546129785,1.9192232035330545,0.7330977867591456,A,748,Correct
1,relearn,13,891,B,36.24780199745135,14.81470523074503,1.8123900998725673,0.23270884559003432,B,621,Correct
1,relearn,13,892,B,68.6954627194003,58.276768190668776,3.434773135970015,0.9154093341138018,B,667,Correct
1,relearn,13,893,A,33.19814762670639,48.90209114359889,1.6599073813353191,0.7681522514095437,B,452,Incorrect
1,relearn,13,894,A,67.91184807088558,83.88377579909059,3.395592403544279,1.3176432690289812,B,342,Incorrect
1,relearn,13,895,B,51.48829934467291,31.164543568416317,2.574414967233645,0.4895315056350787,B,475,Correct
1,relearn,13,896,A,15.07649562784552,37.200848832134184,0.753824781392276,0.5843495669916859,A,617,Correct
1,relearn,13,897,A,64.97704891163778,82.19396484582856,3.248852445581889,1.2910997806453635,B,588,Incorrect
1,relearn,13,898,A,69.09742758414194,89.21462965724449,3.454871379207097,1.401380125619667,A,915,Correct
