experiment,condition,subject,trial,cat,x,y,xt,yt,resp,rt,fb
1,relearn,27,0,A,42.97568193860674,57.86272297342734,2.1487840969303367,0.9089055270501033,A,3745,Correct
1,relearn,27,1,B,35.449279705725985,15.823279836562666,1.7724639852862993,0.24855149845120386,B,978,Correct
1,relearn,27,2,A,58.78841226849251,73.12430079727012,2.939420613424625,1.1486338309179704,A,920,Correct
1,relearn,27,3,B,73.58326331709311,53.032535341187135,3.6791631658546553,0.8330331171455728,B,850,Correct
1,relearn,27,4,A,38.627998704053034,46.2207308271138,1.9313999352026516,0.7260335420500599,B,762,Incorrect
1,relearn,27,5,A,49.221052599780464,72.69949924234247,2.461052629989023,1.141961063696999,A,929,Correct
1,relearn,27,6,A,51.67797094469707,79.83007972771954,2.583898547234854,1.2539679600404556,A,853,Correct
1,relearn,27,7,A,56.78259528393005,80.12359399089061,2.8391297641965023,1.2585784713049661,A,696,Correct
1,relearn,27,8,B,79.4299750843582,56.56717418231711,3.9714987542179103,0.8885550942275083,B,777,Correct
1,relearn,27,9,B,73.15091252810107,49.64397997954306,3.6575456264050534,0.7798058139934562,A,1240,Incorrect
1,relearn,27,10,B,79.99701521121554,60.13997266440848,3.999850760560777,0.9446764815479832,B,692,Correct
1,relearn,27,11,B,77.23706055548092,52.24883629237229,3.861853027774046,0.8207228012736627,B,656,Correct
1,relearn,27,12,B,45.80413397041695,22.68340230512002,2.2902066985208474,0.3563100502009341,A,1348,Incorrect
1,relearn,27,13,B,70.90907980514446,39.37674369629256,3.545453990257223,0.6185284435928045,B,694,Correct
1,relearn,27,14,A,32.845541902014084,49.0827140266988,1.6422770951007042,0.7709894690226283,B,828,Incorrect
1,relearn,27,15,A,21.055060707264232,36.010367255479466,1.0527530353632115,0.5656495261144235,A,936,Correct
1,relearn,27,16,A,61.539001054208626,72.78748431607929,3.076950052710431,1.143343130003385,B,1531,Incorrect
1,relearn,27,17,A,51.91869364154604,66.7740705737721,2.595934682077302,1.048884647824244,A,798,Correct
1,relearn,27,18,A,68.44173640705122,83.3686202159881,3.422086820352561,1.3095512240523288,B,935,Incorrect
1,relearn,27,19,A,56.89580698630268,71.82669480466305,2.8447903493151343,1.128251083649828,A,632,Correct
1,relearn,27,20,B,82.18685943589695,60.78736192789435,4.109342971794848,0.9548456483188839,B,653,Correct
1,relearn,27,21,A,31.168244677033947,62.029871383759954,1.5584122338516975,0.9743629412117002,A,671,Correct
1,relearn,27,22,A,58.89655336776218,79.41293321989431,2.944827668388109,1.247415438018184,B,841,Incorrect
1,relearn,27,23,B,66.14857216029935,36.89304336945672,3.3074286080149675,0.5795145700902743,B,763,Correct
1,relearn,27,24,A,20.594737712339114,37.94966944320706,1.0297368856169558,0.5961120136447017,A,733,Correct
1,relearn,27,25,B,83.39871702229767,66.93240166498808,4.169935851114883,1.0513717067892387,B,852,Correct
1,relearn,27,26,B,76.33742493748395,58.626101735748804,3.8168712468741974,0.9208966526081812,B,2452,Correct
1,relearn,27,27,A,35.62186190977464,43.987583104212284,1.7810930954887316,0.6909553396468191,A,784,Correct
1,relearn,27,28,A,22.489982505384184,35.42599508428949,1.1244991252692091,0.5564702295145599,B,783,Incorrect
1,relearn,27,29,A,35.375380481027804,58.08434390473498,1.7687690240513902,0.9123867404984926,A,654,Correct
1,relearn,27,30,A,64.62334432376124,79.8485820820688,3.231167216188062,1.2542585943429445,B,870,Incorrect
1,relearn,27,31,A,53.92196786000112,77.97655629339936,2.696098393000056,1.224852882017872,A,602,Correct
1,relearn,27,32,B,47.98199285572961,22.183315067194968,2.39909964278648,0.3484546982368374,B,840,Correct
1,relearn,27,33,B,38.86407416352188,24.350036831249135,1.9432037081760938,0.38248948411846584,A,831,Incorrect
1,relearn,27,34,B,48.31986630674109,33.846335753324894,2.4159933153370545,0.5316569987678952,B,584,Correct
1,relearn,27,35,A,29.16673432339843,57.06686758815551,1.4583367161699214,0.8964042598916542,A,920,Correct
1,relearn,27,36,B,43.17169321143453,21.827767527548904,2.1585846605717265,0.34286977054406736,B,691,Correct
1,relearn,27,37,A,13.800009057438604,39.349221644817874,0.6900004528719301,0.6180961282191815,A,1997,Correct
1,relearn,27,38,A,23.451405071548063,42.583606977070005,1.1725702535774032,0.6689017342125909,B,764,Incorrect
1,relearn,27,39,A,58.46158339642538,70.7834474236279,2.9230791698212695,1.111863792109144,B,644,Incorrect
1,relearn,27,40,A,46.45591578537497,72.71607026949229,2.3227957892687483,1.1422213607827807,A,647,Correct
1,relearn,27,41,B,67.69730954003684,35.060036167624574,3.384865477001842,0.550721760294009,B,825,Correct
1,relearn,27,42,B,84.2023895248901,67.48155982975034,4.210119476244505,1.0599978630696187,A,942,Incorrect
1,relearn,27,43,B,58.45259459837274,47.525837746747484,2.9226297299186372,0.746534113604412,B,582,Correct
1,relearn,27,44,A,43.66071778459036,75.49783826046962,2.183035889229518,1.185917270205009,B,2756,Incorrect
1,relearn,27,45,B,85.91762974413521,63.99755283164032,4.29588148720676,1.0052712091180296,B,2625,Correct
1,relearn,27,46,B,31.26094568887067,13.980968096248738,1.5630472844435335,0.21961253330624153,A,724,Incorrect
1,relearn,27,47,B,61.79120065623993,54.337207296869586,3.0895600328119963,0.8535268563021559,B,844,Correct
1,relearn,27,48,A,42.77197552414977,62.668498911992245,2.138598776207488,0.9843944789670739,A,1230,Correct
1,relearn,27,49,A,17.895263253850178,36.95872271211779,0.8947631626925089,0.5805462587922574,A,2275,Correct
1,relearn,27,50,B,37.363582459388525,25.683516500158184,1.868179122969426,0.40343573377624586,A,1052,Incorrect
1,relearn,27,51,B,42.5429280177376,21.403780050268658,2.1271464008868803,0.3362097908248789,B,986,Correct
1,relearn,27,52,B,39.773565169933754,26.193909278984847,1.9886782584966878,0.4114529647982816,B,607,Correct
1,relearn,27,53,A,24.62915254407519,52.80620522627203,1.2314576272037596,0.8294779320140557,A,791,Correct
1,relearn,27,54,A,14.292358739412816,35.12314521850048,0.7146179369706408,0.5517130749470429,B,1344,Incorrect
1,relearn,27,55,A,19.482289997232254,36.591176150573915,0.9741144998616127,0.5747728509042653,B,1824,Incorrect
1,relearn,27,56,A,24.088213873278406,41.14702017786327,1.2044106936639203,0.6463358815394311,A,780,Correct
1,relearn,27,57,A,14.308341369285955,34.09708639224826,0.7154170684642978,0.5355957805935182,A,731,Correct
1,relearn,27,58,B,70.34660729009263,60.46464787613539,3.5173303645046317,0.949776467847803,B,852,Correct
1,relearn,27,59,A,40.09028084246812,48.03918725925661,2.004514042123406,0.7545977888905246,B,796,Incorrect
1,relearn,27,60,B,43.62351417584307,28.407088265892263,2.1811757087921535,0.4462174990300198,A,816,Incorrect
1,relearn,27,61,A,48.56318266357451,79.69644699553886,2.4281591331787253,1.2518688619919662,A,778,Correct
1,relearn,27,62,B,56.35752289189983,30.084585717299454,2.817876144594992,0.4725675673788019,B,759,Correct
1,relearn,27,63,B,88.95572508743544,65.07974856502591,4.447786254371772,1.0222702999467814,A,1276,Incorrect
1,relearn,27,64,B,61.63191590164977,47.24784255806148,3.0815957950824884,0.7421673753918655,A,1216,Incorrect
1,relearn,27,65,B,40.54733388388151,12.933546030902594,2.0273666941940753,0.20315966597774507,B,962,Correct
1,relearn,27,66,A,34.53650504817188,60.1436478408515,1.726825252408594,0.9447342110845535,A,4386,Correct
1,relearn,27,67,A,32.00711500189139,46.02348519420332,1.6003557500945698,0.7229352148935387,B,1017,Incorrect
1,relearn,27,68,A,41.83505529783438,50.321523146110394,2.091752764891719,0.7904486371663457,A,1325,Correct
1,relearn,27,69,B,48.51576412548047,34.68108414329146,2.4257882062740235,0.5447691958154695,B,710,Correct
1,relearn,27,70,B,36.82216093306208,20.74291680441646,1.841108046653104,0.32582897523389504,A,1221,Incorrect
1,relearn,27,71,B,50.11518814891372,28.439988375472737,2.505759407445686,0.4467342927428213,B,853,Correct
1,relearn,27,72,A,40.41790580119662,70.66282997447038,2.0208952900598307,1.1099691376483038,A,788,Correct
1,relearn,27,73,B,72.00726157559905,41.27460796380444,3.600363078779952,0.6483400257944341,107,584,Correct
1,relearn,27,74,B,63.45807859343872,54.84550074433419,3.172903929671936,0.861511111104269,A,765,Incorrect
1,relearn,27,75,A,35.60048726457501,59.84126239039889,1.7800243632287505,0.9399843515360817,B,5833,Incorrect
1,relearn,27,76,A,54.94804570787297,76.40454687078847,2.747402285393649,1.2001598157506304,A,957,Correct
1,relearn,27,77,B,84.17787737984746,58.84359828838197,4.208893868992373,0.9243130804678487,B,1564,Correct
1,relearn,27,78,A,50.26167592422516,78.21364534544168,2.5130837962112578,1.2285770681385855,A,945,Correct
1,relearn,27,79,A,18.67836224076763,34.77542010924948,0.9339181120383815,0.5462510217035846,B,1871,Incorrect
1,relearn,27,80,B,59.80156817061892,50.425788382599706,2.990078408530946,0.7920864316712439,A,698,Incorrect
1,relearn,27,81,A,29.162459848531288,58.82922808506105,1.4581229924265644,0.9240873538419305,A,3114,Correct
1,relearn,27,82,B,79.05627811563262,47.58234355851394,3.952813905781631,0.7474217048200651,107,620,Correct
1,relearn,27,83,B,40.67674548369834,15.750345018606247,2.033837274184917,0.24740584100978988,B,1800,Correct
1,relearn,27,84,B,74.05579085429873,63.51906781535841,3.7027895427149367,0.9977551840580092,A,656,Incorrect
1,relearn,27,85,A,38.47680722905253,66.56334801058672,1.9238403614526265,1.0455746255420002,B,652,Incorrect
1,relearn,27,86,B,38.351279256270345,26.706330359776782,1.9175639628135173,0.419502056313084,B,467,Correct
1,relearn,27,87,B,46.70726318101137,21.22431767721423,2.3353631590505683,0.33339080246096103,B,1476,Correct
1,relearn,27,88,A,23.502854665100372,55.05448719779109,1.1751427332550186,0.864793862638669,A,870,Correct
1,relearn,27,89,A,17.06396294857568,44.35644458902862,0.853198147428784,0.6967494023012751,A,1058,Correct
1,relearn,27,90,A,36.01123922845413,52.478656117728875,1.8005619614227066,0.8243328026486103,B,741,Incorrect
1,relearn,27,91,A,15.48490086352297,44.17330081427452,0.7742450431761485,0.6938725866146842,A,911,Correct
1,relearn,27,92,A,28.506164029519958,48.34471773218499,1.425308201475998,0.7593970503365227,A,1080,Correct
1,relearn,27,93,B,66.85097442391088,43.59836178881623,3.342548721195544,0.6848414655214751,B,975,Correct
1,relearn,27,94,A,20.300487977444437,48.804915565161686,1.0150243988722218,0.7666258209929105,A,673,Correct
1,relearn,27,95,A,51.957214617046105,72.00463507397586,2.5978607308523056,1.1310461628640827,B,654,Incorrect
1,relearn,27,96,A,20.554519917268117,43.586346822054324,1.027725995863406,0.6846527348649134,A,485,Correct
1,relearn,27,97,A,35.03374593644452,56.269386141548516,1.751687296822226,0.8838774506214806,A,828,Correct
1,relearn,27,98,B,68.1504390547818,56.41938713561554,3.4075219527390903,0.8862336607264414,B,881,Correct
1,relearn,27,99,B,77.1912061849535,53.909139563781004,3.859560309247675,0.8468027840746064,B,706,Correct
1,relearn,27,100,B,48.65747701761855,28.72279067966764,2.4328738508809273,0.45117654094920623,A,718,Incorrect
1,relearn,27,101,A,13.869145294524518,41.66335395321168,0.6934572647262258,0.6544464335166055,A,866,Correct
1,relearn,27,102,B,70.0427086975465,42.0396371687229,3.5021354348773253,0.6603570764442014,B,700,Correct
1,relearn,27,103,A,20.53971950612817,43.889190106853135,1.0269859753064083,0.6894097860584782,A,603,Correct
1,relearn,27,104,B,60.36615929481379,34.97199750708941,3.0183079647406896,0.5493388522481634,B,605,Correct
1,relearn,27,105,A,45.47897710458023,63.647185366987145,2.2739488552290115,0.999767649852973,A,862,Correct
1,relearn,27,106,A,34.66795016180901,64.28206468082809,1.7333975080904507,1.0097403107943672,A,730,Correct
1,relearn,27,107,B,41.16857035596115,32.2808884760876,2.0584285177980575,0.507067010439141,B,663,Correct
1,relearn,27,108,A,30.447683871693293,41.08506449491506,1.5223841935846647,0.64536268394744,B,658,Incorrect
1,relearn,27,109,A,30.233642756137698,41.647007821418185,1.511682137806885,0.6541896690788201,B,781,Incorrect
1,relearn,27,110,B,67.14403056793188,41.307799700991886,3.3572015283965935,0.6488614003829738,B,771,Correct
1,relearn,27,111,B,67.2103528456564,54.23975028595289,3.3605176422828205,0.8519960051544724,A,915,Incorrect
1,relearn,27,112,A,26.748691534061102,47.421318902628784,1.337434576703055,0.7448923354401868,A,553,Correct
1,relearn,27,113,B,40.391669322881334,13.950720206343206,2.019583466144067,0.21913740056267247,B,4124,Correct
1,relearn,27,114,A,38.086630200122315,68.9796933569874,1.9043315100061158,1.0835304894859412,B,3556,Incorrect
1,relearn,27,115,B,56.54790906117875,30.080730587519987,2.827395453058937,0.4725070111418329,A,589,Incorrect
1,relearn,27,116,A,33.859380527202475,61.65219709495865,1.6929690263601236,0.9684304473559604,A,14127,Correct
1,relearn,27,117,A,33.17036619820214,43.48730248652996,1.658518309910107,0.6830969500805983,A,925,Correct
1,relearn,27,118,A,35.71339257926199,48.45035359654578,1.7856696289630998,0.7610563746136804,B,679,Incorrect
1,relearn,27,119,A,49.40191435009746,73.40632034366828,2.470095717504873,1.1530637835936364,A,1338,Correct
1,relearn,27,120,B,55.58890690237655,35.114240925147975,2.7794453451188277,0.5515732066341346,B,720,Correct
1,relearn,27,121,A,39.588463961231135,50.41985616158854,1.9794231980615566,0.7919932485615031,A,734,Correct
1,relearn,27,122,A,30.34813845288501,46.51269527516711,1.5174069226442504,0.7306197088756284,A,683,Correct
1,relearn,27,123,B,57.846856739442394,32.36269889595316,2.89234283697212,0.5083520855093248,B,726,Correct
1,relearn,27,124,A,17.001602867900186,34.76719188352892,0.8500801433950094,0.5461217730362058,A,810,Correct
1,relearn,27,125,A,37.98896737843295,53.19616294058533,1.8994483689216477,0.8356033734665425,B,1256,Incorrect
1,relearn,27,126,B,69.93158256238964,54.046429742887405,3.496579128119482,0.8489593331650599,A,452,Incorrect
1,relearn,27,127,A,42.110860501983154,56.74867384765756,2.105543025099158,0.891406084303821,B,460,Incorrect
1,relearn,27,128,A,20.973070169320682,45.663021401485096,1.048653508466034,0.7172730628780952,A,708,Correct
1,relearn,27,129,A,57.43018516563711,85.36822810459242,2.8715092582818555,1.3409609913168263,A,7102,Correct
1,relearn,27,130,A,31.8088841073129,49.66955436898564,1.5904442053656451,0.7802075355634205,A,612,Correct
1,relearn,27,131,A,53.966751675783925,74.66706820788782,2.6983375837891965,1.1728675647349418,A,600,Correct
1,relearn,27,132,A,17.2391261268839,43.66848736244408,0.8619563063441951,0.6859429954561652,A,675,Correct
1,relearn,27,133,B,82.21187235596027,52.51040918733005,4.110593617798013,0.8248315786995504,B,685,Correct
1,relearn,27,134,B,51.03289587772772,33.93503743815841,2.551644793886386,0.5330503215750653,B,648,Correct
1,relearn,27,135,B,84.96307276731707,68.72294339732923,4.248153638365853,1.0794974705505835,B,886,Correct
1,relearn,27,136,B,36.78870253905541,14.230702590799144,1.8394351269527704,0.22353535357337911,A,878,Incorrect
1,relearn,27,137,A,47.645299578391906,71.98809375495559,2.3822649789195953,1.1307863324325087,A,677,Correct
1,relearn,27,138,A,45.99238582141954,61.207599292120555,2.299619291070977,0.9614467213999689,A,534,Correct
1,relearn,27,139,A,58.62537369968231,70.6475489614376,2.931268684984115,1.109729104056888,B,770,Incorrect
1,relearn,27,140,B,82.47603427021284,53.446245260590466,4.123801713510642,0.8395316573631465,B,716,Correct
1,relearn,27,141,A,61.24199151970221,87.53896767824006,3.06209957598511,1.3750588888039665,B,1043,Incorrect
1,relearn,27,142,A,35.53160828284398,66.9239295126591,1.7765804141421992,1.0512386265316547,A,759,Correct
1,relearn,27,143,B,56.79122019302856,38.50997767272664,2.839561009651428,0.6049133147327248,B,1001,Correct
1,relearn,27,144,A,39.246453543330276,58.51850979575599,1.9623226771665139,0.9192066023668468,B,1255,Incorrect
1,relearn,27,145,A,51.345715270298406,76.19435520149219,2.5672857635149207,1.1968581327300956,A,624,Correct
1,relearn,27,146,A,35.76576652317337,68.71821542285646,1.7882883261586684,1.0794232037012335,A,519,Correct
1,relearn,27,147,A,63.87471819826044,74.47258360062891,3.193735909913022,1.1698126076679374,B,1470,Incorrect
1,relearn,27,148,A,49.895601752860806,57.91106461630997,2.4947800876430404,0.9096648758008159,B,713,Incorrect
1,relearn,27,149,B,57.19122301020026,46.56095903033795,2.8595611505100127,0.7313778341690252,A,1015,Incorrect
1,relearn,27,150,A,46.06105434400393,60.22834097740869,2.3030527172001967,0.946064567762641,A,819,Correct
1,relearn,27,151,B,34.54893297300501,20.584739620318107,1.7274466486502504,0.3233443338362506,B,893,Correct
1,relearn,27,152,A,38.13896509926529,53.52553341429185,1.9069482549632648,0.8407771127690713,A,854,Correct
1,relearn,27,153,B,66.82014562773509,49.9663143251637,3.341007281386754,0.7848690300544637,B,777,Correct
1,relearn,27,154,A,26.716663642595613,42.32516257003597,1.3358331821297806,0.6648420989600935,B,5356,Incorrect
1,relearn,27,155,A,65.15831262156195,81.02218069776734,3.2579156310780975,1.2726934382896533,A,1294,Correct
1,relearn,27,156,A,63.43175960750909,85.21900973267286,3.1715879803754548,1.338617074611811,B,864,Incorrect
1,relearn,27,157,A,37.18806909195047,57.56044876830406,1.8594034545975233,0.9041574149391784,A,626,Correct
1,relearn,27,158,A,38.952905654504356,63.541403791575206,1.9476452827252178,0.9981060367519764,B,3038,Incorrect
1,relearn,27,159,A,39.01153729885864,48.325018556021824,1.950576864942932,0.7590876164009428,A,596,Correct
1,relearn,27,160,B,58.42796381617261,38.34173770534377,2.9213981908086306,0.6022706075048737,B,1062,Correct
1,relearn,27,161,A,24.74955532101154,38.313190658954184,1.2374777660505771,0.6018221915487778,A,908,Correct
1,relearn,27,162,B,32.18961190864269,12.333350875500841,1.6094805954321345,0.1937318225230934,B,625,Correct
1,relearn,27,163,B,57.21547689946855,37.518185995991075,2.8607738449734272,0.5893342875051051,107,697,Incorrect
1,relearn,27,164,A,27.31368680594627,48.15572734595093,1.3656843402973136,0.7564283962915628,A,1224,Correct
1,relearn,27,165,A,63.21923188689999,80.3625416237832,3.1609615943449993,1.2623318519454065,B,704,Incorrect
1,relearn,27,166,A,62.33724449290069,82.7510969830559,3.1168622246450344,1.2998511917923246,A,576,Correct
1,relearn,27,167,B,43.59686881650814,26.29106386881616,2.179843440825407,0.41297906552666447,A,787,Incorrect
1,relearn,27,168,B,68.55056084593507,53.42567147848248,3.4275280422967533,0.8392084851495116,B,741,Correct
1,relearn,27,169,A,35.49305146245505,48.38097020365904,1.7746525731227525,0.7599665028268094,A,792,Correct
1,relearn,27,170,A,13.102006578437162,39.08885350106176,0.6551003289218582,0.6140062749809165,A,664,Correct
1,relearn,27,171,A,65.37862597502432,84.47080721503514,3.268931298751216,1.3268643369477704,B,731,Incorrect
1,relearn,27,172,B,54.24576762449651,31.138138798468056,2.7122883812248255,0.4891167404786328,A,708,Incorrect
1,relearn,27,173,A,46.03386472580749,54.455013210685394,2.3016932362903746,0.8553773472691217,A,590,Correct
1,relearn,27,174,A,56.50178306458794,68.32438655991655,2.825089153229397,1.0732369543883151,100,639,Incorrect
1,relearn,27,175,B,75.56367786722522,51.66859710178358,3.7781838933612613,0.8116084253812708,107,653,Incorrect
1,relearn,27,176,B,72.56097121607648,58.34454246633373,3.6280485608038244,0.9164739299464587,A,579,Incorrect
1,relearn,27,177,B,38.09203012247963,26.4934994292267,1.9046015061239814,0.41615891587371984,A,619,Incorrect
1,relearn,27,178,B,82.12465977000156,57.69854677160561,4.106232988500079,0.9063266533024162,B,3331,Correct
1,relearn,27,179,A,15.617328205400593,33.83912655517979,0.7808664102700297,0.5315437569482404,A,736,Correct
1,relearn,27,180,B,58.31779758934244,35.77647580333649,2.915889879467122,0.5619755677754744,B,1638,Correct
1,relearn,27,181,A,38.54840834927606,63.224961638127816,1.927420417463803,0.9931353750291941,A,1754,Correct
1,relearn,27,182,A,61.92711288884853,80.62086564154293,3.096355644442426,1.2663895961276055,B,1035,Incorrect
1,relearn,27,183,A,35.43507585015877,68.6635773268079,1.7717537925079383,1.078564950495472,A,652,Correct
1,relearn,27,184,A,40.405956261630465,51.18507019427506,2.0202978130815232,0.8040132024790622,B,1277,Incorrect
1,relearn,27,185,B,77.41468928168484,51.36516003604912,3.8707344640842423,0.8068420470985798,A,691,Incorrect
1,relearn,27,186,A,23.58263649852153,36.83761319248175,1.1791318249260767,0.5786438749064154,A,2216,Correct
1,relearn,27,187,A,18.409410680972066,38.55582103151285,0.9204705340486032,0.605633420528618,A,960,Correct
1,relearn,27,188,B,57.57332566890723,40.52055838128623,2.8786662834453614,0.6364954426500257,B,1700,Correct
1,relearn,27,189,B,74.54877340376945,55.15316465197337,3.7274386701884725,0.8663438844643392,A,1051,Incorrect
1,relearn,27,190,B,63.20735377252168,30.596567948692563,3.1603676886260836,0.4806097654633675,A,684,Incorrect
1,relearn,27,191,B,44.41291408348084,25.855406852013076,2.220645704174042,0.4061357811092974,B,663,Correct
1,relearn,27,192,A,28.280967878000943,45.82150540276758,1.4140483939000472,0.7197625237487982,A,1281,Correct
1,relearn,27,193,A,38.409592001740634,62.70504683799763,1.9204796000870317,0.9849685724462862,A,572,Correct
1,relearn,27,194,B,58.79141613908778,31.055942364381874,2.939570806954389,0.4878256019112506,B,525,Correct
1,relearn,27,195,B,55.085936267446435,40.48928628604993,2.754296813372322,0.6360042217267421,B,707,Correct
1,relearn,27,196,B,42.683558600424206,29.85309009569374,2.13417793002121,0.46893124265792835,B,744,Correct
1,relearn,27,197,A,31.31485007709111,57.922637865353934,1.5657425038545554,0.9098466679716894,A,1039,Correct
1,relearn,27,198,B,70.49902636488797,46.123803262018484,3.5249513182443986,0.7245110074178911,B,780,Correct
1,relearn,27,199,B,44.003521142120846,36.58077885242882,2.2001760571060425,0.5746095305269162,A,714,Incorrect
1,relearn,27,200,B,61.4752730036958,35.61230150516207,3.0737636501847896,0.5593967239302094,A,694,Incorrect
1,relearn,27,201,A,13.10081076831736,35.177998936945244,0.655040538415868,0.5525747151414836,A,1458,Correct
1,relearn,27,202,B,66.39220089725121,40.98960567811094,3.3196100448625607,0.6438632203594791,B,1670,Correct
1,relearn,27,203,B,73.24869189576353,52.74001583062891,3.6624345947881762,0.8284382314185659,B,1412,Correct
1,relearn,27,204,A,21.637139743700224,49.38432065296546,1.0818569871850112,0.7757270948293951,100,671,Correct
1,relearn,27,205,B,46.07363767213886,23.817022302945674,2.303681883606943,0.3741169114865919,B,921,Correct
1,relearn,27,206,A,36.33262664031894,49.3659758088358,1.8166313320159473,0.77543893469165,A,675,Correct
1,relearn,27,207,A,52.81105980979399,77.59388964298815,2.640552990489699,1.2188419683293434,B,1537,Incorrect
1,relearn,27,208,B,50.56405758452726,25.066839208445998,2.528202879226363,0.3937489895298526,A,623,Incorrect
1,relearn,27,209,B,56.70942487619065,33.422656352288094,2.8354712438095326,0.5250018582990226,B,935,Correct
1,relearn,27,210,B,88.31812976730458,69.37854616483469,4.415906488365229,1.0897956547409249,A,1788,Incorrect
1,relearn,27,211,B,45.539000690453,23.739814376476154,2.2769500345226503,0.3729041322136142,A,644,Incorrect
1,relearn,27,212,A,30.274542219872664,44.03399267603712,1.5137271109936332,0.6916843394963249,A,547,Correct
1,relearn,27,213,A,45.54117789657225,74.95031871128458,2.277058894828613,1.1773168532379261,B,1266,Incorrect
1,relearn,27,214,B,47.68458558135004,33.09272989121392,2.384229279067502,0.5198193855673451,107,530,Incorrect
1,relearn,27,215,A,43.22417280271195,51.469964371997875,2.1612086401355977,0.8084883097579846,100,520,Incorrect
1,relearn,27,216,A,62.3169359828707,83.55075385522395,3.115846799143535,1.312412172567303,B,1102,Incorrect
1,relearn,27,217,A,34.15618127784713,64.78070220778244,1.7078090638923566,1.0175728907517871,A,346,Correct
1,relearn,27,218,B,71.28839436666598,41.80840897360946,3.5644197183332995,0.6567249524488453,B,713,Correct
1,relearn,27,219,B,31.09109883176239,12.440648851444873,1.5545549415881195,0.19541725518794756,A,639,Incorrect
1,relearn,27,220,B,47.72668403436687,34.874385737890904,2.3863342017183435,0.5478055701630736,B,1434,Correct
1,relearn,27,221,B,69.70535225610007,54.84940446318697,3.4852676128050035,0.861572430576617,A,1660,Incorrect
1,relearn,27,222,B,57.149734942576146,38.02360947937962,2.8574867471288075,0.5972734610169312,B,796,Correct
1,relearn,27,223,A,20.81138834922236,34.47155270229676,1.040569417461118,0.5414778836368445,A,626,Correct
1,relearn,27,224,B,60.98964946887387,32.596340381559095,3.0494824734436934,0.5120221173830918,B,766,Correct
1,relearn,27,225,A,57.01173109441831,81.01572905342336,2.8505865547209157,1.2725920960972799,A,1860,Correct
1,relearn,27,226,A,32.563844743569035,54.96080234705053,1.6281922371784519,0.863322264444473,B,939,Incorrect
1,relearn,27,227,B,73.53241198669045,60.05253618713481,3.6766205993345227,0.9433030325746897,107,602,Incorrect
1,relearn,27,228,B,48.78754597440378,38.82567909813824,2.439377298720189,0.6098723411267294,B,1011,Correct
1,relearn,27,229,A,21.14704140245523,38.17516394285879,1.0573520701227614,0.5996540729623555,A,6561,Correct
1,relearn,27,230,A,66.39810170545421,84.87734867404718,3.3199050852727106,1.33325027525283,B,4820,Incorrect
1,relearn,27,231,B,40.62447105609485,21.928311929516973,2.031223552804742,0.3444491183169797,A,687,Incorrect
1,relearn,27,232,B,35.40823899481427,16.795283837224975,1.7704119497407134,0.26381970158990686,A,1281,Incorrect
1,relearn,27,233,A,60.97062941422327,84.14710063752831,3.048531470711163,1.3217795659186997,B,1070,Incorrect
1,relearn,27,234,A,14.750859280395574,31.88231675126635,0.7375429640197787,0.5008062604260058,A,748,Correct
1,relearn,27,235,A,12.497285475535683,39.41387712118319,0.6248642737767842,0.6191117340669998,A,481,Correct
1,relearn,27,236,A,26.25909979644424,40.807560429514496,1.3129549898222121,0.6410036602814214,A,392,Correct
1,relearn,27,237,B,67.76217073648313,51.87571070444437,3.3881085368241566,0.8148617582441593,B,644,Correct
1,relearn,27,238,B,89.4938977110649,64.89235256715793,4.474694885553245,1.0193266904957106,B,2874,Correct
1,relearn,27,239,B,48.104153204451464,22.30387935789851,2.405207660222573,0.350348517686635,B,3335,Correct
1,relearn,27,240,A,13.142273187813828,33.21486050079733,0.6571136593906914,0.5217378086965735,A,1203,Correct
1,relearn,27,241,B,43.1308036088164,19.03303663046877,2.1565401804408197,0.29897024026893065,100,1383,Correct
1,relearn,27,242,A,41.34923176281217,68.69971404087677,2.0674615881406084,1.0791325846726902,A,638,Correct
1,relearn,27,243,A,59.018117952980965,70.05732302548572,2.9509058976490485,1.1004578567351648,B,810,Incorrect
1,relearn,27,244,A,53.23264609673453,69.99319566343004,2.6616323048367265,1.099450546487524,A,625,Correct
1,relearn,27,245,B,48.004349788635814,31.742024246987203,2.4002174894317907,0.49860255092202044,B,872,Correct
1,relearn,27,246,A,45.21438780250592,68.13450740580984,2.260719390125296,1.0702543396102577,A,515,Correct
1,relearn,27,247,B,68.51415300744473,57.888430304811095,3.425707650372237,0.9093093368671965,A,673,Incorrect
1,relearn,27,248,B,61.06702605682849,32.893523324735156,3.0533513028414245,0.5166902561383624,A,675,Incorrect
1,relearn,27,249,B,88.81541841982349,67.83102083861749,4.440770920991174,1.0654871837604842,B,1023,Correct
1,relearn,27,250,B,58.09763979423946,28.694601493230806,2.9048819897119733,0.45073374624410306,B,1142,Correct
1,relearn,27,251,A,23.128340832061824,48.38768928189865,1.1564170416030912,0.7600720458609919,A,1233,Correct
1,relearn,27,252,A,38.86900769223073,65.59806434787681,1.9434503846115365,1.0304119852250018,B,1144,Incorrect
1,relearn,27,253,A,40.16636472831038,65.834221968058,2.0083182364155188,1.034121540448254,A,466,Correct
1,relearn,27,254,B,80.79834138974175,49.627693116528405,4.039917069487087,0.7795499805474719,B,662,Correct
1,relearn,27,255,B,82.65226233294342,60.08923893756028,4.132613116647171,0.9438795580302056,A,539,Incorrect
1,relearn,27,256,B,42.987869168050636,15.75734310173414,2.149393458402532,0.2475157666425089,A,355,Incorrect
1,relearn,27,257,B,85.39952352592279,69.41886520055711,4.269976176296139,1.0904289846730517,B,268,Correct
1,relearn,27,258,B,54.76149968024296,23.58339209960166,2.7380749840121483,0.37044705683418067,B,1002,Correct
1,relearn,27,259,A,33.46909950569314,45.82414384976843,1.6734549752846568,0.719803968377372,A,554,Correct
1,relearn,27,260,B,64.84281703825141,38.26787893953026,3.2421408519125703,0.6011104367244593,B,522,Correct
1,relearn,27,261,A,24.399602762841052,35.60519364372372,1.2199801381420528,0.5592850739038223,A,570,Correct
1,relearn,27,262,A,40.90880394384046,67.23999768316723,2.0454401971920233,1.0562034137441643,B,901,Incorrect
1,relearn,27,263,A,30.39824422767635,55.84975159671109,1.5199122113838175,0.877285846605212,A,406,Correct
1,relearn,27,264,B,69.73160005649532,38.82170026238795,3.486580002824766,0.6098098417209147,B,698,Correct
1,relearn,27,265,B,33.420632664898335,11.052033386648777,1.6710316332449167,0.1736049344736246,A,542,Incorrect
1,relearn,27,266,A,41.93420620526151,60.07483978481449,2.0967103102630755,0.9436533766677851,A,831,Correct
1,relearn,27,267,B,52.2085782692976,44.40157965737622,2.61042891346488,0.6974583822969757,B,843,Correct
1,relearn,27,268,A,37.281240226036616,48.35778475762118,1.864062011301831,0.7596023066920959,A,650,Correct
1,relearn,27,269,A,42.875656488533316,54.677760601948066,2.143782824426666,0.8588762551091074,B,885,Incorrect
1,relearn,27,270,A,49.059653278033494,63.81973375608911,2.4529826639016745,1.0024780336109305,A,694,Correct
1,relearn,27,271,B,70.91704467841896,38.73606321533515,3.545852233920948,0.6084646581314337,A,588,Incorrect
1,relearn,27,272,B,58.240556970951246,43.23357477768708,2.9120278485475626,0.6791114045500335,B,464,Correct
1,relearn,27,273,A,58.04299238107807,78.39677450815554,2.9021496190539033,1.2314536542997851,A,582,Correct
1,relearn,27,274,A,63.9596186034195,74.86479259437887,3.1979809301709747,1.175973412135121,A,652,Correct
1,relearn,27,275,A,32.22893367037571,40.77146427797731,1.6114466835187855,0.640436663258961,A,621,Correct
1,relearn,27,276,A,26.835827127085086,52.803280391555425,1.3417913563542543,0.8294319888177624,A,566,Correct
1,relearn,27,277,A,33.06891211239266,47.08879513928561,1.6534456056196332,0.739669064379872,B,902,Incorrect
1,relearn,27,278,A,22.69450272372343,42.37270295224116,1.1347251361861717,0.665588861537517,A,580,Correct
1,relearn,27,279,B,33.45449095705412,18.028201706329508,1.6727245478527062,0.28318633019019873,B,872,Correct
1,relearn,27,280,A,24.13379335419154,44.50859145362505,1.2066896677095769,0.6991393196616896,A,630,Correct
1,relearn,27,281,B,43.00589708864027,29.063366888585104,2.1502948544320133,0.45652629952881907,B,572,Correct
1,relearn,27,282,B,72.43591113149249,42.91960481873984,3.6217955565746247,0.6741795759676508,B,1458,Correct
1,relearn,27,283,B,58.437573336289226,30.082874931829494,2.921878666814461,0.47254069442348046,B,554,Correct
1,relearn,27,284,B,70.39071313431802,39.04779976315211,3.519535656715901,0.6133614043738197,B,817,Correct
1,relearn,27,285,B,50.74130471965287,21.927011332269668,2.5370652359826433,0.34442868858319264,A,761,Incorrect
1,relearn,27,286,A,67.147796291858,86.0313826600777,3.3573898145929,1.351377798715362,B,385,Incorrect
1,relearn,27,287,B,64.1716864142372,37.70555852611808,3.2085843207118603,0.5922775283257627,B,635,Correct
1,relearn,27,288,B,49.19841650023204,25.61223118065194,2.459920825011602,0.40231598659589773,B,846,Correct
1,relearn,27,289,B,68.11316502050742,45.65227732699036,3.4056582510253715,0.7171042953505838,B,959,Correct
1,relearn,27,290,A,47.23946402441034,66.48684768181103,2.3619732012205166,1.0443729611876054,A,846,Correct
1,relearn,27,291,B,55.21552635787949,32.88644392800294,2.7607763178939746,0.5165790532345335,B,637,Correct
1,relearn,27,292,B,40.855290237578544,18.732666395179695,2.0427645118789273,0.29425203564622465,B,861,Correct
1,relearn,27,293,B,38.32632554009657,27.317517690224328,1.9163162770048285,0.42910256444958983,B,545,Correct
1,relearn,27,294,A,39.140158861605144,71.41815843371849,1.9570079430802572,1.1218338093414097,A,664,Correct
1,relearn,27,295,A,22.028520531055754,44.6968718353231,1.1014260265527878,0.702096820981478,A,776,Correct
1,relearn,27,296,B,58.88618580266572,51.930367898296296,2.9443092901332863,0.8157203114375144,A,2082,Incorrect
1,relearn,27,297,B,45.60949732826124,15.811774199813144,2.280474866413062,0.248370768331768,B,877,Correct
1,relearn,27,298,A,29.978648557732228,60.262562314240064,1.4989324278866116,0.9466021152645685,A,570,Correct
1,relearn,27,299,A,47.8296567601133,71.61498348745265,2.391482838005665,1.1249255300556777,B,855,Incorrect
1,relearn,27,300,B,31.239205615418754,17.551652518019097,1.5619602807709378,0.27570071304484794,A,600,Correct
1,relearn,27,301,B,64.42659110299452,42.82073224558638,3.221329555149726,0.6726264892203487,B,655,Incorrect
1,relearn,27,302,A,27.111065329636467,51.654805057470156,1.3555532664818233,0.8113917804558056,A,493,Correct
1,relearn,27,303,A,29.14827177268129,51.043380455146455,1.4574135886340644,0.8017875452613847,A,566,Correct
1,relearn,27,304,B,56.441736777123666,25.595903173503924,2.8220868388561833,0.402059506859378,A,4924,Correct
1,relearn,27,305,B,71.47152612780008,48.25253887906998,3.5735763063900037,0.7579491082977104,A,3354,Incorrect
1,relearn,27,306,B,67.77448033572453,34.8700980746594,3.388724016786227,0.5477382197065278,B,397,Incorrect
1,relearn,27,307,A,22.25434396724136,36.64408031575118,1.112717198362068,0.5756038675875913,A,409,Incorrect
1,relearn,27,308,A,54.0898515577245,61.74494563216862,2.704492577886225,0.9698873379716106,A,1034,Incorrect
1,relearn,27,309,A,61.03187970244815,76.24740898939822,3.051593985122407,1.1976914996817491,B,471,Incorrect
1,relearn,27,310,B,41.80545030444521,16.983930934093628,2.0902725152222605,0.26678296325812484,A,846,Incorrect
1,relearn,27,311,B,85.37559637648069,57.60400927985958,4.268779818824035,0.9048416618546257,B,1434,Incorrect
1,relearn,27,312,B,48.06680276083661,34.48348776389273,2.4033401380418304,0.5416653591459947,A,519,Correct
1,relearn,27,313,B,35.37060237451867,22.876979108122,1.7685301187259335,0.35935074751201634,A,540,Incorrect
1,relearn,27,314,B,65.07172889395842,53.06853280141634,3.2535864446979215,0.8335985639285928,A,572,Correct
1,relearn,27,315,B,75.72269983591445,46.23759528065365,3.7861349917957225,0.726298448266798,B,914,Incorrect
1,relearn,27,316,A,27.098577378820618,44.72557375390925,1.354928868941031,0.7025476696643488,A,1264,Incorrect
1,relearn,27,317,B,41.89919819367414,18.39455379119539,2.094959909683707,0.28894097528240853,A,584,Correct
1,relearn,27,318,B,48.25661777474677,22.837723109500555,2.4128308887373384,0.358734115727624,B,972,Correct
1,relearn,27,319,B,45.6876399415153,19.276482102382374,2.284381997075765,0.302794272799498,B,1195,Incorrect
1,relearn,27,320,A,43.23392220648112,53.76757577317868,2.1616961103240557,0.8445791052517534,A,502,Incorrect
1,relearn,27,321,B,34.863540587112844,20.466817555210618,1.7431770293556423,0.32149201836906144,B,376,Incorrect
1,relearn,27,322,A,50.57503397906447,60.735056286658626,2.5287516989532235,0.9540240332276465,A,374,Correct
1,relearn,27,323,B,57.465579389602695,49.029006295527026,2.8732789694801344,0.7701458299541771,A,619,Correct
1,relearn,27,324,B,62.10077068495437,42.66320835983873,3.105038534247718,0.6701521098091999,B,905,Correct
1,relearn,27,325,B,67.9569823543359,58.52914151866952,3.397849117716795,0.9193736050798477,B,3041,Incorrect
1,relearn,27,326,B,72.6516456700885,48.34923102963106,3.632582283504425,0.7594679450470232,A,529,Correct
1,relearn,27,327,A,33.93748590002739,52.840257947477326,1.6968742950013693,0.8300128309079222,A,842,Incorrect
1,relearn,27,328,B,42.66931097922697,28.983770774534676,2.1334655489613485,0.4552760066930434,B,1160,Incorrect
1,relearn,27,329,B,56.32241321445014,24.79552235369286,2.8161206607225067,0.389487154341415,A,533,Correct
1,relearn,27,330,A,39.13312007262574,48.2184640737829,1.956656003631287,0.7574138625078985,B,1126,Correct
1,relearn,27,331,A,34.39441646072536,47.96032181702117,1.719720823036268,0.7533589734207801,A,589,Incorrect
1,relearn,27,332,B,79.9284923121397,54.94775586054119,3.996424615606985,0.8631173307136085,A,532,Incorrect
1,relearn,27,333,B,68.85934058007113,37.17119417245145,3.442967029003557,0.583883752686666,B,561,Correct
1,relearn,27,334,A,41.60523885884263,72.6791806900304,2.0802619429421316,1.1416419006236234,A,556,Incorrect
1,relearn,27,335,B,88.0799053199233,64.57419642736711,4.403995265996165,1.014329105538404,B,1629,Correct
1,relearn,27,336,A,27.692379840092755,41.9565630841969,1.384618992004638,0.6590521517759486,A,730,Correct
1,relearn,27,337,B,59.60182601106136,43.64186886850684,2.980091300553068,0.685524873131151,B,1420,Correct
1,relearn,27,338,B,65.13427776955635,33.27948637294424,3.256713888477817,0.5227529495224164,B,634,Incorrect
1,relearn,27,339,A,35.22057768637545,56.00884219382656,1.7610288843187727,0.8797848358609779,A,703,Incorrect
1,relearn,27,340,B,79.95976875531947,49.81878506639654,3.997988437765974,0.7825516458768014,B,736,Correct
1,relearn,27,341,B,68.86827200975931,54.13278009402886,3.4434136004879656,0.8503157213089643,A,3958,Incorrect
1,relearn,27,342,A,31.885239165312417,42.07346684989426,1.594261958265621,0.6608884718334076,A,582,Correct
1,relearn,27,343,A,26.624126692654098,37.49360737076309,1.3312063346327048,0.5889482073628471,A,600,Incorrect
1,relearn,27,344,A,42.48224530483921,57.80837881483492,2.1241122652419606,0.9080518910031061,A,634,Correct
1,relearn,27,345,B,48.67807112953666,34.07531210201745,2.433903556476833,0.535253750842387,B,752,Incorrect
1,relearn,27,346,A,62.46599590013864,79.90524770819968,3.1232997950069317,1.2551486959167637,A,808,Correct
1,relearn,27,347,A,17.065611198591057,31.198135680070862,0.8532805599295529,0.4900591692910411,B,1164,Correct
1,relearn,27,348,B,70.05503635431819,44.75061214016638,3.5027518177159096,0.7029409717159646,B,1706,Incorrect
1,relearn,27,349,B,41.48797984751561,30.93386622532966,2.0743989923757806,0.4859080344031254,B,656,Incorrect
1,relearn,27,350,B,40.87921747926973,32.52568131763729,2.0439608739634862,0.5109122074024606,A,824,Correct
1,relearn,27,351,A,42.06246604289652,54.78833024495946,2.1031233021448257,0.8606130790000807,B,591,Incorrect
1,relearn,27,352,B,69.42838395582068,42.64010429775168,3.471419197791034,0.6697891920505962,B,644,Incorrect
1,relearn,27,353,B,43.08527883037958,23.439420517831167,2.154263941518979,0.3681855565161013,A,595,Correct
1,relearn,27,354,A,35.35037243124425,49.8859958787992,1.7675186215622125,0.7836073908492313,A,646,Correct
1,relearn,27,355,B,66.99869419514421,45.54128320370698,3.3499347097572105,0.7153608037390904,A,1124,Correct
1,relearn,27,356,B,77.0739839525364,60.12980953255912,3.85369919762682,0.9445168394462063,B,1191,Correct
1,relearn,27,357,B,49.36114904146255,42.45136133969484,2.4680574520731273,0.6668244245983553,A,985,Incorrect
1,relearn,27,358,A,63.776722066938035,84.45287409382301,3.1888361033469015,1.3265826441384905,B,1143,Correct
1,relearn,27,359,B,71.21354354933348,39.304735255280015,3.5606771774666743,0.6173973376463971,A,1167,Correct
1,relearn,27,360,A,66.93985071861077,83.04158332289687,3.346992535930539,1.3044141405483873,B,651,Correct
1,relearn,27,361,A,67.8515626097275,81.86740852182427,3.3925781304863745,1.2859702459029878,A,837,Incorrect
1,relearn,27,362,A,52.584028766286515,73.29672885431225,2.629201438314326,1.151342324504352,B,897,Correct
1,relearn,27,363,B,60.11836137778027,30.676805295917354,3.005918068889013,0.4818701307662921,B,1184,Correct
1,relearn,27,364,A,34.51790990215531,50.67544601679014,1.7258954951077654,0.7960080446186704,A,1595,Incorrect
1,relearn,27,365,B,39.98451667065779,16.880059055961127,1.9992258335328896,0.26515134761184667,B,441,Correct
1,relearn,27,366,B,47.78701651172905,30.628890638934003,2.389350825586453,0.4811174890944013,B,650,Correct
1,relearn,27,367,B,69.01995274684332,43.476996737920494,3.450997637342166,0.6829350677599921,B,602,Incorrect
1,relearn,27,368,A,37.52521952013383,47.16388718754805,1.8762609760066915,0.7408486075156937,A,536,Correct
1,relearn,27,369,A,28.76727509992672,42.28542671200573,1.4383637549963362,0.6642179295617341,A,565,Correct
1,relearn,27,370,B,52.0142691191356,45.37528456385834,2.60071345595678,0.7127533032018184,B,900,Correct
1,relearn,27,371,B,55.87553901872394,36.97534855673446,2.793776950936197,0.5808074169487947,A,488,Correct
1,relearn,27,372,A,52.214301758400445,62.36244721548444,2.6107150879200223,0.9795870301602357,B,548,Incorrect
1,relearn,27,373,A,63.41835932887665,89.16829848191581,3.1709179664438323,1.4006523572194431,A,537,Incorrect
1,relearn,27,374,B,74.35551418504036,64.38211131985747,3.717775709252018,1.0113118397253222,B,676,Correct
1,relearn,27,375,A,49.9806261015291,74.30751039507003,2.4990313050764548,1.1672196438184959,A,488,Incorrect
1,relearn,27,376,A,62.5772324689841,83.2161406703812,3.128861623449205,1.307156080950822,100,530,Incorrect
1,relearn,27,377,A,12.112961804965266,32.99648120621141,0.6056480902482633,0.5183075147587373,A,596,Incorrect
1,relearn,27,378,B,71.32601890648012,42.25504405557406,3.5663009453240058,0.6637406799105227,B,852,Correct
1,relearn,27,379,A,61.21108715704444,73.30153499423596,3.060554357852222,1.151417819173734,A,632,Incorrect
1,relearn,27,380,B,49.93435659825151,31.624936933946227,2.4967178299125754,0.49676334770962993,B,430,Incorrect
1,relearn,27,381,B,57.21041987601095,36.769632211314516,2.8605209938005474,0.5775760321513216,A,389,Correct
1,relearn,27,382,A,49.252720592381294,57.38789233355593,2.462636029619065,0.9014469048005065,B,608,Correct
1,relearn,27,383,A,15.607989892116425,41.30186252806341,0.7803994946058213,0.6487681394886978,B,1280,Correct
1,relearn,27,384,B,67.49632972705288,38.07418228164879,3.374816486352644,0.5980678567373325,A,622,Incorrect
1,relearn,27,385,A,51.23805287517351,79.35827792422907,2.561902643758675,1.2465569146414754,A,746,Correct
1,relearn,27,386,B,68.601042892842,43.05239924199543,3.4300521446421,0.676265505890338,B,814,Correct
1,relearn,27,387,A,33.47032056442637,52.75923522746449,1.6735160282213186,0.8287401289980912,B,730,Correct
1,relearn,27,388,A,54.297487428707925,76.6197705496392,2.7148743714353962,1.2035405413924105,A,761,Incorrect
1,relearn,27,389,B,58.36665751756456,38.636567698619075,2.9183328758782285,0.606901786209532,B,493,Incorrect
1,relearn,27,390,B,82.46058763168948,60.421152022363856,4.123029381584474,0.9490932365744518,A,431,Correct
1,relearn,27,391,B,64.51908376443549,44.91117730594449,3.225954188221775,0.7054631234421194,B,576,Incorrect
1,relearn,27,392,A,31.441178656257776,63.17709083874311,1.5720589328128887,0.9923834222708519,A,385,Incorrect
1,relearn,27,393,B,49.723996689909804,39.25299804476633,2.48619983449549,0.6165846514440622,A,1231,Incorrect
1,relearn,27,394,B,42.91437486690711,29.599936936553036,2.1457187433453555,0.4649547221329809,B,509,Correct
1,relearn,27,395,A,68.84877436398531,84.6204056383891,3.4424387181992655,1.3292142234867574,A,802,Incorrect
1,relearn,27,396,B,54.634902757005854,40.333433581896,2.7317451378502926,0.6335560931746818,B,1318,Incorrect
1,relearn,27,397,B,76.29998947083058,55.56997787329851,3.8149994735415294,0.8728911712345098,A,488,Incorrect
1,relearn,27,398,A,21.328540829395713,43.27565701767288,1.0664270414697856,0.6797724308299635,B,806,Incorrect
1,relearn,27,399,B,56.56849501530358,47.8385369859322,2.8284247507651794,0.751445981767441,A,453,Correct
1,relearn,27,400,A,48.80684947523385,67.65416362920955,2.4403424737616923,1.0627091172114325,B,466,Incorrect
1,relearn,27,401,A,42.95272453073054,67.93943331393282,2.147636226536527,1.067190122940525,A,565,Incorrect
1,relearn,27,402,A,51.36770275151083,72.00731970682492,2.5683851375755413,1.1310883329782635,B,1036,Incorrect
1,relearn,27,403,B,56.43365719702734,49.334516852591385,2.8216828598513666,0.7749447785625146,A,1530,Incorrect
1,relearn,27,404,A,45.51481373332389,53.61067813163508,2.2757406866661944,0.8421145628615587,B,723,Correct
1,relearn,27,405,B,32.186436900255664,15.332968896133437,1.6093218450127833,0.24084971220906803,B,3969,Correct
1,relearn,27,406,A,48.82638822023514,57.08984610546939,2.441319411011757,0.8967652055975726,A,685,Incorrect
1,relearn,27,407,A,21.546508297153157,52.66242766800486,1.0773254148576579,0.8272194794100396,A,666,Correct
1,relearn,27,408,A,63.24437511192633,85.82493404057102,3.1622187555963164,1.3481349113834324,B,906,Correct
1,relearn,27,409,A,30.591788374212147,54.3619570274997,1.5295894187106074,0.8539156241617853,A,737,Correct
1,relearn,27,410,A,41.27684337237489,59.846661053235806,2.0638421686187445,0.94006915353362,B,1432,Incorrect
1,relearn,27,411,A,55.83968365734631,82.09970306695637,2.7919841828673158,1.2896191200852676,B,481,Incorrect
1,relearn,27,412,B,47.98647245327203,33.79253565711731,2.3993236226636014,0.5308119088328545,A,867,Correct
1,relearn,27,413,B,40.33789029059656,29.99440000741449,2.0168945145298283,0.471150933560635,A,1263,Correct
1,relearn,27,414,A,36.80048179733103,69.07023008993103,1.8400240898665516,1.08495263716142,B,596,Correct
1,relearn,27,415,A,20.93338030716175,34.25139784263668,1.0466690153580875,0.5380196991880434,B,1109,Correct
1,relearn,27,416,B,78.40848584074001,55.208562127080675,3.9204242920370005,0.8672140659684616,B,829,Correct
1,relearn,27,417,A,63.04345415720416,76.67170265775033,3.152172707860208,1.2043562890390473,A,715,Incorrect
1,relearn,27,418,A,52.516735975864464,70.7499822209972,2.6258367987932227,1.1113381219354665,B,606,Correct
1,relearn,27,419,B,46.72140106688458,34.109364551753494,2.3360700533442293,0.5357886454720244,B,1629,Incorrect
1,relearn,27,420,B,38.39211807441019,17.299136824280648,1.9196059037205095,0.27173420580302377,A,743,Incorrect
1,relearn,27,421,B,57.61501090845483,36.87328356216068,2.880750545422741,0.5792041837630862,B,2672,Incorrect
1,relearn,27,422,B,87.62062999755122,64.76643230558545,4.381031499877561,1.0173487396522396,B,683,Incorrect
1,relearn,27,423,A,33.45668155175951,42.22705717294578,1.6728340775879755,0.6633010629862132,A,437,Correct
1,relearn,27,424,B,83.56526353820485,62.515435166212015,4.178263176910242,0.9819901592707034,B,573,Correct
1,relearn,27,425,B,73.31814946909226,56.11204467787707,3.665907473454613,0.8814059366896043,B,1306,Incorrect
1,relearn,27,426,B,38.901481080088686,23.64119098025019,1.9450740540044342,0.3713549595283364,A,520,Correct
1,relearn,27,427,A,40.54100413370303,49.935149785267065,2.0270502066851517,0.7843794986065048,B,445,Incorrect
1,relearn,27,428,A,45.1355971903087,53.922423319648935,2.256779859515435,0.8470114448238402,A,482,Incorrect
1,relearn,27,429,A,62.69739229758416,79.14974748166597,3.1348696148792077,1.243281326109445,B,644,Incorrect
1,relearn,27,430,A,41.38125473896339,67.42331130643976,2.0690627369481693,1.059082897405044,A,423,Correct
1,relearn,27,431,B,78.75289238099009,64.3478585525032,3.9376446190495047,1.0107737985138958,A,1097,Correct
1,relearn,27,432,A,46.69334850064086,71.61622835875647,2.334667425032043,1.1249450844483917,B,841,Correct
1,relearn,27,433,A,25.10655041751961,57.34326982283285,1.2553275208759807,0.900745976041145,B,928,Correct
1,relearn,27,434,A,38.943839424355275,53.28850464883452,1.9471919712177637,0.8370538736278205,B,1276,Correct
1,relearn,27,435,A,54.393429452947586,62.54763710594728,2.7196714726473794,0.9824959861572216,B,847,Incorrect
1,relearn,27,436,A,19.85559126846423,36.167417018131765,0.9927795634232115,0.5681164580174061,A,677,Correct
1,relearn,27,437,B,64.4932987844807,50.7828831999769,3.224664939224035,0.7976956639457798,B,586,Correct
1,relearn,27,438,A,34.65423326768015,64.73320782658179,1.7327116633840074,1.0168268507564533,B,804,Incorrect
1,relearn,27,439,A,37.64573424236583,53.18192665218892,1.8822867121182918,0.8353797503713396,A,372,Incorrect
1,relearn,27,440,A,34.675480781819374,54.71967937378102,1.7337740390909686,0.8595347136372969,B,304,Correct
1,relearn,27,441,B,61.00671967406395,37.10201685245022,3.0503359837031976,0.5827971178851115,A,540,Incorrect
1,relearn,27,442,B,35.05769517508608,16.866920414969126,1.7528847587543042,0.26494496632175357,B,341,Correct
1,relearn,27,443,A,19.180346763840785,40.99794316046312,0.9590173381920393,0.6439941852260143,A,633,Correct
1,relearn,27,444,B,74.15222173502276,42.00603889151324,3.707611086751138,0.6598293159399257,B,523,Incorrect
1,relearn,27,445,A,48.96134256254173,67.4854406671811,2.4480671281270867,1.06005882312143,A,589,Incorrect
1,relearn,27,446,B,70.7158853879497,57.63168511615679,3.535794269397485,0.9052763928745919,B,445,Correct
1,relearn,27,447,A,30.87071319849602,43.11707811792294,1.543535659924801,0.6772814792976196,A,593,Correct
1,relearn,27,448,B,80.98314609908567,49.749817591858395,4.049157304954283,0.7814683073200729,B,598,Incorrect
1,relearn,27,449,A,14.825763672929803,34.3477303555033,0.7412881836464902,0.5395328867616614,A,555,Incorrect
1,relearn,27,450,A,57.2921785798855,82.22963505984127,2.864608928994275,1.291660087056835,107,485,Incorrect
1,relearn,27,451,B,70.91587205539898,44.51084443578132,3.545793602769949,0.6991747094226436,B,814,Incorrect
1,relearn,27,452,A,49.45343292292783,78.56882589137471,2.4726716461463916,1.2341562311075918,A,398,Correct
1,relearn,27,453,A,62.24664089048521,79.27192245928474,3.11233204452426,1.2452004461701431,B,685,Correct
1,relearn,27,454,A,20.147626990845467,40.23645239068257,1.0073813495422734,0.6320327161854191,B,840,Correct
1,relearn,27,455,B,49.72054671257249,23.093171643149528,2.4860273356286244,0.3627466919110334,A,893,Correct
1,relearn,27,456,B,65.90410809136701,45.499879041333244,3.29520540456835,0.7147104286773835,B,723,Correct
1,relearn,27,457,B,73.18355412396981,55.51104594878454,3.659177706198491,0.8719654707289348,B,663,Incorrect
1,relearn,27,458,A,17.463478983116687,39.24192812654214,0.8731739491558344,0.6164107655752173,B,1086,Correct
1,relearn,27,459,B,69.97190532103812,51.68877850735728,3.4985952660519057,0.8119254341587181,A,575,Incorrect
1,relearn,27,460,B,73.91969334574584,46.461336830903385,3.695984667287292,0.7298129723196347,B,484,Correct
1,relearn,27,461,A,34.91148595552204,53.417776631091115,1.745574297776102,0.8390844731766819,A,560,Incorrect
1,relearn,27,462,B,70.21669030517855,41.62718522422935,3.510834515258927,0.6538782964503026,B,649,Incorrect
1,relearn,27,463,B,52.08028719302843,44.52157941379108,2.604014359651422,0.6993433340629032,A,680,Correct
1,relearn,27,464,A,27.24274482155297,38.64292100477155,1.3621372410776484,0.6070015837092051,B,589,Incorrect
1,relearn,27,465,A,43.952287054232656,67.12258299659898,2.197614352711633,1.0543590681604325,A,1159,Incorrect
1,relearn,27,466,B,59.68806416381166,37.099517661903995,2.984403208190583,0.5827578606918118,B,449,Incorrect
1,relearn,27,467,A,56.305790631888996,69.40465376163615,2.81528953159445,1.0902057519124966,A,564,Correct
1,relearn,27,468,A,21.995697112516538,33.67501762140417,1.099784855625827,0.5289659398445508,A,626,Correct
1,relearn,27,469,B,71.62009749756115,45.29097868802092,3.581004874878057,0.7114290296008919,B,553,Correct
1,relearn,27,470,A,33.58858595236013,59.254398590057654,1.6794292976180063,0.9307659165170326,B,2447,Correct
1,relearn,27,471,B,55.92100094031123,26.863131885480975,2.7960500470155614,0.4219650889192038,100,714,Correct
1,relearn,27,472,A,48.83084483509699,63.01486085620035,2.4415422417548496,0.9898351196641102,A,360,Correct
1,relearn,27,473,A,39.55103855089918,58.28248036794913,1.9775519275449591,0.9154990607847017,B,857,Incorrect
1,relearn,27,474,A,47.7151326528419,78.80205112356239,2.385756632642095,1.2378197244879545,A,550,Correct
1,relearn,27,475,A,44.886498087754454,68.79018463778499,2.2443249043877227,1.080553693485754,A,560,Correct
1,relearn,27,476,B,61.518702185605676,33.671672832125836,3.075935109280284,0.5289134000174277,A,4534,Correct
1,relearn,27,477,A,31.140613987016394,41.70317601452558,1.5570306993508196,0.6550719569929782,B,793,Incorrect
1,relearn,27,478,A,39.83613839134091,61.16338399145367,1.9918069195670456,0.9607521890812122,A,453,Incorrect
1,relearn,27,479,B,70.00985953590896,43.49835325416473,3.500492976795448,0.683270535132688,B,298,Correct
1,relearn,27,480,A,49.34569501898723,72.67031070685013,2.467284750949361,1.1415025712536402,B,886,Incorrect
1,relearn,27,481,A,56.71215454725166,65.30168734568947,2.835607727362583,1.025756506161178,A,1988,Incorrect
1,relearn,27,482,B,41.64967778574056,27.497765607322513,2.082483889287028,0.4319338921104924,B,352,Incorrect
1,relearn,27,483,B,32.397517928534164,15.795579226869883,1.6198758964267084,0.24811637829164984,B,626,Incorrect
1,relearn,27,484,A,41.73233818403702,68.84374067169941,2.086616909201851,1.0813949496992585,A,449,Incorrect
1,relearn,27,485,B,78.5228854556652,65.93132268608674,3.9261442727832603,1.035646794960341,B,339,Incorrect
1,relearn,27,486,B,74.31016525481994,48.79914372480207,3.7155082627409968,0.7665351571365532,B,693,Incorrect
1,relearn,27,487,A,41.58372981755949,62.21060339522396,2.0791864908779742,0.9772018730091192,A,576,Incorrect
1,relearn,27,488,B,70.7971206180325,44.32163517502657,3.539856030901625,0.6962026173047522,B,562,Incorrect
1,relearn,27,489,B,38.9962303490128,17.59064325046247,1.9498115174506399,0.2763131780378589,A,608,Incorrect
1,relearn,27,490,A,41.53801729334126,67.1801912122252,2.076900864667063,1.0552639758954212,B,595,Correct
1,relearn,27,491,A,34.7783783913355,47.45723611337604,1.7389189195667751,0.745456521667292,B,801,Correct
1,relearn,27,492,B,54.801668263715875,22.657906402696874,2.740083413185794,0.35590956150218817,A,562,Incorrect
1,relearn,27,493,A,21.654416313105134,47.67549202219373,1.0827208156552566,0.7488848774660131,B,394,Correct
1,relearn,27,494,A,45.21203944565958,58.58067361158764,2.260601972282979,0.9201830693025261,A,955,Correct
1,relearn,27,495,A,58.76985804538246,86.63411187165154,2.9384929022691235,1.3608454470312839,B,507,Incorrect
1,relearn,27,496,A,55.73425886336931,79.25767792456662,2.7867129431684656,1.244976693542022,A,319,Incorrect
1,relearn,27,497,B,40.957453928444416,14.7349692329068,2.0478726964222207,0.23145635546485815,B,394,Incorrect
1,relearn,27,498,B,69.5858379874377,58.216651465676605,3.479291899371885,0.9144650228058354,A,413,Correct
1,relearn,27,499,B,32.996502799104164,15.836387880770072,1.6498251399552084,0.24875739912812847,B,1048,Incorrect
1,relearn,27,500,A,26.690423901553466,55.12359079936413,1.3345211950776732,0.8658793394738612,A,449,Incorrect
1,relearn,27,501,A,44.9343306654866,59.940284984820444,2.2467165332743297,0.9415397948119524,B,599,Incorrect
1,relearn,27,502,B,72.32956350794583,58.49406185379934,3.616478175397292,0.9188225749926147,B,1394,Incorrect
1,relearn,27,503,B,51.64848354793317,20.065999438705813,2.5824241773966583,0.31519598211787553,B,659,Correct
1,relearn,27,504,A,27.43339775932563,48.035355135525464,1.3716698879662814,0.7545375940317176,B,1003,Correct
1,relearn,27,505,B,55.78312657990218,25.381497412846088,2.789156328995109,0.39869162904652805,B,649,Incorrect
1,relearn,27,506,B,71.57764118461169,43.783787035858076,3.578882059230585,0.6877541184909587,B,631,Incorrect
1,relearn,27,507,A,25.837310351248494,49.64251248782432,1.2918655175624247,0.7797827626874423,A,581,Correct
1,relearn,27,508,B,64.14830453923489,33.59967701616882,3.2074152269617446,0.5277824923849289,A,507,Correct
1,relearn,27,509,A,45.91620839971061,66.035022869378,2.2958104199855307,1.0372757136303596,A,399,Incorrect
1,relearn,27,510,B,45.51602033998354,25.21145276341641,2.2758010169991767,0.3960205739393754,B,355,Correct
1,relearn,27,511,B,59.02040029427732,42.43730679640802,2.9510200147138663,0.6666036563486581,A,2651,Correct
1,relearn,27,512,A,45.532682055877935,60.988712075162184,2.2766341027938966,0.9580084490361631,B,1470,Incorrect
1,relearn,27,513,A,53.009086102852685,72.1392116359054,2.6504543051426346,1.1331600865555986,A,470,Correct
1,relearn,27,514,B,36.626979971813554,23.174997681970456,1.831348998590678,0.3640320123231943,A,472,Correct
1,relearn,27,515,B,65.05747163064204,38.6712238121494,3.252873581532102,0.6074461631678761,A,512,Incorrect
1,relearn,27,516,A,20.20209582479627,43.743449138955654,1.0101047912398136,0.6871204922881091,A,669,Correct
1,relearn,27,517,A,18.864767864282424,32.93416658018448,0.9432383932141213,0.5173286789020503,A,718,Incorrect
1,relearn,27,518,B,55.23023488143185,37.34163617738312,2.7615117440715924,0.5865610494394483,A,2112,Correct
1,relearn,27,519,A,41.30546231221895,51.82075723023472,2.0652731156109474,0.8139985510898279,A,956,Incorrect
1,relearn,27,520,B,61.34732726835655,30.841804913467527,3.067366363417827,0.4844619386979958,B,1575,Incorrect
1,relearn,27,521,B,76.84101394285483,59.555200943404856,3.8420506971427413,0.9354909088343231,B,3902,Incorrect
1,relearn,27,522,B,80.98233716780115,55.10366431193358,4.049116858390057,0.8655663349412429,A,755,Incorrect
1,relearn,27,523,A,36.358179400085575,51.61409719308438,1.817908970004279,0.8107523428173171,B,3508,Correct
1,relearn,27,524,B,64.95868358794306,35.7470389170236,3.2479341793971526,0.5615131742465489,B,888,Correct
1,relearn,27,525,B,35.83972463969029,14.58194418775685,1.7919862319845146,0.2290526436765665,A,165,Incorrect
1,relearn,27,526,B,51.87059548458191,23.951096032383514,2.5935297742290957,0.37622293670379847,B,763,Correct
1,relearn,27,527,B,55.964237316763835,29.275597471739715,2.7982118658381916,0.459860009733347,B,575,Incorrect
1,relearn,27,528,A,44.71527738041658,74.5497209180843,2.235763869020829,1.171024277817115,A,613,Incorrect
1,relearn,27,529,B,56.96264575813139,36.07922521752542,2.8481322879065694,0.5667311444529473,A,6549,Incorrect
1,relearn,27,530,A,12.70584886452566,38.31806535702448,0.635292443226283,0.6018987631270083,A,935,Correct
1,relearn,27,531,B,77.11423568696627,52.47212978096489,3.8557117843483133,0.8242302871904474,B,613,Correct
1,relearn,27,532,B,62.46827716307565,42.783447997554596,3.1234138581537825,0.6720408296217923,B,728,Incorrect
1,relearn,27,533,A,37.260322357192486,49.15405564858952,1.8630161178596243,0.7721101005987636,A,539,Incorrect
1,relearn,27,534,A,42.20773996271705,55.53080586817735,2.1103869981358527,0.8722758588169348,A,818,Correct
1,relearn,27,535,B,44.44240671851003,24.724574115433768,2.2221203359255015,0.3883727020209155,A,628,Correct
1,relearn,27,536,B,48.94501605725954,36.35313604496053,2.4472508028629765,0.5710337256689915,A,646,Incorrect
1,relearn,27,537,B,61.97649810099345,29.786468909759577,3.098824905049673,0.4678847595164073,B,748,Correct
1,relearn,27,538,B,55.44433254905621,40.977829470665895,2.7722166274528104,0.6436782401254965,B,563,Correct
1,relearn,27,539,B,60.55278962923107,46.13920067016062,3.027639481461554,0.7247528693394093,B,603,Correct
1,relearn,27,540,A,27.0331193744508,57.46590891088028,1.3516559687225398,0.9026723863314086,B,766,Incorrect
1,relearn,27,541,B,70.81351164222126,45.14908284103587,3.540675582111063,0.7092001348485765,A,681,Correct
1,relearn,27,542,B,37.81301852815148,24.75518540031365,1.890650926407574,0.38885354295939334,B,818,Incorrect
1,relearn,27,543,A,61.88023941959512,84.5329341881114,3.094011970979756,1.327840225158801,A,576,Incorrect
1,relearn,27,544,A,49.055984956238035,62.598267406497214,2.452799247811902,0.9832912850585053,B,555,Correct
1,relearn,27,545,A,39.40227158176479,60.7332380621706,1.9701135790882398,0.9539954726241758,B,544,Correct
1,relearn,27,546,A,29.21727576560904,41.99164134256361,1.4608637882804518,0.6596031597698763,B,594,Incorrect
1,relearn,27,547,A,50.05009035893079,61.39151870048313,2.5025045179465395,0.9643357207107911,A,546,Correct
1,relearn,27,548,B,83.26743866393345,61.361795634885965,4.1633719331966725,0.96386883188818,A,918,Correct
1,relearn,27,549,A,56.43931891498835,66.39542499498033,2.8219659457494175,1.0429368969810118,A,1020,Incorrect
1,relearn,27,550,A,29.710749927316126,41.99853773759595,1.4855374963658061,0.6597114880897256,B,238,Correct
1,relearn,27,551,B,45.17638414267493,29.258834292310706,2.258819207133746,0.4595966943266221,B,790,Correct
1,relearn,27,552,A,23.14980653254093,42.88395513751948,1.1574903266270464,0.6736195920845273,B,853,Incorrect
1,relearn,27,553,B,74.02711756465405,50.093333601961405,3.7013558782327025,0.7868642441887234,A,1004,Correct
1,relearn,27,554,A,41.50180664187728,52.46753934055039,2.0750903320938643,0.8241581807210329,A,758,Incorrect
1,relearn,27,555,B,52.82980418091853,24.78428224328988,2.6414902090459265,0.38931059510007715,B,333,Incorrect
1,relearn,27,556,B,41.03421828155858,15.873231255009497,2.0517109140779293,0.24933613349734868,B,621,Correct
1,relearn,27,557,A,16.63857106456349,45.88631156570568,0.8319285532281745,0.7207804965757668,A,566,Correct
1,relearn,27,558,B,82.18082764951605,60.82703616420729,4.1090413824758025,0.9554688497655714,B,355,Incorrect
1,relearn,27,559,A,55.55802286191644,77.52883500645626,2.7779011430958223,1.217820092488291,A,226,Incorrect
1,relearn,27,560,B,46.75744624916973,30.46463131777292,2.3378723124584866,0.4785373097111848,A,706,Incorrect
1,relearn,27,561,B,57.43693275477656,34.1632071665951,2.871846637738828,0.5366344032882067,A,321,Incorrect
1,relearn,27,562,B,55.97150262001096,40.32864425515003,2.798575131000548,0.6334808626060778,A,321,Incorrect
1,relearn,27,563,B,69.30327505725698,43.338096942585686,3.4651637528628494,0.6807532348769474,B,355,Incorrect
1,relearn,27,564,A,37.42118107496906,60.662533241368045,1.8710590537484533,0.9528848438961425,A,431,Incorrect
1,relearn,27,565,A,65.29651181608935,86.50865876337271,3.2648255908044677,1.35887483421459,B,642,Incorrect
1,relearn,27,566,A,25.48623145569925,35.78528115559649,1.2743115727849625,0.5621138819253361,A,898,Incorrect
1,relearn,27,567,B,83.96576741129383,59.10817576085798,4.198288370564692,0.9284690536870286,A,259,Incorrect
1,relearn,27,568,B,56.346789370221686,31.724727110158724,2.8173394685110846,0.498330848132078,A,758,Correct
1,relearn,27,569,B,44.72244512154075,37.21811105112536,2.2361222560770373,0.5846207212935226,A,496,Incorrect
1,relearn,27,570,B,69.2773162024162,57.285736152136046,3.46386581012081,0.8998422392551692,107,668,Incorrect
1,relearn,27,571,B,62.262309000952705,51.00731628750738,3.1131154500476352,0.8012210506408207,A,527,Incorrect
1,relearn,27,572,A,25.15965355603619,57.976225709762154,1.2579826778018095,0.9106884238632623,A,611,Correct
1,relearn,27,573,B,31.893989528534544,18.84470559956385,1.594699476426727,0.29601194335326114,B,577,Incorrect
1,relearn,27,574,A,57.915434455785544,80.75625855556729,2.895771722789277,1.2685163430478403,107,648,Incorrect
1,relearn,27,575,B,56.33051160280455,45.63854795470783,2.816525580140228,0.716888634875078,B,1230,Correct
1,relearn,27,576,A,46.36647231367874,56.264853852405224,2.318323615683937,0.883806257590098,A,1669,Incorrect
1,relearn,27,577,A,62.84462122701115,88.61618485646073,3.1422310613505577,1.3919797766710604,B,799,Correct
1,relearn,27,578,B,47.293770658830454,37.03242118348764,2.3646885329415226,0.581703911673439,A,10868,Correct
1,relearn,27,579,A,53.77274733655156,61.73198963254103,2.688637366827578,0.9696838256053608,B,1754,Incorrect
1,relearn,27,580,A,23.60951699183744,52.809075885101144,1.1804758495918721,0.8295230242174982,A,570,Correct
1,relearn,27,581,B,56.77923793783908,36.97407256584692,2.838961896891954,0.5807873737308029,A,71,Correct
1,relearn,27,582,B,54.02276255553868,23.404703510793457,2.701138127776934,0.36764022304477983,B,2097,Incorrect
1,relearn,27,583,B,88.54086987355274,68.77084189150176,4.427043493677637,1.0802498583376356,A,722,Incorrect
1,relearn,27,584,A,31.087877026496585,43.41912914522312,1.5543938513248292,0.6820260857394971,B,695,Correct
1,relearn,27,585,B,43.10911459915417,21.237481009797758,2.1554557299577084,0.3335975716056669,A,991,Correct
1,relearn,27,586,A,13.940037307733366,38.49680018669308,0.6970018653866683,0.6047063232661457,A,663,Correct
1,relearn,27,587,A,49.17870963064153,62.655054650060414,2.4589354815320763,0.9841832969944841,B,1245,Correct
1,relearn,27,588,B,68.99011696731223,52.66326906831235,3.449505848365612,0.8272326960951634,A,736,Incorrect
1,relearn,27,589,B,57.84037395109139,39.47404040540158,2.8920186975545694,0.6200567767255813,B,366,Incorrect
1,relearn,27,590,A,52.98039533227985,82.26683651653636,2.6490197666139927,1.2922444461721156,A,292,Correct
1,relearn,27,591,B,59.04797721529825,48.786711564823655,2.9523988607649123,0.7663398732242709,A,520,Correct
1,relearn,27,592,B,79.78424755312025,59.905845727064516,3.989212377656013,0.940998824216147,A,345,Incorrect
1,relearn,27,593,B,70.6008489129843,52.40256314780652,3.530042445649215,0.8231375370721209,B,309,Incorrect
1,relearn,27,594,A,29.658774701957576,62.17630771849607,1.4829387350978789,0.9766631577788281,107,803,Incorrect
1,relearn,27,595,A,40.80498426845761,67.48341599600951,2.0402492134228805,1.0600270196610373,B,306,Correct
1,relearn,27,596,A,44.538609012497794,51.98715695392924,2.2269304506248897,0.8166123518374181,B,628,Incorrect
1,relearn,27,597,B,39.58251866218276,29.305841147055048,1.979125933109138,0.46033507627428805,A,484,Correct
1,relearn,27,598,B,74.31879883568246,46.38963355753986,3.715939941784123,0.7286866599354489,A,575,Incorrect
1,relearn,27,599,B,74.7078231271742,49.62124938714894,3.73539115635871,0.7794487626830707,B,472,Correct
1,relearn,27,600,A,45.322864854550765,54.93202766060532,2.2661432427275385,0.8628702727267449,A,486,Correct
1,relearn,27,601,B,39.58470020944124,30.493438519122012,1.9792350104720617,0.4789898121718286,A,2309,Incorrect
1,relearn,27,602,B,38.36225235266228,23.979376317337604,1.918112617633114,0.3766671623810644,A,657,Incorrect
1,relearn,27,603,B,66.51471535940975,41.70011009010653,3.3257357679704875,0.6550237975648212,A,1102,Incorrect
1,relearn,27,604,B,65.0815721255855,41.886454311957564,3.2540786062792746,0.6579508857568521,B,1063,Correct
1,relearn,27,605,A,66.15427389061668,84.3207141303655,3.307713694530834,1.3245066802870065,B,2032,Incorrect
1,relearn,27,606,A,64.90563544280386,80.86358116646294,3.2452817721401925,1.2702021626776094,B,631,Incorrect
1,relearn,27,607,A,39.75899741434779,50.017562326934495,1.9879498707173895,0.7856740317838351,A,905,Correct
1,relearn,27,608,A,27.697827362212635,47.39182922314313,1.3848913681106318,0.7444291126380426,A,2178,Correct
1,relearn,27,609,B,76.4300942707064,44.05427659423009,3.82150471353532,0.69200295853823,B,963,Correct
1,relearn,27,610,A,46.59657560818189,58.38796234140151,2.3298287804090942,0.9171559677491226,A,2984,Correct
1,relearn,27,611,B,82.32375498666548,63.36789227362755,4.116187749333274,0.9953805242014885,B,1315,Correct
1,relearn,27,612,B,35.85179098865423,17.076109299213773,1.7925895494327113,0.2682308976315317,A,1110,Incorrect
1,relearn,27,613,B,41.66187541801263,17.031145673870757,2.0830937709006316,0.2675246106562498,B,638,Correct
1,relearn,27,614,B,32.80704162778969,16.287240278872158,1.6403520813894843,0.2558393720367827,B,764,Correct
1,relearn,27,615,A,24.276213710059082,40.25048358013056,1.213810685502954,0.6322531175938739,B,1036,Incorrect
1,relearn,27,616,B,69.67425657008313,60.07406567474949,3.4837128285041565,0.9436412169753189,A,510,Incorrect
1,relearn,27,617,A,50.58811473219297,66.83391258288552,2.5294057366096485,1.0498246439052779,B,718,Incorrect
1,relearn,27,618,A,41.99076616908908,58.46694051673591,2.099538308454454,0.9183965540262448,A,648,Correct
1,relearn,27,619,A,55.17029898683779,80.3190481876891,2.7585149493418895,1.2616486586488436,B,2215,Incorrect
1,relearn,27,620,B,89.65166986159944,65.46802112183344,4.482583493079972,1.0283692710070667,A,862,Incorrect
1,relearn,27,621,B,51.53300464270004,40.65519290141658,2.576650232135002,0.6386102767468311,B,719,Correct
1,relearn,27,622,A,18.958089787769705,47.551599224416805,0.9479044893884853,0.7469387739493698,B,1071,Incorrect
1,relearn,27,623,A,22.7338388329096,50.08897884615049,1.13669194164548,0.7867958398444047,A,587,Correct
1,relearn,27,624,A,40.50429123316108,66.8867711292857,2.025214561658054,1.0506549440105293,B,787,Incorrect
1,relearn,27,625,B,80.91340949661696,68.13799060505278,4.045670474830848,1.0703090535760207,B,878,Correct
1,relearn,27,626,A,45.623912278171645,64.76922554008205,2.281195613908582,1.017392615677111,A,758,Correct
1,relearn,27,627,A,27.59215715735391,40.84146909922602,1.3796078578676956,0.641536296419715,A,1456,Correct
1,relearn,27,628,B,87.54827216407433,68.29401163571973,4.3774136082037165,1.0727598261947648,B,5614,Correct
1,relearn,27,629,B,42.65210933894443,25.930442781982595,2.132605466947221,0.40731444274103495,A,16141,Incorrect
1,relearn,27,630,B,33.82562606746804,19.709028685598255,1.6912813033734022,0.3095886986403299,A,1717,Incorrect
1,relearn,27,631,A,47.548380838646246,78.32664419857461,2.377419041932312,1.230352049972918,B,771,Incorrect
1,relearn,27,632,A,14.400210185528877,31.97221256363025,0.7200105092764438,0.5022183405445605,B,3111,Incorrect
1,relearn,27,633,B,44.544242490207765,15.7939825411883,2.227212124510388,0.24809129761161305,A,984,Incorrect
1,relearn,27,634,A,62.33131205369247,73.86790862835011,3.116565602684624,1.160314395414334,A,710,Correct
1,relearn,27,635,A,41.46415909441258,53.99921778397966,2.0732079547206292,0.848217729448729,B,2983,Incorrect
1,relearn,27,636,B,64.96781909310664,40.92077407270057,3.2483909546553322,0.6427820160300189,A,595,Incorrect
1,relearn,27,637,B,45.245846712345,36.754159905259414,2.26229233561725,0.5773329937361374,B,519,Correct
1,relearn,27,638,B,48.94308584224661,26.035537344933665,2.4471542921123306,0.40896526427553154,A,25635,Incorrect
1,relearn,27,639,B,45.4245500397315,27.189131095927443,2.271227501986575,0.42708587254227737,B,555,Correct
1,relearn,27,640,A,51.230491550857494,62.01310621696347,2.5615245775428748,0.9740995945874797,A,1758,Correct
1,relearn,27,641,A,52.15103016887351,80.41941141772331,2.6075515084436756,1.2632251605796734,A,604,Correct
1,relearn,27,642,B,72.2362683986507,40.13532053857694,3.6118134199325347,0.6304441407673242,B,913,Correct
1,relearn,27,643,A,34.762688198354056,47.11153399731205,1.7381344099177027,0.7400262455265066,A,1182,Correct
1,relearn,27,644,B,69.52715175391246,48.90010915294562,3.476357587695623,0.7681211183731648,A,902,Incorrect
1,relearn,27,645,B,61.34616689215489,28.341531378888035,3.0673083446077447,0.4451877338569963,A,617,Incorrect
1,relearn,27,646,B,50.7285329801565,25.003147292639035,2.536426649007825,0.3927485192558916,B,564,Correct
1,relearn,27,647,A,23.70673307707069,50.78155408518758,1.1853366538535346,0.7976747862594902,B,1016,Incorrect
1,relearn,27,648,B,41.06281184926925,16.798611256741022,2.0531405924634627,0.263871968573442,A,626,Incorrect
1,relearn,27,649,B,75.69891956324454,46.99429773758121,3.784945978162227,0.7381847026649827,A,519,Incorrect
1,relearn,27,650,A,66.78216261195601,88.77048799157512,3.3391081305978,1.3944035646495667,100,697,Incorrect
1,relearn,27,651,B,68.14432815588525,51.003725933063386,3.4072164077942624,0.8011646534850957,A,444,Incorrect
1,relearn,27,652,A,10.86426425310977,31.167953177975857,0.5432132126554885,0.489585063656798,A,3268,Correct
1,relearn,27,653,B,41.3956908353506,15.374114775712997,2.06978454176753,0.24149603017413118,B,742,Correct
1,relearn,27,654,B,54.19283995294593,42.26207742121985,2.7096419976472963,0.6638511597597367,B,1980,Correct
1,relearn,27,655,B,53.94483548255397,37.06814137232809,2.6972417741276984,0.5822650030876689,A,1747,Incorrect
1,relearn,27,656,B,69.596953671668,51.844664039127565,3.4798476835834005,0.8143740783657704,B,946,Correct
1,relearn,27,657,B,80.82051306586261,61.819364107286276,4.04102565329313,0.9710563006452155,A,1121,Incorrect
1,relearn,27,658,A,42.29397790777153,59.54836764126912,2.1146988953885764,0.935383571575376,B,628,Incorrect
1,relearn,27,659,B,42.4137969292986,16.397433260930146,2.1206898464649298,0.25757027935133536,A,6951,Incorrect
1,relearn,27,660,A,46.01384533741887,76.40549815731788,2.3006922668709437,1.2001747585244917,B,2501,Incorrect
1,relearn,27,661,A,26.095919632523522,40.76342726204882,1.304795981626176,0.6403104181079725,B,942,Incorrect
1,relearn,27,662,B,53.20926205241123,31.4509646154577,2.660463102620562,0.49403059692117224,B,652,Correct
1,relearn,27,663,B,80.20469703760972,63.58937861025401,4.010234851880486,0.9988596234415696,B,830,Correct
1,relearn,27,664,B,42.40536120865966,17.002952512428514,2.120268060432983,0.26708175351190766,B,840,Correct
1,relearn,27,665,A,39.34094349277554,68.05164979537346,1.9670471746387768,1.0689528153090533,B,1264,Incorrect
1,relearn,27,666,A,57.96377259388031,83.33764667900894,2.8981886296940154,1.3090646928711815,B,686,Incorrect
1,relearn,27,667,B,78.10954456760123,48.99981943688483,3.905477228380062,0.7696873638507187,B,760,Correct
1,relearn,27,668,B,46.14435865194647,32.81108221891632,2.3072179325973234,0.515395274276391,A,1250,Incorrect
1,relearn,27,669,B,72.52048095539496,62.98138596837829,3.6260240477697483,0.9893092973558026,A,2125,Incorrect
1,relearn,27,670,A,52.59445195940965,71.14379040346103,2.6297225979704826,1.1175240464002258,B,974,Incorrect
1,relearn,27,671,A,16.29970522174004,45.11334693922559,0.8149852610870021,0.7086387966155936,B,1681,Incorrect
1,relearn,27,672,A,33.45359351288124,60.06815965463363,1.672679675644062,0.9435484454282791,A,606,Correct
1,relearn,27,673,A,53.42451861593334,79.0988652109632,2.6712259307966666,1.2424820692702563,A,1282,Correct
1,relearn,27,674,A,32.40276505952223,50.64387786353818,1.6201382529761117,0.7955121732269514,B,1134,Incorrect
1,relearn,27,675,B,46.63535974668194,30.80340914708689,2.3317679873340973,0.483858819410044,A,546,Incorrect
1,relearn,27,676,A,43.51683033451997,74.53677043943784,2.1758415167259986,1.170820852174234,B,288,Incorrect
1,relearn,27,677,A,13.471531526620701,37.94237751759513,0.6735765763310352,0.5959974723450371,A,696,Correct
1,relearn,27,678,B,42.4404089811991,24.42494054880884,2.1220204490599546,0.38366606896252653,107,4008,Incorrect
1,relearn,27,679,B,57.74118338918322,25.44828063810465,2.887059169459161,0.3997406574958047,B,8610,Correct
1,relearn,27,680,A,20.597000052475256,50.53144853000646,1.0298500026237627,0.7937461373855952,B,4855,Incorrect
1,relearn,27,681,B,53.183011105148495,35.12765077183341,2.6591505552574244,0.5517838480132984,A,501,Incorrect
1,relearn,27,682,B,67.17205968863743,35.1425089230275,3.3586029844318714,0.5520172393064848,B,1358,Correct
1,relearn,27,683,A,65.83053844519311,82.6836498354868,3.2915269222596555,1.2987917344757813,B,2568,Incorrect
1,relearn,27,684,B,30.6362291948183,15.531687484240976,1.531811459740915,0.24397117649171993,A,630,Incorrect
1,relearn,27,685,B,59.6198418505859,48.06235153492924,2.980992092529295,0.754961652481919,B,1982,Correct
1,relearn,27,686,A,21.597852695836753,41.75630426992787,1.0798926347918376,0.6559064936773275,B,1145,Incorrect
1,relearn,27,687,B,39.060697716953264,16.80166601837005,1.9530348858476632,0.2639199526569031,B,572,Correct
1,relearn,27,688,A,41.038625698654776,69.26128703825553,2.051931284932739,1.0879537526877876,A,1984,Correct
1,relearn,27,689,A,35.72230023572417,63.330265736114654,1.7861150117862084,0.994789487932336,B,1016,Incorrect
1,relearn,27,690,A,34.396587006046936,54.32392446810474,1.7198293503023467,0.8533182101158233,A,685,Correct
1,relearn,27,691,B,55.177435901299724,29.837734053995753,2.7588717950649864,0.4686900305189952,A,968,Incorrect
1,relearn,27,692,B,68.06027798177692,43.86505414389876,3.403013899088846,0.6890306592389543,A,2231,Incorrect
1,relearn,27,693,A,26.52792268714775,47.63871787481057,1.3263961343573873,0.7483072305097082,A,914,Correct
1,relearn,27,694,B,44.02629638798771,35.733334213248995,2.2013148193993857,0.5612979012630591,B,1091,Correct
1,relearn,27,695,A,21.33945348654913,37.62261108087739,1.0669726743274566,0.5909745929027519,A,2217,Correct
1,relearn,27,696,B,36.274055584897795,17.25118329827716,1.8137027792448897,0.2709809535779923,A,1578,Incorrect
1,relearn,27,697,B,73.39903352528678,41.2292070662912,3.669951676264339,0.647626870163964,B,731,Correct
1,relearn,27,698,B,62.13933785213707,41.51423696113424,3.106966892606853,0.6521041092824258,B,8766,Correct
1,relearn,27,699,B,68.97347735448349,44.25774164329683,3.448673867724175,0.6951989800552819,B,586,Correct
1,relearn,27,700,A,41.086517821203856,67.66200946686224,2.054325891060193,1.0628323593410873,A,566,Correct
1,relearn,27,701,B,72.24596657320596,47.5361711690303,3.612298328660298,0.7466964306220626,B,1063,Correct
1,relearn,27,702,A,36.036512995731925,67.78117162404973,1.8018256497865963,1.064704154129118,A,1449,Correct
1,relearn,27,703,B,66.03561705166416,44.89374951417018,3.3017808525832084,0.705189368329087,B,797,Correct
1,relearn,27,704,B,68.27227521101833,36.323624852816145,3.4136137605509163,0.5705701649467942,A,1098,Incorrect
1,relearn,27,705,A,40.64259737913689,62.62555998377198,2.032129868956844,0.983719995859825,A,286,Correct
1,relearn,27,706,A,22.038556375633366,40.14134699173745,1.1019278187816683,0.6305388040722056,B,1069,Incorrect
1,relearn,27,707,B,47.065733024008765,26.83547813231654,2.3532866512004382,0.42153070478027593,A,739,Incorrect
1,relearn,27,708,A,21.690874324597413,38.02966495529324,1.0845437162298708,0.5973685802101524,A,612,Correct
1,relearn,27,709,A,48.41984400120154,67.33463815249183,2.420992200060077,1.0576900227599766,B,607,Incorrect
1,relearn,27,710,B,65.27605506299162,37.955772641478724,3.263802753149581,0.59620788245897,B,1535,Correct
1,relearn,27,711,A,32.92124426254048,54.5374516381568,1.6460622131270242,0.8566722870597102,B,1474,Incorrect
1,relearn,27,712,A,24.839038813183787,42.63081870436061,1.2419519406591895,0.6696433342906881,A,245,Correct
1,relearn,27,713,B,57.11270483208601,44.92277728998111,2.8556352416043005,0.7056453355652753,A,763,Incorrect
1,relearn,27,714,A,60.45182762649401,85.66995445093987,3.0225913813247005,1.3457004976822242,A,945,Correct
1,relearn,27,715,A,38.05167994555572,53.71875840399548,1.902583997277786,0.8438122838097859,A,1139,Correct
1,relearn,27,716,B,69.98469298907574,43.372425807277416,3.4992346494537867,0.6812924714225554,B,4911,Correct
1,relearn,27,717,A,40.4986289709117,66.44408642249319,2.024931448545585,1.0437012688969496,A,4483,Correct
1,relearn,27,718,B,85.81919463695446,60.58026935239687,4.290959731847724,0.9515926457499045,100,815,Correct
1,relearn,27,719,A,47.742706996760916,60.09137112029544,2.387135349838046,0.9439130502782901,A,1675,Correct
1,relearn,27,720,A,50.35149530361495,67.3762391665046,2.517574765180748,1.0583434899599988,B,1787,Incorrect
1,relearn,27,721,A,21.29875989351537,33.45439225541321,1.0649379946757684,0.525500364699587,A,663,Correct
1,relearn,27,722,A,28.829367361248146,44.224313472620786,1.4414683680624074,0.6946738915781878,A,1175,Correct
1,relearn,27,723,A,46.35240934535878,62.91770089346323,2.317620467267939,0.9883089345383202,A,453,Correct
1,relearn,27,724,B,52.17389499774883,37.46774580144667,2.6086947498874418,0.5885419747819733,B,511,Correct
1,relearn,27,725,A,45.12160333336334,73.55419835268926,2.256080166668167,1.1553866459274753,B,1354,Incorrect
1,relearn,27,726,A,41.76101666275096,64.02317637657796,2.0880508331375482,1.0056737028207046,A,683,Correct
1,relearn,27,727,B,45.88435094320248,33.861091889878395,2.294217547160124,0.5318887876188545,B,747,Correct
1,relearn,27,728,A,27.68298592011621,45.55152259845451,1.3841492960058104,0.7155216437756706,A,4136,Correct
1,relearn,27,729,A,46.23191423860539,77.3056845970251,2.3115957119302695,1.2143148540537185,A,4228,Correct
1,relearn,27,730,B,43.45657403876267,22.20308816490753,2.1728287019381334,0.3487652933293999,B,1882,Correct
1,relearn,27,731,B,66.33181283356504,54.4240962968395,3.316590641678252,0.8548917055220724,A,30,Incorrect
1,relearn,27,732,B,43.01473201242953,23.18358009189804,2.1507366006214768,0.3641668245030873,B,2505,Correct
1,relearn,27,733,A,55.583192287587934,65.60722337696194,2.779159614379397,1.030555854917441,A,2331,Correct
1,relearn,27,734,B,59.22307690237099,26.46478525453098,2.9611538451185493,0.41570787467233006,B,2096,Correct
1,relearn,27,735,A,26.388960320924514,55.25162471264963,1.3194480160462256,0.8678904914808017,A,799,Correct
1,relearn,27,736,B,41.95933370617779,13.653133927656722,2.0979666853088896,0.2144629262280196,B,2613,Correct
1,relearn,27,737,B,49.12438841979971,31.621741628037867,2.4562194209899855,0.49671315596179155,B,1893,Correct
1,relearn,27,738,A,26.078777351393207,44.14239033744767,1.3039388675696602,0.6933870459800934,A,4106,Correct
1,relearn,27,739,B,62.21342221202049,49.924710774835646,3.1106711106010243,0.7842155230140944,A,35026,Incorrect
1,relearn,27,740,B,37.798821205656395,16.012286446394302,1.8899410602828197,0.2515204073358388,B,1170,Correct
1,relearn,27,741,A,50.69235642186602,63.94973007928595,2.534617821093301,1.004520011080675,A,4341,Correct
1,relearn,27,742,A,50.738116992258746,61.85391523171178,2.5369058496129373,0.9715990284385577,B,784,Incorrect
1,relearn,27,743,B,50.75439322548153,42.491190183962594,2.5377196612740764,0.6674500546211181,A,846,Incorrect
1,relearn,27,744,A,49.10806826251387,59.76961923613382,2.4554034131256937,0.938858983500486,B,886,Incorrect
1,relearn,27,745,B,39.43990808517344,25.295123596301202,1.971995404258672,0.39733487230892844,B,779,Correct
1,relearn,27,746,A,61.787916605982325,88.1640446539458,3.0893958302991162,1.384877574977993,B,6915,Incorrect
1,relearn,27,747,B,32.146521442950075,19.524911085847794,1.6073260721475038,0.30669658614646667,A,581,Incorrect
1,relearn,27,748,A,52.59934960790759,73.3151201709217,2.6299674803953796,1.1516312146301022,A,1517,Correct
1,relearn,27,749,A,41.68044997730637,64.65383803323643,2.084022498865318,1.0155801129579995,B,629,Incorrect
1,relearn,27,750,A,11.429244441040655,33.48891582587956,0.5714622220520327,0.526042659676351,B,696,Incorrect
1,relearn,27,751,B,81.57741015508628,67.2735452437805,4.078870507754314,1.0567303775940071,B,1146,Correct
1,relearn,27,752,B,38.55740063683331,20.159527081742002,1.9278700318416653,0.3166651108992258,A,649,Incorrect
1,relearn,27,753,B,44.803134370826,29.306221316502327,2.2401567185413,0.46034104796200154,B,916,Correct
1,relearn,27,754,A,40.726491767675405,66.31309067822546,2.03632458838377,1.0416435925577345,A,765,Correct
1,relearn,27,755,A,49.037639343825816,73.04605294020169,2.451881967191291,1.1474047164533436,A,816,Correct
1,relearn,27,756,A,52.271149206291085,66.81743535257864,2.613557460314554,1.04956582017686,B,589,Incorrect
1,relearn,27,757,B,73.91279059350799,47.77829509589996,3.6956395296754,0.7504997043716228,A,165,Incorrect
1,relearn,27,758,B,69.21257218011067,40.33375039849697,3.4606286090055334,0.6335610697182124,B,958,Correct
1,relearn,27,759,B,67.9043978365916,58.454540148356315,3.39521989182958,0.9182017694952291,A,1113,Incorrect
1,relearn,27,760,B,49.65314138995425,37.2805121913714,2.4826570694977126,0.5856009161123856,B,353,Correct
1,relearn,27,761,A,32.02508660079073,52.014316390654486,1.6012543300395365,0.8170389712718765,A,687,Correct
1,relearn,27,762,B,68.16566937489861,51.93811894429661,3.4082834687449304,0.8158420645833755,B,589,Correct
1,relearn,27,763,A,39.47792098814188,51.1804776317657,1.973896049407094,0.8039410626758592,A,559,Correct
1,relearn,27,764,B,74.94956975801446,59.1551202923841,3.7474784879007235,0.9292064566638719,B,761,Correct
1,relearn,27,765,A,33.145173190249295,53.489500998873005,1.6572586595124648,0.8402111169112166,A,1255,Correct
1,relearn,27,766,A,46.36439119169673,64.26708354278512,2.3182195595848367,1.009504987628276,A,761,Correct
1,relearn,27,767,A,59.820848404784954,77.35837221750177,2.9910424202392476,1.2151424692608415,A,1317,Correct
1,relearn,27,768,A,45.7804987697117,77.3058809877451,2.2890249384855847,1.2143179389519343,A,1628,Correct
1,relearn,27,769,B,69.47779808925527,54.86854884251511,3.4738899044627636,0.8618731497838912,B,779,Correct
1,relearn,27,770,A,40.76217757016748,55.67368740142416,2.038108878508374,0.8745202366928438,A,777,Correct
1,relearn,27,771,B,40.70035966476487,16.615697157123627,2.0350179832382436,0.260998760615462,B,805,Correct
1,relearn,27,772,B,58.91989115448668,50.84243504354412,2.9459945577243336,0.7986311021170724,A,559,Incorrect
1,relearn,27,773,A,63.382446187984385,79.81244505173146,3.1691223093992194,1.2536909551977928,A,517,Correct
1,relearn,27,774,B,78.93861212731298,50.228548838231674,3.946930606365649,0.7889882001533239,B,638,Correct
1,relearn,27,775,A,21.59442349709579,35.577652489005935,1.0797211748547895,0.5588524584571584,A,725,Correct
1,relearn,27,776,B,37.397622706271875,18.32578332587578,1.8698811353135938,0.2878607313392484,A,687,Incorrect
1,relearn,27,777,B,39.63976325834214,27.350689562510098,1.9819881629171072,0.4296236270009838,B,678,Correct
1,relearn,27,778,B,57.49016596141283,30.97695306883323,2.874508298070641,0.48658484095821136,B,700,Correct
1,relearn,27,779,B,85.26194606172405,57.03862875343784,4.2630973030862025,0.8959606853131793,A,689,Incorrect
1,relearn,27,780,A,27.639273922909542,55.36888403786118,1.381963696145477,0.8697323966540493,B,676,Incorrect
1,relearn,27,781,B,71.10262081612015,45.48715365255898,3.5551310408060077,0.7145105387379472,A,513,Incorrect
1,relearn,27,782,A,46.34987772239741,69.29191134819283,2.3174938861198706,1.0884347982233888,A,445,Correct
1,relearn,27,783,A,41.0945694787826,57.722264691248455,2.05472847393913,0.9066992135129582,B,549,Incorrect
1,relearn,27,784,B,53.603508876881236,35.090824568280496,2.6801754438440617,0.5512053833605911,A,376,Incorrect
1,relearn,27,785,B,70.56009100741717,41.67750963024684,3.5280045503708584,0.6546687903715065,B,358,Correct
1,relearn,27,786,B,63.85800495776891,51.14464104578077,3.1929002478884456,0.8033781428995594,A,540,Incorrect
1,relearn,27,787,A,40.22664830094916,67.2166522535503,2.011332415047458,1.055836704593267,B,400,Incorrect
1,relearn,27,788,B,47.59481049298455,26.378559334022437,2.3797405246492276,0.4143534410802368,B,1169,Correct
1,relearn,27,789,B,57.2736244870944,45.62393573538358,2.86368122435472,0.7166591066706695,B,5471,Correct
1,relearn,27,790,B,48.87526967109417,36.13614859057417,2.443763483554709,0.5676252947058849,A,1864,Incorrect
1,relearn,27,791,A,39.105198930890786,61.43745524161559,1.9552599465445395,0.9650572902115562,100,484,Incorrect
1,relearn,27,792,B,46.47825068378827,18.861317304410207,2.3239125341894136,0.2962728794028057,B,1044,Correct
1,relearn,27,793,A,28.491165657571365,49.14957352836115,1.4245582828785683,0.7720396956188538,A,553,Correct
1,relearn,27,794,A,39.16712539451735,47.200317446107995,1.9583562697258674,0.741420852678995,B,592,Incorrect
1,relearn,27,795,A,57.21012122897298,71.0110764511261,2.860506061448649,1.1154393805118046,A,1126,Correct
1,relearn,27,796,A,46.81492128758627,75.39150666990597,2.3407460643793137,1.1842470174862123,A,631,Correct
1,relearn,27,797,B,82.02096783499795,60.33645589111608,4.101048391749897,0.9477628328558743,B,735,Correct
1,relearn,27,798,A,44.99736544995227,55.24374042092221,2.2498682724976136,0.8677666453159536,A,638,Correct
1,relearn,27,799,A,17.16825441170295,43.457573012780486,0.8584127205851475,0.6826299605989662,A,607,Correct
1,relearn,27,800,B,49.6308489286311,34.669797935728766,2.4815424464315554,0.5445919124816403,B,503,Correct
1,relearn,27,801,A,58.12546837673678,81.50724810766106,2.9062734188368387,1.2803128593467425,A,357,Correct
1,relearn,27,802,B,49.322818768088645,19.93935031276594,2.466140938404432,0.3132065822996941,A,452,Incorrect
1,relearn,27,803,B,79.44936317513961,53.72007198797835,3.9724681587569806,0.8438329175387382,B,419,Correct
1,relearn,27,804,B,79.48196035845608,63.80530914793862,3.9740980179228043,1.002251452395948,A,788,Incorrect
1,relearn,27,805,B,70.21159514459536,48.54318355458088,3.5105797572297686,0.7625145441846608,100,572,Correct
1,relearn,27,806,B,70.39651097653832,47.88708482978193,3.519825548826916,0.7522085695153706,A,838,Incorrect
1,relearn,27,807,B,84.29719935065945,55.16124685252707,4.2148599675329725,0.8664708393737608,B,543,Correct
1,relearn,27,808,B,55.455366945204545,42.404401339856825,2.7727683472602274,0.6660867786458369,B,1216,Correct
1,relearn,27,809,B,80.47341369540392,53.149069457068954,4.023670684770196,0.8348636307573074,B,2876,Correct
1,relearn,27,810,B,66.17848321964485,34.939089849458234,3.308924160982242,0.5488219399708585,A,2396,Incorrect
1,relearn,27,811,B,78.5790693741888,51.64822335874998,3.92895346870944,0.8112883953740686,B,703,Correct
1,relearn,27,812,B,37.459673731737674,23.796757370200595,1.8729836865868836,0.3737985906674048,A,5668,Incorrect
1,relearn,27,813,A,11.937464174900796,36.333802558089985,0.5968732087450398,0.5707300359673876,A,675,Correct
1,relearn,27,814,B,79.94262497803794,58.82818505598553,3.997131248901897,0.924070969979525,A,772,Incorrect
1,relearn,27,815,A,38.38224448241881,70.95460407487758,1.9191122241209404,1.1145523145000389,A,512,Correct
1,relearn,27,816,B,78.1128469816278,49.6396029959583,3.90564234908139,0.7797370604960823,B,360,Correct
1,relearn,27,817,B,42.93853661898471,32.14668470232993,2.1469268309492353,0.5049589424905354,B,853,Correct
1,relearn,27,818,A,46.154185143499014,70.31806678206544,2.3077092571749507,1.1045536100858662,A,550,Correct
1,relearn,27,819,B,45.89614419571701,28.53837569908904,2.29480720978585,0.448279757208218,A,693,Incorrect
1,relearn,27,820,B,52.55070966577675,37.540542580597425,2.627535483288838,0.5896854639148985,A,780,Incorrect
1,relearn,27,821,A,33.9583010821084,53.800825400571775,1.6979150541054198,0.8451013891775171,A,537,Correct
1,relearn,27,822,A,28.749971778777137,45.42571221146685,1.437498588938857,0.7135454188381422,A,633,Correct
1,relearn,27,823,B,37.48516288752977,22.573429664999402,1.8742581443764885,0.35458260400944014,B,1216,Correct
1,relearn,27,824,B,40.444955911147574,18.031076609848725,2.0222477955573788,0.2832314890690775,A,761,Incorrect
1,relearn,27,825,A,37.92141356212311,63.51653498276827,1.8960706781061554,0.9977153984167194,A,617,Correct
1,relearn,27,826,A,18.01334325726853,40.46115777395716,0.9006671628634265,0.6355623800920068,A,658,Correct
1,relearn,27,827,A,17.373224916687736,41.92397975915185,0.8686612458343868,0.6585403341029932,A,930,Correct
1,relearn,27,828,A,28.29752764607675,40.44033695319324,1.4148763823038377,0.6352353274042386,B,565,Incorrect
1,relearn,27,829,A,26.86335723998205,56.65176227216765,1.3431678619991028,0.8898838008357866,A,538,Correct
1,relearn,27,830,B,77.4325365002751,54.519069281748045,3.871626825013755,0.8563835376804629,B,715,Correct
1,relearn,27,831,B,45.83772053896063,37.588638552541745,2.2918860269480317,0.5904409536755361,A,513,Incorrect
1,relearn,27,832,A,37.19669933577871,68.93881643384766,1.8598349667889353,1.0828883962787557,A,611,Correct
1,relearn,27,833,A,42.256405237444284,70.11855924919438,2.1128202618722143,1.1014197530878485,B,683,Incorrect
1,relearn,27,834,A,66.72796716994485,89.6879235446532,3.3363983584972425,1.4088146086180278,A,792,Correct
1,relearn,27,835,A,22.107855971464865,35.99959875996607,1.1053927985732432,0.5654803749824482,A,617,Correct
1,relearn,27,836,B,49.29831872524257,18.72670213426344,2.4649159362621282,0.29415834925483164,B,714,Correct
1,relearn,27,837,B,76.6167907447977,47.488394100773775,3.8308395372398847,0.7459459501888388,A,513,Incorrect
1,relearn,27,838,A,65.79548610399206,84.11294370009624,3.289774305199603,1.321243030000171,B,448,Incorrect
1,relearn,27,839,B,60.334640275162265,35.82810768368961,3.0167320137581135,0.5627865994555166,A,328,Incorrect
1,relearn,27,840,A,56.914756410286934,84.05906673742884,2.8457378205143464,1.320396732649603,B,490,Incorrect
1,relearn,27,841,A,42.85663481694057,73.08888565288642,2.1428317408470288,1.1480775311308622,A,363,Correct
1,relearn,27,842,B,34.677666902916485,19.28059077070893,1.7338833451458242,0.3028588116106517,B,772,Correct
1,relearn,27,843,B,39.577838315482396,29.13809198960591,1.9788919157741196,0.4577000786708476,A,811,Incorrect
1,relearn,27,844,B,40.601461533113074,26.492277602334703,2.0300730766556536,0.4161397234617806,B,490,Correct
1,relearn,27,845,A,22.874250156985283,52.22749423171605,1.1437125078492643,0.8203875609688122,A,615,Correct
1,relearn,27,846,A,26.474412452992745,40.514394627299964,1.3237206226496372,0.6363986226288167,B,693,Incorrect
1,relearn,27,847,B,44.80092409640635,22.880523609939267,2.240046204820317,0.3594064244163651,A,475,Incorrect
1,relearn,27,848,A,36.99042454168905,63.11889148649084,1.8495212270844525,0.9914692289834548,B,710,Incorrect
1,relearn,27,849,B,75.6909394834845,54.431387614679,3.784546974174225,0.85500623727487,A,590,Incorrect
1,relearn,27,850,B,51.653831162041584,39.84439717838113,2.582691558102079,0.6258743273115801,B,583,Correct
1,relearn,27,851,B,32.25465541017351,11.141946225813058,1.6127327705086756,0.17501728204853415,A,604,Incorrect
1,relearn,27,852,A,32.245926897933074,46.72558787407378,1.6122963448966539,0.7339638179992725,A,463,Correct
1,relearn,27,853,A,39.89956468497044,55.12575838861494,1.994978234248522,0.8659133878861931,A,618,Correct
1,relearn,27,854,A,56.964585638713814,82.94845407520503,2.8482292819356907,1.3029512697464722,B,766,Incorrect
1,relearn,27,855,B,59.48724868082809,50.630075008213566,2.9743624340414043,0.7952953584825196,A,671,Incorrect
1,relearn,27,856,A,58.02280075935244,77.10624340116085,2.901140037967622,1.211182039074967,A,1746,Correct
1,relearn,27,857,A,17.009908794562943,43.676993474538904,0.8504954397281472,0.6860766091525037,A,892,Correct
1,relearn,27,858,B,47.743810457095165,20.877014768811907,2.387190522854758,0.32793538113292553,B,1372,Correct
1,relearn,27,859,A,14.814959461486232,30.981642648144422,0.7407479730743117,0.4866585046977737,A,600,Correct
1,relearn,27,860,A,28.930176120398446,59.39246719300961,1.4465088060199225,0.9329346930606589,B,1073,Incorrect
1,relearn,27,861,A,54.38032247564726,61.617355254323506,2.7190161237823633,0.9678831530030757,A,378,Correct
1,relearn,27,862,A,23.416219626022794,46.19518960711953,1.1708109813011398,0.7256323415045715,A,850,Correct
1,relearn,27,863,B,53.57537772012859,33.755233363599224,2.67876888600643,0.530225965776462,B,645,Correct
1,relearn,27,864,A,22.171160057577158,39.31013975786934,1.1085580028788578,0.6174822313745518,A,566,Correct
1,relearn,27,865,B,38.69818268807945,26.0017058522742,1.9349091344039724,0.40843384043153674,B,699,Correct
1,relearn,27,866,A,62.95661449788271,81.07792377250405,3.1478307248941353,1.27356904846006,A,554,Correct
1,relearn,27,867,A,11.477327880814322,33.09932956479887,0.573866394040716,0.5199230529975979,A,536,Correct
1,relearn,27,868,A,47.31815141650242,75.1062485634207,2.365907570825121,1.1797661936276573,B,537,Incorrect
1,relearn,27,869,A,54.0506396704467,68.49952066103221,2.7025319835223347,1.0759879544156052,A,534,Correct
1,relearn,27,870,B,49.94132498655773,30.995182661873695,2.4970662493278866,0.4868711907360806,A,435,Incorrect
1,relearn,27,871,A,52.31894215356769,59.92225335841472,2.6159471076783847,0.94125655468671,B,3422,Incorrect
1,relearn,27,872,A,44.26152370348334,70.50892102696523,2.213076185174167,1.1075515415542843,A,900,Correct
1,relearn,27,873,B,48.66072886688249,34.94992299155076,2.4330364433441245,0.5489921065689244,B,1237,Correct
1,relearn,27,874,A,24.790592562655416,52.86054063356158,1.2395296281327708,0.830331430595909,A,653,Correct
1,relearn,27,875,A,51.98529000628463,82.64750882362355,2.5992645003142316,1.298224032788967,A,2839,Correct
1,relearn,27,876,B,76.20061914180822,49.755834685833335,3.8100309570904107,0.7815628236112111,B,591,Correct
1,relearn,27,877,B,71.33939899422893,44.66060723486493,3.5669699497114467,0.7015271779695542,A,815,Incorrect
1,relearn,27,878,B,79.24192898733213,51.91434869308954,3.9620964493666064,0.8154686823505449,B,726,Correct
1,relearn,27,879,B,60.61629006475384,30.150814109373687,3.0308145032376923,0.4736078805287993,A,622,Incorrect
1,relearn,27,880,A,19.876462439060884,40.15023507632337,0.9938231219530442,0.6306784177784036,B,436,Incorrect
1,relearn,27,881,A,58.5538375216115,84.87570273035328,2.927691876080575,1.333224420829745,A,679,Correct
1,relearn,27,882,B,49.096810236731024,27.98593505093887,2.4548405118365513,0.43960203979935325,A,817,Incorrect
1,relearn,27,883,B,47.208345315689584,33.4212413671708,2.3604172657844793,0.5249796317647755,A,716,Incorrect
1,relearn,27,884,A,21.29023517562227,42.54482114928524,1.0645117587811135,0.6682924878544309,A,548,Correct
1,relearn,27,885,A,27.061884470141514,40.14946670763751,1.3530942235070755,0.6306663482713097,B,901,Incorrect
1,relearn,27,886,B,57.94154337567282,26.91318719050027,2.897077168783641,0.42275135581181283,A,974,Incorrect
1,relearn,27,887,A,27.421000167965456,36.99782709174764,1.3710500083982728,0.5811605089510989,A,575,Correct
1,relearn,27,888,B,48.97166873654567,26.87167806124145,2.4485834368272834,0.42209933193413074,B,1279,Correct
1,relearn,27,889,B,71.35596846239005,59.02849493596537,3.5677984231195023,0.9272174302164556,A,754,Incorrect
1,relearn,27,890,B,50.96181393077612,19.68373884031513,2.548090696538806,0.3091914466795704,A,702,Incorrect
1,relearn,27,891,B,62.40064199981247,50.96059009309781,3.1200320999906235,0.8004870772953843,B,791,Correct
1,relearn,27,892,A,52.644823128382406,60.32053873899176,2.6322411564191204,0.9475128068149752,B,617,Incorrect
1,relearn,27,893,A,12.633318646701536,31.45530233888144,0.6316659323350768,0.4940987337213789,A,575,Correct
1,relearn,27,894,A,36.53160673871038,65.46907897353705,1.826580336935519,1.02838588770277,B,667,Incorrect
1,relearn,27,895,B,72.16321923993692,47.4506654345791,3.608160961996846,0.7453533096861041,A,730,Incorrect
1,relearn,27,896,B,55.21783816782568,44.703153437220585,2.7608919083912844,0.7021954921533475,B,629,Correct
1,relearn,27,897,A,22.190049059545938,39.3855502506286,1.109502452977297,0.6186667766248322,A,574,Correct
1,relearn,27,898,A,31.230513143152535,41.47866091192161,1.5615256571576268,0.6515452820081751,B,716,Incorrect
