experiment,condition,subject,trial,cat,x,y,xt,yt,resp,rt,fb
1,new_learn,28,0,B,68.80371257590139,37.044922237950956,3.4401856287950694,0.5819002777777593,B,915,Correct
1,new_learn,28,1,B,71.14087510101587,52.01050629865104,3.557043755050793,0.8169791224866387,B,563,Correct
1,new_learn,28,2,B,46.99131927096122,16.74568386456764,2.349565963548061,0.2630405870413141,B,1151,Correct
1,new_learn,28,3,B,39.6482209798978,26.505257561349353,1.98241104899489,0.4163436121812023,B,681,Correct
1,new_learn,28,4,A,69.83847770900812,88.08775471331612,3.4919238854504058,1.3836792153928679,A,1405,Correct
1,new_learn,28,5,A,20.750490571161535,40.52650012127194,1.0375245285580768,0.6365887752834689,B,854,Incorrect
1,new_learn,28,6,A,54.81036049830639,79.51567269585777,2.7405180249153194,1.2490292659327864,A,1800,Correct
1,new_learn,28,7,B,45.32233032237401,32.07211575258344,2.2661165161187005,0.5037876161669881,B,880,Correct
1,new_learn,28,8,A,22.78670897059228,52.9244191477729,1.139335448529614,0.8313348319507518,A,1129,Correct
1,new_learn,28,9,A,45.91385037244591,56.611168559358255,2.295692518622295,0.8892461562860668,B,770,Incorrect
1,new_learn,28,10,A,34.145662046303435,46.11664695332109,1.7072831023151718,0.7243985963837383,A,1995,Correct
1,new_learn,28,11,B,58.592023160846,47.662500203175945,2.9296011580423,0.7486808024500978,B,908,Correct
1,new_learn,28,12,B,69.3973707944097,39.44508612420519,3.469868539720485,0.6196019639400986,B,926,Correct
1,new_learn,28,13,B,67.11958976658943,57.11750706179524,3.3559794883294716,0.8971997028834952,B,946,Correct
1,new_learn,28,14,B,56.38405190287554,32.19041129642725,2.8192025951437767,0.5056457982244488,B,1361,Correct
1,new_learn,28,15,B,76.87991953740666,46.40143300052293,3.843995976870333,0.728872005152409,B,1403,Correct
1,new_learn,28,16,A,20.185996646080216,50.6272787068249,1.0092998323040108,0.7952514342830205,A,484,Correct
1,new_learn,28,17,B,73.15235755668546,49.74068304495478,3.657617877834273,0.7813248221928415,B,719,Correct
1,new_learn,28,18,A,57.705229197105595,72.77110886862809,2.88526145985528,1.1430859050763251,B,1033,Incorrect
1,new_learn,28,19,B,75.90365947785023,51.243681760338184,3.795182973892511,0.8049338708058587,B,1076,Correct
1,new_learn,28,20,B,34.17090717860721,13.806587974179749,1.7085453589303603,0.21687337675412144,B,975,Correct
1,new_learn,28,21,A,61.54955748653534,84.55731799374362,3.077477874326767,1.328223245082005,A,937,Correct
1,new_learn,28,22,A,35.67696909728653,61.47167199223343,1.7838484548643265,0.9655947656734101,A,737,Correct
1,new_learn,28,23,A,53.886248437950066,67.38576584636932,2.694312421897503,1.0584931346973792,B,652,Incorrect
1,new_learn,28,24,A,43.03867577188225,51.88740783674001,2.1519337885941123,0.8150454963685994,B,816,Incorrect
1,new_learn,28,25,B,55.82676257335834,38.89872216177615,2.791338128667917,0.6110196988873321,B,915,Correct
1,new_learn,28,26,A,27.012498098683977,41.06544642109895,1.350624904934199,0.6450545239645485,A,653,Correct
1,new_learn,28,27,A,21.685744921045362,45.13605177148134,1.0842872460522681,0.7089954432866717,A,725,Correct
1,new_learn,28,28,B,48.87146068325209,28.765580104793898,2.4435730341626045,0.4518486756673461,B,1113,Correct
1,new_learn,28,29,A,25.02826235488301,55.069184473047585,1.2514131177441505,0.865024726898537,A,412,Correct
1,new_learn,28,30,B,79.35752045802181,65.93658347927996,3.9678760229010903,1.0357294313065804,B,1176,Correct
1,new_learn,28,31,B,67.61808800622703,45.723783424131376,3.3809044003113513,0.7182275104979094,B,1253,Correct
1,new_learn,28,32,A,45.37854961085215,61.763612550031304,2.268927480542607,0.9701805572317235,A,875,Correct
1,new_learn,28,33,B,36.03427649400286,25.594112233838928,1.801713824700143,0.40203137484490514,A,965,Incorrect
1,new_learn,28,34,A,48.0193392015896,55.25484031643864,2.4009669600794803,0.8679410020670036,B,828,Incorrect
1,new_learn,28,35,B,44.56572903130097,30.59572977024306,2.2282864515650487,0.4805965993870706,B,740,Correct
1,new_learn,28,36,A,37.613969096747205,54.442296129422814,1.8806984548373604,0.8551775878237736,B,836,Incorrect
1,new_learn,28,37,B,62.79618504224449,41.866276163167335,3.139809252112224,0.6576339281368399,B,609,Correct
1,new_learn,28,38,A,29.914725936481474,49.97168602411674,1.495736296824074,0.7849534085043045,A,684,Correct
1,new_learn,28,39,A,60.384526779816994,86.20944574048605,3.01922633899085,1.354174807041794,A,1799,Correct
1,new_learn,28,40,B,67.65501148601,43.44064175898718,3.3827505743004997,0.6823640050863006,B,987,Correct
1,new_learn,28,41,A,64.80977588174939,77.1155462083081,3.240488794087469,1.2113281672279248,A,1063,Correct
1,new_learn,28,42,B,48.4480278612215,24.386429420584573,2.422401393061075,0.3830611375749724,B,1117,Correct
1,new_learn,28,43,A,46.08069495214298,54.43754157484029,2.3040347476071488,0.8551029034550359,B,716,Incorrect
1,new_learn,28,44,B,65.98821787324886,52.784321315217404,3.2994108936624427,0.8291341803430506,B,1946,Correct
1,new_learn,28,45,A,36.06018206476248,64.35118529100478,1.803009103238124,1.010826054800081,A,763,Correct
1,new_learn,28,46,B,48.9622276237333,19.66586721102734,2.448111381186665,0.30891071978317947,B,3628,Correct
1,new_learn,28,47,A,37.42339480721267,52.12123343597082,1.8711697403606333,0.818718420292423,A,1453,Correct
1,new_learn,28,48,A,23.416990995699354,36.02084747557781,1.1708495497849676,0.5658141490267684,A,678,Correct
1,new_learn,28,49,A,18.107909966151404,44.755478089678704,0.9053954983075702,0.7030174058721678,A,634,Correct
1,new_learn,28,50,B,68.93016370998396,39.34064260360084,3.446508185499198,0.6179613689548702,B,899,Correct
1,new_learn,28,51,A,47.001570070812484,70.31219391610345,2.350078503540624,1.1044613593230577,B,1068,Incorrect
1,new_learn,28,52,A,49.74402023807713,78.3904833861326,2.4872010119038563,1.2313548335861346,B,742,Incorrect
1,new_learn,28,53,A,20.14423082259314,50.11030942558311,1.0072115411296572,0.7871308998026163,A,742,Correct
1,new_learn,28,54,A,37.06505206092962,60.54237781027318,1.8532526030464809,0.9509974467980596,A,783,Correct
1,new_learn,28,55,A,21.727157904809754,37.113323416725436,1.0863578952404878,0.5829747209814333,A,1396,Correct
1,new_learn,28,56,A,49.244441780365236,57.958029590330156,2.462222089018262,0.9104025998876054,A,1194,Correct
1,new_learn,28,57,A,27.052779173236853,37.15177014125533,1.3526389586618428,0.5835786407181219,A,640,Correct
1,new_learn,28,58,A,40.92694206617715,72.5748841517464,2.0463471033088574,1.1400036144312842,A,785,Correct
1,new_learn,28,59,A,39.8774459112257,64.40155117967616,1.9938722955612849,1.0116172003292885,A,633,Correct
1,new_learn,28,60,B,54.473663151507715,28.074382199040528,2.723683157575386,0.440991364352889,B,910,Correct
1,new_learn,28,61,A,45.19942672167393,67.60213521830096,2.2599713360836966,1.0618918568439906,A,1295,Correct
1,new_learn,28,62,A,40.235191895495156,60.26623137968339,2.0117595947747575,0.94665974880978,A,697,Correct
1,new_learn,28,63,A,21.137473528358974,44.8667059768875,1.0568736764179487,0.7047645694388152,A,607,Correct
1,new_learn,28,64,A,60.584206367765944,87.43484934540888,3.029210318388297,1.3734234018563343,A,955,Correct
1,new_learn,28,65,A,33.32596550458936,52.950319294759176,1.6662982752294682,0.8317416705082465,A,733,Correct
1,new_learn,28,66,B,39.08036353772293,16.061350063898463,1.9540181768861464,0.2522910968373869,B,709,Correct
1,new_learn,28,67,B,60.09707078913996,42.80019062518288,3.004853539456998,0.6723038222015864,B,1498,Correct
1,new_learn,28,68,A,19.1461904596694,40.56082307977292,0.9573095229834699,0.6371279190548498,A,626,Correct
1,new_learn,28,69,B,67.40659507690688,44.22683145290745,3.3703297538453443,0.6947134439200401,B,1245,Correct
1,new_learn,28,70,A,11.58389523511213,37.30505423912718,0.5791947617556066,0.5859864216970536,A,389,Correct
1,new_learn,28,71,A,48.825722195489625,70.22751147684077,2.4412861097744813,1.1031311706776794,A,1729,Correct
1,new_learn,28,72,B,49.707188719056035,25.331226783534945,2.4853594359528017,0.39790197984785197,B,796,Correct
1,new_learn,28,73,B,32.59754926728449,13.937081305474177,1.6298774633642246,0.2189231612088066,B,670,Correct
1,new_learn,28,74,A,44.3297927372113,69.19098041023327,2.216489636860565,1.0868493787573206,A,1016,Correct
1,new_learn,28,75,B,64.57256160488664,51.44001016687591,3.228628080244332,0.808017790204208,B,1409,Correct
1,new_learn,28,76,B,45.77344848051878,35.76098908763089,2.288672424025939,0.5617323030140298,A,3822,Incorrect
1,new_learn,28,77,A,59.80153537433675,86.01521644721423,2.990076768716838,1.351123860437521,A,962,Correct
1,new_learn,28,78,B,51.36410397176678,33.00113016469315,2.568205198588339,0.5183805404278027,B,775,Correct
1,new_learn,28,79,A,49.92511787856301,78.89110467250568,2.4962558939281503,1.2392185743636361,A,768,Correct
1,new_learn,28,80,A,34.108523564948364,44.778272711261764,1.7054261782474183,0.7033754629507012,A,688,Correct
1,new_learn,28,81,B,65.15181394176278,38.07656514026537,3.257590697088139,0.5981052865929545,B,1336,Correct
1,new_learn,28,82,A,24.19953702955887,42.01624641839028,1.2099768514779434,0.6599896553971669,A,806,Correct
1,new_learn,28,83,A,11.88106587244891,33.444234907838236,0.5940532936224456,0.5253408134569796,A,744,Correct
1,new_learn,28,84,B,78.86380005855074,47.697475020588456,3.943190002927537,0.7492301855973167,A,845,Incorrect
1,new_learn,28,85,B,63.07399768125258,53.51849723967671,3.153699884062629,0.8406665887966699,A,1188,Incorrect
1,new_learn,28,86,B,78.91696025225072,65.3729611679858,3.9458480126125357,1.0268760727437751,B,636,Correct
1,new_learn,28,87,B,76.94258876093431,45.50140760762416,3.8471294380467156,0.7147344393405338,B,526,Correct
1,new_learn,28,88,B,40.84605711594426,29.627755105709326,2.042302855797213,0.46539168891226956,A,887,Incorrect
1,new_learn,28,89,A,54.38704812443136,69.02237172223046,2.719352406221568,1.0842008796795155,B,384,Incorrect
1,new_learn,28,90,B,50.72970214701903,40.27268443422364,2.5364851073509516,0.632601847794485,B,597,Correct
1,new_learn,28,91,B,61.97800105881576,40.093259341826005,3.0989000529407877,0.6297834450337545,B,494,Correct
1,new_learn,28,92,B,67.7488700417328,41.01783145408894,3.38744350208664,0.6443065898117507,B,598,Correct
1,new_learn,28,93,A,51.708052350828765,81.13082575603728,2.5854026175414386,1.2744000308742014,A,664,Correct
1,new_learn,28,94,A,26.92639194689808,52.16156400121923,1.346319597344904,0.8193519313299209,A,840,Correct
1,new_learn,28,95,A,54.34154274320353,69.18809776022283,2.7170771371601767,1.0868040981968423,A,789,Correct
1,new_learn,28,96,B,49.14389332425263,38.18744903572861,2.4571946662126316,0.5998470467498981,B,469,Correct
1,new_learn,28,97,B,38.821350863863145,27.801781893639475,1.9410675431931572,0.43670936876881755,B,665,Correct
1,new_learn,28,98,B,71.62551034424222,38.48708376118755,3.581275517212111,0.6045536980112091,B,1311,Correct
1,new_learn,28,99,B,51.38079961584253,33.52366780318585,2.5690399807921263,0.5265885424593667,B,648,Correct
1,new_learn,28,100,B,43.76764228186542,30.333168656237437,2.188382114093271,0.47647229905267857,B,442,Correct
1,new_learn,28,101,B,64.29663413796706,37.014395940866606,3.2148317068983534,0.5814207718244521,B,508,Correct
1,new_learn,28,102,A,49.95392641215317,60.00858880636461,2.4976963206076586,0.9426127087318286,B,725,Incorrect
1,new_learn,28,103,A,15.185424249948348,44.607825571728874,0.7592712124974174,0.7006980855437918,A,686,Correct
1,new_learn,28,104,B,56.31579624216586,40.199862675883935,2.8157898121082927,0.6314579662893774,B,1448,Correct
1,new_learn,28,105,B,73.02903183787969,42.41714479642168,3.6514515918939843,0.6662869523934644,B,698,Correct
1,new_learn,28,106,A,45.27847660569064,74.52778899980753,2.263923830284532,1.1706797720504278,A,1146,Correct
1,new_learn,28,107,A,44.77039514606698,72.09293361781992,2.238519757303349,1.1324331531473986,A,743,Correct
1,new_learn,28,108,B,48.051695243006655,34.64696719681555,2.4025847621503327,0.5442332880734114,B,717,Correct
1,new_learn,28,109,B,41.88167007186953,21.499998586726264,2.0940835035934766,0.33772118806125084,B,672,Correct
1,new_learn,28,110,A,35.07217231757566,46.094075857368566,1.7536086158787827,0.7240440504375986,B,1251,Incorrect
1,new_learn,28,111,A,53.3916346910669,80.3978922323164,2.669581734553345,1.2628871380057456,B,628,Incorrect
1,new_learn,28,112,B,55.38470335284239,38.06573047796318,2.76923516764212,0.597935096115491,B,1211,Correct
1,new_learn,28,113,A,63.78858890063013,76.29979517017135,3.189429445031507,1.1985143798850815,A,851,Correct
1,new_learn,28,114,B,68.87893163483157,58.14463152919276,3.443946581741579,0.9133337362889871,A,426,Incorrect
1,new_learn,28,115,A,27.54586505791898,38.7642870483354,1.377293252895949,0.6089079970634822,B,751,Incorrect
1,new_learn,28,116,A,62.41465849525852,84.90055022572523,3.1207329247629265,1.3336147243743481,A,1557,Correct
1,new_learn,28,117,B,61.57611171758933,39.42729676700726,3.0788055858794667,0.619322529370673,B,735,Correct
1,new_learn,28,118,A,29.953142282977453,56.46854262493612,1.4976571141488728,0.887005793347107,A,986,Correct
1,new_learn,28,119,B,89.19035257023575,66.86628335312902,4.4595176285117875,1.0503331227752182,B,1830,Correct
1,new_learn,28,120,B,49.10559604367713,36.67877579213644,2.4552798021838567,0.5761488628562149,B,3385,Correct
1,new_learn,28,121,B,85.22842696017264,64.47148668138938,4.261421348008632,1.0127157446213255,B,1686,Correct
1,new_learn,28,122,A,46.7859864329545,70.46906587807915,2.339299321647725,1.1069254983395433,A,2149,Correct
1,new_learn,28,123,B,64.56478139665994,47.41579398552012,3.228239069832997,0.7448055502451856,B,1628,Correct
1,new_learn,28,124,B,38.6787897503437,11.868137127900859,1.933939487517185,0.186424262064048,B,958,Correct
1,new_learn,28,125,B,75.70853896133961,56.81085498791586,3.7854269480669807,0.8923828233709575,B,1203,Correct
1,new_learn,28,126,B,42.84406523765173,18.37927811121101,2.1422032618825866,0.288701025462321,B,939,Correct
1,new_learn,28,127,A,45.38976792185484,66.15783293377925,2.269488396092742,1.0392048096109088,B,1198,Incorrect
1,new_learn,28,128,A,32.23060618501003,63.57076893768857,1.6115303092505016,0.998567303388483,A,900,Correct
1,new_learn,28,129,A,23.763101528995048,42.76374187045171,1.1881550764497524,0.6717312865011067,A,2153,Correct
1,new_learn,28,130,B,82.83359798075026,68.03278359105981,4.141679899037513,1.0686564656646884,B,1407,Correct
1,new_learn,28,131,A,47.23643886403139,67.61513439050982,2.3618219432015697,1.0620960473635612,B,699,Incorrect
1,new_learn,28,132,B,81.28796792829682,51.016061280062814,4.064398396414841,0.8013584166626602,B,1051,Correct
1,new_learn,28,133,A,41.34266778546388,58.87511179606181,2.067133389273194,0.9248080934889278,A,1578,Correct
1,new_learn,28,134,B,47.81090123300566,25.18805340533749,2.390545061650283,0.39565301768217814,B,912,Correct
1,new_learn,28,135,A,60.54301290899633,81.88042686203298,3.0271506454498165,1.2861747375127957,100,799,Incorrect
1,new_learn,28,136,A,42.72533550655421,57.76127820871584,2.1362667753277105,0.9073120364122894,B,769,Incorrect
1,new_learn,28,137,B,54.61087068353108,37.796879744678954,2.730543534176554,0.5937119986725012,B,1319,Correct
1,new_learn,28,138,B,71.42690966173087,43.93783440392322,3.5713454830865436,0.6901738888900504,B,942,Correct
1,new_learn,28,139,A,16.827971182281637,33.62097798544399,0.8413985591140818,0.528117087227875,A,724,Correct
1,new_learn,28,140,A,32.488440673781284,58.6547757039385,1.624422033689064,0.9213470622472512,A,943,Correct
1,new_learn,28,141,B,69.06051363746897,59.308274658518144,3.453025681873448,0.9316121998214315,B,778,Correct
1,new_learn,28,142,A,34.48079253405418,45.02422023305364,1.7240396267027092,0.7072387975888512,A,1040,Correct
1,new_learn,28,143,B,83.58373997565651,63.62372523238419,4.179186998782826,0.9993991389203686,B,1080,Correct
1,new_learn,28,144,A,34.608998944340996,42.323542258790894,1.73044994721705,0.6648166471705731,B,740,Incorrect
1,new_learn,28,145,B,67.27440639328411,47.958280087983745,3.363720319664205,0.753326902016057,B,2507,Correct
1,new_learn,28,146,B,78.78138599622889,58.67548806554615,3.9390692998114445,0.9216724112625769,B,990,Correct
1,new_learn,28,147,B,72.0399707930573,62.7515551829506,3.6019985396528647,0.9856991238204604,B,603,Correct
1,new_learn,28,148,B,72.42276953584057,41.80211001493927,3.6211384767920287,0.6566260086374277,B,559,Correct
1,new_learn,28,149,A,38.9188845013443,48.384401089840566,1.9459442250672152,0.7600203950609254,A,592,Correct
1,new_learn,28,150,A,35.00965520666824,59.736093878125295,1.750482760333412,0.9383323684083431,A,450,Correct
1,new_learn,28,151,B,70.08207322081344,57.10089638395318,3.5041036610406717,0.8969387829660963,B,723,Correct
1,new_learn,28,152,B,36.29105561597987,22.580032270341576,1.8145527807989936,0.3546863174916277,B,907,Correct
1,new_learn,28,153,A,31.368999227916255,60.61286866811993,1.5684499613958127,0.9521047146038427,A,1187,Correct
1,new_learn,28,154,B,61.63090819048915,42.70078298403293,3.0815454095244577,0.6707423306258495,B,983,Correct
1,new_learn,28,155,B,59.571296927571,29.734272369126096,2.97856484637855,0.46706485817342264,B,914,Correct
1,new_learn,28,156,A,55.213948832891575,63.75902528572399,2.7606974416445786,1.0015244271883819,B,1039,Incorrect
1,new_learn,28,157,B,48.524877327486024,25.830980929438944,2.426243866374301,0.40575209961471714,B,733,Correct
1,new_learn,28,158,B,74.89386746285662,44.95340442901828,3.744693373142831,0.7061264255402735,B,660,Correct
1,new_learn,28,159,B,82.49959551810652,62.29299387868561,4.1249797759053255,0.9784960596969632,B,1271,Correct
1,new_learn,28,160,A,55.93670187416217,74.1155531915695,2.7968350937081086,1.1642043871168914,B,795,Incorrect
1,new_learn,28,161,B,74.83702979540236,51.73124781288209,3.7418514897701183,0.812592540449917,B,683,Correct
1,new_learn,28,162,B,80.32609862247097,56.19063366128384,4.016304931123548,0.8826404095542232,B,1373,Correct
1,new_learn,28,163,A,65.50042929318121,88.76972085839695,3.2750214646590607,1.3943915145497825,A,965,Correct
1,new_learn,28,164,B,53.984420844821436,27.20885380033161,2.6992210422410716,0.4273956760586025,B,1400,Correct
1,new_learn,28,165,A,66.42706751012433,88.95157864246644,3.3213533755062166,1.3972481299419366,A,842,Correct
1,new_learn,28,166,B,79.75226677495847,48.312951299090315,3.9876133387479236,0.758898064372318,B,965,Correct
1,new_learn,28,167,A,25.214063765019937,49.67382853419597,1.260703188250997,0.7802746739935454,A,812,Correct
1,new_learn,28,168,B,45.8705869600483,33.232626659604975,2.293529348002415,0.5220168788665365,B,762,Correct
1,new_learn,28,169,A,23.12635720950965,36.19893227236547,1.1563178604754825,0.5686114984732892,B,815,Incorrect
1,new_learn,28,170,B,74.04001278151549,52.96701586393217,3.7020006390757745,0.8320039396035167,B,741,Correct
1,new_learn,28,171,A,22.476888498244573,43.34096331216337,1.1238444249122288,0.6807982597049859,A,515,Correct
1,new_learn,28,172,A,42.75022518396518,62.563616313576574,2.137511259198259,0.9827469869637135,B,913,Incorrect
1,new_learn,28,173,B,69.3716472160873,53.06170742535856,3.4685823608043647,0.8334913511721871,B,782,Correct
1,new_learn,28,174,B,69.62139909993212,44.4090653366393,3.4810699549966055,0.6975759670718759,B,714,Correct
1,new_learn,28,175,A,41.95636482457548,66.69081693580549,2.097818241228774,1.0475769027371415,A,637,Correct
1,new_learn,28,176,B,70.01601823688159,60.67863196490074,3.5008009118440793,0.9531377220540549,B,801,Correct
1,new_learn,28,177,B,67.71757812590992,44.786652619860746,3.3858789062954964,0.703507094247163,B,757,Correct
1,new_learn,28,178,B,75.69289718691019,59.43113490807259,3.784644859345509,0.9335420841085238,B,877,Correct
1,new_learn,28,179,A,62.70823818706508,80.59442805697928,3.135411909353254,1.265974315520386,B,1315,Incorrect
1,new_learn,28,180,B,50.789089084857345,37.366421623299544,2.5394544542428674,0.5869503783134832,B,774,Correct
1,new_learn,28,181,A,64.4388427536795,88.60621548896906,3.221942137683975,1.3918231782126966,A,796,Correct
1,new_learn,28,182,A,13.905687221267335,38.77844559326619,0.6952843610633667,0.6091303989671828,A,790,Correct
1,new_learn,28,183,A,16.557668618499207,42.083652952345325,0.8278834309249603,0.6610484747565525,A,533,Correct
1,new_learn,28,184,A,37.90066389838118,62.4062410077056,1.8950331949190593,0.9802749414398101,A,981,Correct
1,new_learn,28,185,B,65.50372576507513,46.498154559177266,3.275186288253757,0.7303913038429702,B,1759,Correct
1,new_learn,28,186,A,36.756692321121456,44.5598214104497,1.8378346160560728,0.6999440379417098,A,747,Correct
1,new_learn,28,187,B,66.98354072284656,50.98866889867189,3.349177036142328,0.8009281381419499,B,694,Correct
1,new_learn,28,188,B,61.539730050139106,31.8261684452037,3.0769865025069554,0.4999242848968161,A,970,Incorrect
1,new_learn,28,189,B,64.52259642266647,53.780751348177844,3.2261298211333234,0.8447860666998745,B,723,Correct
1,new_learn,28,190,A,29.648494740406186,59.00025694506127,1.4824247370203094,0.9267738688925732,A,847,Correct
1,new_learn,28,191,B,80.06885194848098,59.90403314941922,4.0034425974240495,0.9409703523130742,B,1250,Correct
1,new_learn,28,192,A,46.47454061846415,75.36596425437563,2.3237270309232074,1.183845798161287,A,1336,Correct
1,new_learn,28,193,A,21.418823169626258,38.33455853962561,1.0709411584813129,0.6021578374334785,A,778,Correct
1,new_learn,28,194,B,31.637685601488126,16.19687848289114,1.5818842800744062,0.254419972264687,B,1405,Correct
1,new_learn,28,195,A,17.268119700412335,35.76877836735804,0.8634059850206168,0.5618546567338677,A,1584,Correct
1,new_learn,28,196,B,61.73949777582929,34.31519871873302,3.086974888791465,0.5390218810062277,B,1961,Correct
1,new_learn,28,197,B,50.999484040216835,21.08203894473141,2.5499742020108416,0.3311558933573105,B,1120,Correct
1,new_learn,28,198,A,37.80829227738153,65.53107764351668,1.8904146138690765,1.0293597605334717,A,915,Correct
1,new_learn,28,199,A,57.46846086193911,86.34951217700508,2.873423043096955,1.3563749654817079,A,1636,Correct
1,new_learn,28,200,B,67.30923024380137,35.38510697083176,3.3654615121900684,0.5558279605302701,B,1099,Correct
1,new_learn,28,201,A,59.20735009563604,86.78069763541895,2.960367504781802,1.3631480108241463,A,945,Correct
1,new_learn,28,202,A,44.248731876058905,73.65058786225804,2.2124365938029453,1.1569007288031972,B,1665,Incorrect
1,new_learn,28,203,A,42.642362281025726,50.43874418684791,2.1321181140512864,0.7922899409684815,A,1335,Correct
1,new_learn,28,204,B,73.32382989664868,42.67467396899532,3.666191494832434,0.6703322111766764,B,929,Correct
1,new_learn,28,205,B,39.498201972771696,28.443561642318755,1.974910098638585,0.4467904214871852,B,1206,Correct
1,new_learn,28,206,B,41.478129797729615,27.771429943595457,2.0739064898864807,0.43623260145241544,B,1254,Correct
1,new_learn,28,207,A,44.44301913974507,60.12521113283945,2.2221509569872535,0.9444446079523184,B,1964,Incorrect
1,new_learn,28,208,A,48.771775821705475,66.35607660925994,2.438588791085274,1.0423188139834627,B,872,Incorrect
1,new_learn,28,209,A,35.69167206065907,59.941060411553714,1.7845836030329536,0.9415519751865956,B,1512,Incorrect
1,new_learn,28,210,A,18.133357181776724,39.98314085057492,0.9066678590888361,0.6280537078180605,A,798,Correct
1,new_learn,28,211,B,46.89559785843974,33.79286028084509,2.344779892921987,0.5308170080104463,B,979,Correct
1,new_learn,28,212,A,37.04759179669311,46.055201858728275,1.8523795898346556,0.7234334190948786,A,863,Correct
1,new_learn,28,213,B,33.80822909814076,21.297237557031135,1.690411454907038,0.33453622525462823,B,806,Correct
1,new_learn,28,214,A,52.60864290381742,61.372089922372865,2.6304321451908708,0.9640305341778937,B,1464,Incorrect
1,new_learn,28,215,A,16.026831728084634,44.034488972794634,0.8013415864042317,0.6916921353075619,A,512,Correct
1,new_learn,28,216,A,37.720947639416664,56.12760362734813,1.8860473819708332,0.8816503360963835,A,2116,Correct
1,new_learn,28,217,A,43.76250258372398,62.97756082418492,2.188125129186199,0.9892492121313186,A,1303,Correct
1,new_learn,28,218,B,77.24798883019194,53.40607460163567,3.8623994415095972,0.8389006581278355,B,1520,Correct
1,new_learn,28,219,B,71.44398442124358,57.09938229196915,3.5721992210621796,0.8969149996648269,B,730,Correct
1,new_learn,28,220,B,63.11959828284309,43.82929810019448,3.1559799141421547,0.6884690046178403,B,857,Correct
1,new_learn,28,221,B,41.92225514177213,14.353027002830416,2.0961127570886067,0.2254568209443398,B,928,Correct
1,new_learn,28,222,A,62.551477715978066,79.89116938259333,3.1275738857989035,1.2549275540952651,A,1257,Correct
1,new_learn,28,223,A,17.843495966114922,39.285018040422635,0.8921747983057461,0.6170876203596711,A,665,Correct
1,new_learn,28,224,A,27.38883681209238,58.13018182609618,1.3694418406046192,0.9131067608835133,A,1261,Correct
1,new_learn,28,225,A,30.404465206974848,51.18275983085132,1.5202232603487424,0.8039769113752663,A,1306,Correct
1,new_learn,28,226,B,69.7409989882499,49.314667620894134,3.4870499494124947,0.7746329875601172,B,1987,Correct
1,new_learn,28,227,A,23.96231085799683,55.87163682277006,1.1981155428998413,0.877629618932257,A,3290,Correct
1,new_learn,28,228,B,58.75240401882412,28.104147088076054,2.937620200941206,0.44145891013653354,B,995,Correct
1,new_learn,28,229,B,72.80241953975805,55.85900029457768,3.640120976987902,0.8774311248115765,B,998,Correct
1,new_learn,28,230,B,51.191520387338954,30.36148901080144,2.559576019366948,0.4769171541419052,B,1305,Correct
1,new_learn,28,231,A,31.26766895962566,58.931006979489524,1.5633834479812831,0.9256860929770656,A,1446,Correct
1,new_learn,28,232,A,56.38533663809547,66.72874499654331,2.8192668319047733,1.0481726753220357,B,1374,Incorrect
1,new_learn,28,233,B,64.5257158075748,40.80024991340641,3.2262857903787396,0.6408888269629258,B,798,Correct
1,new_learn,28,234,B,73.11272841221768,47.2871469820216,3.655636420610884,0.7427847678396993,B,1129,Correct
1,new_learn,28,235,B,70.86039680308717,49.71398794085482,3.5430198401543582,0.7809054964782054,B,671,Correct
1,new_learn,28,236,A,21.6229799013756,48.25231077006437,1.08114899506878,0.7579455251698294,A,645,Correct
1,new_learn,28,237,B,43.332677637975124,19.145509666689236,2.166633881898756,0.30073696259051635,B,1026,Correct
1,new_learn,28,238,A,11.2637317437651,32.06901410445879,0.563186587188255,0.5037388955921759,A,704,Correct
1,new_learn,28,239,B,53.321551681189554,40.217834616179246,2.6660775840594777,0.6317402688673901,B,832,Correct
1,new_learn,28,240,B,45.35456798337356,23.392143509884825,2.267728399168678,0.36744293101186154,B,765,Correct
1,new_learn,28,241,A,23.00899289211122,35.30578864697891,1.150449644605561,0.5545820312127143,A,1488,Correct
1,new_learn,28,242,B,57.197302671014235,49.582450000740685,2.8598651335507115,0.7788393033465507,B,1584,Correct
1,new_learn,28,243,B,57.65707942714964,41.602948339427094,2.8828539713574823,0.6534975843540992,B,787,Correct
1,new_learn,28,244,B,54.46650162425169,38.055389766593294,2.7233250812125847,0.5977726646011283,B,606,Correct
1,new_learn,28,245,B,78.3355487939746,54.636982067151834,3.9167774396987296,0.8582357073824074,B,2137,Correct
1,new_learn,28,246,A,39.831770544192956,55.28450460217967,1.9915885272096476,0.8684069675777939,A,850,Correct
1,new_learn,28,247,B,45.402814590751646,37.79576978513089,2.270140729537582,0.5936945634686913,A,860,Incorrect
1,new_learn,28,248,B,55.71459833292497,39.40475151192052,2.7857299166462486,0.618968389331904,B,1701,Correct
1,new_learn,28,249,A,29.47424582533781,51.30070932856328,1.4737122912668905,0.8058296577527989,A,1071,Correct
1,new_learn,28,250,A,45.66028934798452,61.90164612255695,2.283014467399226,0.9723487835187001,B,1180,Incorrect
1,new_learn,28,251,A,35.41155419084192,49.31610092420934,1.7705777095420958,0.7746555018359443,A,808,Correct
1,new_learn,28,252,B,73.86428271948485,54.59215313272115,3.6932141359742423,0.8575315361270288,B,1226,Correct
1,new_learn,28,253,B,70.52290137133556,45.32698017445094,3.5261450685667786,0.7119945396273263,B,776,Correct
1,new_learn,28,254,B,45.43343135548737,16.615213789702526,2.2716715677743684,0.26099116789776644,B,888,Correct
1,new_learn,28,255,A,56.065093149638315,85.10318210125973,2.8032546574819155,1.3367976584321597,A,872,Correct
1,new_learn,28,256,A,69.40520063267644,88.22381204609539,3.470260031633822,1.3858163989784997,A,653,Correct
1,new_learn,28,257,B,44.83904337101446,28.1982841227707,2.241952168550723,0.44293761121967073,B,718,Correct
1,new_learn,28,258,B,58.61832462688793,43.986655226647855,2.9309162313443964,0.6909407645801199,B,923,Correct
1,new_learn,28,259,B,47.75636013087248,40.368353326735935,2.387818006543624,0.6341046112439536,B,718,Correct
1,new_learn,28,260,B,62.518356523512814,47.509678421704656,3.125917826175641,0.7462802835202043,B,758,Correct
1,new_learn,28,261,A,22.68499673086577,40.0083892005336,1.1342498365432885,0.6284503079717878,A,914,Correct
1,new_learn,28,262,B,79.93064988618745,57.721821757625065,3.9965324943093723,0.9066922559278718,B,1397,Correct
1,new_learn,28,263,A,23.0180339467321,47.90553146598266,1.150901697336605,0.752498328599229,A,619,Correct
1,new_learn,28,264,B,74.1735550116496,44.22646983783235,3.7086777505824795,0.6947077636837234,B,806,Correct
1,new_learn,28,265,A,38.60643597136453,46.81671004131579,1.9303217985682266,0.7353951616552059,B,678,Incorrect
1,new_learn,28,266,B,59.24546474350149,47.46298624522967,2.962273237175075,0.7455468445272346,B,825,Correct
1,new_learn,28,267,B,69.73880269675473,58.552653926493804,3.4869401348377367,0.9197429371182925,B,1045,Correct
1,new_learn,28,268,A,60.696295758838765,78.87844652461018,3.0348147879419383,1.2390197406414536,A,672,Correct
1,new_learn,28,269,A,21.06133849332145,33.28213265046903,1.0530669246660724,0.5227945171525725,A,901,Correct
1,new_learn,28,270,A,68.02644784518725,83.07768754836775,3.4013223922593623,1.3049812643959018,A,800,Correct
1,new_learn,28,271,A,50.71955883987957,60.335287538028986,2.5359779419939783,0.9477444804084983,B,551,Incorrect
1,new_learn,28,272,B,40.96218305124721,29.070146428340152,2.0481091525623607,0.456632792290265,B,1100,Correct
1,new_learn,28,273,A,26.330843640449793,46.40963352429154,1.3165421820224896,0.7290008186785444,A,2109,Correct
1,new_learn,28,274,B,81.77427811552153,54.504422643504626,4.088713905776076,0.8561534688249365,B,569,Correct
1,new_learn,28,275,A,54.50334787658029,82.66862153155407,2.7251673938290146,1.2985556704296262,A,700,Correct
1,new_learn,28,276,A,30.572642997564202,51.16276585833374,1.52863214987821,0.8036628467893798,A,3192,Correct
1,new_learn,28,277,B,84.66398020372793,61.895843963285614,4.2331990101863965,0.9722576434139911,B,749,Correct
1,new_learn,28,278,A,31.115510553098026,51.37119186696293,1.5557755276549015,0.8069367948770123,A,769,Correct
1,new_learn,28,279,A,18.37640757320902,35.83514791588716,0.918820378660451,0.5628971871642735,A,682,Correct
1,new_learn,28,280,B,77.86841629837194,60.63613001254613,3.893420814918597,0.9524701029476526,B,674,Correct
1,new_learn,28,281,A,32.08908646425923,50.58123162207871,1.6044543232129616,0.794528128367231,A,1470,Correct
1,new_learn,28,282,A,61.36577976478654,84.06731464258755,3.068288988239327,1.3205262904408734,A,1110,Correct
1,new_learn,28,283,A,45.271145727461935,62.150012309806,2.263557286373097,0.9762501104650086,B,1444,Incorrect
1,new_learn,28,284,B,80.3677309200081,48.74532104591022,4.018386546000405,0.7656897124735373,B,1137,Correct
1,new_learn,28,285,B,65.19766221340387,44.66954228452013,3.2598831106701938,0.7016675294013355,B,1235,Correct
1,new_learn,28,286,A,47.80816573274576,79.57011527615329,2.390408286637288,1.2498844479842808,B,2142,Incorrect
1,new_learn,28,287,B,66.93733666262793,57.81161977886068,3.346866833131396,0.9081027999469754,B,1041,Correct
1,new_learn,28,288,B,57.36970362741413,32.21439743309285,2.8684851813707066,0.506022571578132,B,791,Correct
1,new_learn,28,289,A,55.307014286352924,70.92433440707248,2.765350714317646,1.1140768396700234,B,1323,Incorrect
1,new_learn,28,290,B,70.89295145834265,53.758407442889485,3.5446475729171323,0.8444350894563425,B,1007,Correct
1,new_learn,28,291,B,54.93051029960222,26.23544177562271,2.746525514980111,0.4121053557298954,B,772,Correct
1,new_learn,28,292,B,53.94037044589971,47.00149928617342,2.697018522294986,0.7382978243257416,B,694,Correct
1,new_learn,28,293,A,45.11317763536558,60.63443150970961,2.2556588817682792,0.952443422927486,A,756,Correct
1,new_learn,28,294,B,46.442927783399085,39.091442993226764,2.322146389169954,0.614046950628727,B,1140,Correct
1,new_learn,28,295,B,76.15483678722217,61.48949192458244,3.807741839361108,0.9658746805161854,B,1980,Correct
1,new_learn,28,296,A,51.114899757513754,81.89562171479591,2.5557449878756877,1.2864134177018576,A,1450,Correct
1,new_learn,28,297,A,41.95435204677155,71.89742040703342,2.097717602338577,1.1293620388139656,A,737,Correct
1,new_learn,28,298,A,50.30786159724279,66.0845806163479,2.5153930798621396,1.0380541648994053,B,785,Incorrect
1,new_learn,28,299,B,64.85559666024,36.15455182007661,3.242779833012,0.5679143719589208,B,677,Correct
1,new_learn,28,300,A,35.86032552970763,53.59846915012822,1.7930162764853816,0.84192278462851,A,722,Incorrect
1,new_learn,28,301,A,55.067387322980146,73.32286049957564,2.7533693661490073,1.1517527994282803,B,959,Incorrect
1,new_learn,28,302,B,37.230575033192366,20.871186899970386,1.8615287516596184,0.32784383718323246,B,607,Incorrect
1,new_learn,28,303,B,72.85758798719264,61.98144598767752,3.6428793993596322,0.9736022768688013,B,624,Correct
1,new_learn,28,304,A,23.7581405261421,38.05333666278749,1.187907026307105,0.5977404145219615,A,712,Correct
1,new_learn,28,305,B,48.273150782557565,29.353168863180553,2.413657539127878,0.46107849830074343,B,785,Incorrect
1,new_learn,28,306,A,31.82990756896139,45.513003725640615,1.5914953784480697,0.7149165907363872,A,1002,Incorrect
1,new_learn,28,307,A,29.774148126352845,55.6335606899476,1.4887074063176422,0.8738899277829063,A,719,Correct
1,new_learn,28,308,B,78.26192542714426,66.20022076030155,3.913096271357213,1.039870636032929,B,872,Correct
1,new_learn,28,309,A,56.021578967844,70.49708355831167,2.8010789483922003,1.1073655990314888,A,1016,Incorrect
1,new_learn,28,310,B,73.73483654433174,54.922585445625145,3.6867418272165873,0.8627219547606684,B,690,Incorrect
1,new_learn,28,311,B,62.3086007074382,44.05030668562381,3.1154300353719098,0.6919405993596655,B,667,Correct
1,new_learn,28,312,A,34.89676717351503,64.49232903156306,1.7448383586757514,1.0130431354922713,A,744,Incorrect
1,new_learn,28,313,A,25.32608492455314,45.82840337978881,1.266304246227657,0.7198708769184708,A,606,Correct
1,new_learn,28,314,A,27.965388114546222,58.874414989636165,1.398269405727311,0.9247971480791888,A,668,Correct
1,new_learn,28,315,B,75.12964918842076,61.32136994144108,3.756482459421038,0.9632338265804663,B,676,Correct
1,new_learn,28,316,A,48.054427435765874,55.53834340734598,2.402721371788294,0.8723942582053262,B,678,Incorrect
1,new_learn,28,317,A,54.80714517007556,80.79903976974948,2.740357258503778,1.2691883487887725,A,854,Incorrect
1,new_learn,28,318,B,79.83575877740408,54.44310190176182,3.9917879388702038,0.8551902448660772,B,536,Correct
1,new_learn,28,319,B,46.96501430646525,23.183034557203257,2.3482507153232626,0.36415825526414025,B,848,Correct
1,new_learn,28,320,B,70.5163961493532,56.61504727238891,3.52581980746766,0.8893070829678791,B,761,Correct
1,new_learn,28,321,B,48.60845324850866,30.579008250979832,2.430422662425433,0.48033393837669963,B,685,Correct
1,new_learn,28,322,B,72.65134441240491,52.534550666834065,3.6325672206202455,0.8252107921728332,B,1588,Correct
1,new_learn,28,323,B,49.255673525053545,38.281768291703195,2.4627836762526774,0.6013286101582073,B,742,Correct
1,new_learn,28,324,B,69.58274417009699,50.149151373113945,3.4791372085048495,0.7877410276876863,B,811,Incorrect
1,new_learn,28,325,B,42.17572127731047,21.70124101366135,2.1087860638655234,0.34088229671150005,B,1306,Correct
1,new_learn,28,326,B,41.25879438562235,26.53236052714371,2.062939719281118,0.41676934457235243,B,1214,Correct
1,new_learn,28,327,B,44.96207177336257,27.12549373706107,2.2481035886681284,0.426086259246735,A,1015,Correct
1,new_learn,28,328,A,49.21448507932713,69.05723877289938,2.4607242539663563,1.0847485700306847,B,1360,Correct
1,new_learn,28,329,A,54.85862544708479,69.66191496873817,2.7429312723542396,1.0942468015039235,B,1935,Incorrect
1,new_learn,28,330,A,58.34579364392464,81.15673245581907,2.917289682196232,1.2748069723627677,B,1121,Incorrect
1,new_learn,28,331,B,48.288084423572016,36.21163911348022,2.4144042211786005,0.5688110970667714,B,627,Correct
1,new_learn,28,332,A,28.530549402534938,51.74462953145877,1.426527470126747,0.8128027399937816,A,798,Incorrect
1,new_learn,28,333,A,52.28677701492385,65.42049980811296,2.614338850746192,1.0276228079567007,A,1252,Incorrect
1,new_learn,28,334,B,52.521093478057956,33.976444238979205,2.626054673902898,0.5337007380814016,B,820,Incorrect
1,new_learn,28,335,A,28.052278422986763,50.811215659789,1.402613921149338,0.798140709183799,B,388,Correct
1,new_learn,28,336,B,64.06344429024129,32.021384946483465,3.203172214512065,0.5029907385282163,B,769,Correct
1,new_learn,28,337,A,25.251647071718235,53.96195461566777,1.2625823535859118,0.8476324009696385,A,582,Incorrect
1,new_learn,28,338,A,56.88109342586286,83.60490052276242,2.8440546712931427,1.3132627064320797,A,1125,Incorrect
1,new_learn,28,339,B,62.758111724679395,30.462216890864816,3.1379055862339698,0.47849938398199904,B,917,Correct
1,new_learn,28,340,A,29.067369274735434,53.58604941446851,1.4533684637367716,0.8417276958769695,A,886,Correct
1,new_learn,28,341,B,72.07918177653644,52.675636526992456,3.603959088826822,0.8274269636818283,B,1259,Incorrect
1,new_learn,28,342,B,44.49585977891374,29.02950653247841,2.224792988945687,0.4559944222988554,B,1196,Correct
1,new_learn,28,343,A,48.57152896119518,75.31115500973864,2.428576448059759,1.1829848565597851,A,1045,Incorrect
1,new_learn,28,344,B,45.30329955758235,37.9521711477189,2.2651649778791176,0.5961513103272811,B,960,Incorrect
1,new_learn,28,345,A,35.037737000492506,59.293233720231065,1.7518868500246254,0.9313759373153025,A,565,Correct
1,new_learn,28,346,B,84.8476201340628,62.46253642824168,4.24238100670314,0.9811592278377443,B,841,Incorrect
1,new_learn,28,347,A,28.211601844199386,48.10035254026769,1.4105800922099692,0.7555585708779207,A,749,Incorrect
1,new_learn,28,348,B,45.15714014833345,18.813905486124504,2.257857007416672,0.29552813630270724,B,621,Incorrect
1,new_learn,28,349,B,59.404118190818,45.590330063202316,2.9702059095409,0.7161312300064515,B,307,Incorrect
1,new_learn,28,350,A,29.978501135224036,42.75058244380841,1.4989250567612018,0.6715245787107665,A,578,Correct
1,new_learn,28,351,A,45.37710717898746,67.0226207031401,2.2688553589493727,1.0527888641266006,A,669,Incorrect
1,new_learn,28,352,A,54.23597527838136,74.98327492084164,2.7117987639190684,1.1778345281670994,B,1540,Correct
1,new_learn,28,353,B,54.13150499700341,26.71404130744221,2.7065752498501707,0.41962317959577355,B,936,Correct
1,new_learn,28,354,B,38.1608925952127,18.21616192693317,1.9080446297606353,0.2861388024312767,A,970,Incorrect
1,new_learn,28,355,A,67.65521272109149,82.61362439034586,3.3827606360545746,1.2976917773556855,A,962,Correct
1,new_learn,28,356,B,81.58480258434236,56.70015797362956,4.079240129217117,0.8906439987366767,B,2912,Correct
1,new_learn,28,357,B,49.837664193581624,36.78919676982988,2.4918832096790813,0.5778833515178345,B,1276,Incorrect
1,new_learn,28,358,A,18.078291291543362,34.067322378562665,0.9039145645771681,0.5351282485598381,A,1064,Incorrect
1,new_learn,28,359,B,43.20349590162486,34.04995152673583,2.160174795081243,0.5348553878574093,B,1870,Correct
1,new_learn,28,360,A,23.255371422001367,35.33878133209465,1.1627685711000684,0.5551002790986234,B,1584,Correct
1,new_learn,28,361,B,50.12151882313893,42.56146177751798,2.506075941156946,0.6685538782314662,B,1132,Incorrect
1,new_learn,28,362,B,60.363705630398286,48.66516030124187,3.018185281519914,0.7644305504407555,A,2664,Incorrect
1,new_learn,28,363,B,35.57073596953248,12.50776757849469,1.7785367984766238,0.19647155368703756,A,3227,Incorrect
1,new_learn,28,364,A,22.088580011948114,53.952243521668805,1.1044290005974056,0.8474798594618113,A,622,Correct
1,new_learn,28,365,B,83.00524589461105,65.19639869324905,4.1502622947305525,1.024102635876112,B,676,Incorrect
1,new_learn,28,366,B,46.75304565532332,16.389378654754815,2.337652282766166,0.25744375789339546,B,858,Incorrect
1,new_learn,28,367,A,34.95739441313542,47.90197022072992,1.747869720656771,0.7524423886896108,B,1082,Correct
1,new_learn,28,368,B,63.57765422859267,44.22497842474462,3.178882711429633,0.694684336621724,B,577,Incorrect
1,new_learn,28,369,A,28.005317669245162,44.237375757294416,1.400265883462258,0.6948790734660367,A,750,Incorrect
1,new_learn,28,370,A,39.91791041361417,65.49215050880821,1.9958955206807087,1.0287482945313446,A,450,Correct
1,new_learn,28,371,A,35.679867759574066,52.62432873136627,1.783993387978703,0.8266210227127727,A,453,Correct
1,new_learn,28,372,A,20.550372868940602,48.31753961328961,1.02751864344703,0.7589701374432222,B,1722,Correct
1,new_learn,28,373,B,45.4755178172733,20.05827287268119,2.273775890863665,0.3150746135025733,B,1050,Incorrect
1,new_learn,28,374,A,50.474739361763994,71.46775367036105,2.5237369680882,1.1226128494968564,B,1079,Incorrect
1,new_learn,28,375,B,33.14164292541863,15.648437358938892,1.6570821462709315,0.24580507923501244,B,765,Incorrect
1,new_learn,28,376,A,61.03368612647458,87.04849397766773,3.0516843063237284,1.3673545459314813,A,1241,Correct
1,new_learn,28,377,B,49.624268459613276,40.357399303378784,2.481213422980664,0.6339325458474232,B,866,Correct
1,new_learn,28,378,A,19.25875701406955,32.83661403688055,0.9629378507034774,0.515796327135137,A,1280,Incorrect
1,new_learn,28,379,A,23.395070257156764,42.51213362040198,1.1697535128578382,0.6677790333514126,A,1159,Incorrect
1,new_learn,28,380,A,19.222667917740463,33.50331312261248,0.9611333958870232,0.5262688118845895,A,953,Incorrect
1,new_learn,28,381,B,42.09701544573025,31.940942591996297,2.1048507722865124,0.5017271529787444,B,917,Incorrect
1,new_learn,28,382,A,56.58726322273708,71.44166680502711,2.829363161136854,1.1222030779744148,B,1501,Incorrect
1,new_learn,28,383,B,82.525814996788,67.95318664214831,4.1262907498393995,1.067406159714946,B,610,Correct
1,new_learn,28,384,A,18.20348085180083,33.25107093246996,0.9101740425900415,0.5223066008272036,A,974,Correct
1,new_learn,28,385,A,55.31246611003082,73.25715477562966,2.765623305501541,1.150720696330043,B,986,Incorrect
1,new_learn,28,386,A,33.313626676308886,44.56489030003378,1.6656813338154444,0.7000236598731059,A,729,Correct
1,new_learn,28,387,B,80.59431994266583,61.73469553003949,4.029715997133292,0.9697263297438735,A,750,Incorrect
1,new_learn,28,388,A,41.89677424516014,73.80438540740792,2.094838712258007,1.1593165749931122,B,641,Incorrect
1,new_learn,28,389,A,18.389435861901898,45.449944235086114,0.919471793095095,0.7139260545750615,A,812,Incorrect
1,new_learn,28,390,A,25.08890045536029,50.21458586691413,1.2544450227680144,0.7887688703127564,A,650,Correct
1,new_learn,28,391,B,33.16692572399374,17.42722041675143,1.6583462861996872,0.27374613816878174,B,732,Correct
1,new_learn,28,392,B,32.57815079084669,10.182834721310758,1.6289075395423345,0.15995159376594476,B,590,Correct
1,new_learn,28,393,A,35.31182722021602,44.72350380431391,1.7655913610108007,0.7025151549721386,B,1085,Correct
1,new_learn,28,394,B,67.09838435975152,38.06316777038785,3.354919217987576,0.5978948411990312,B,822,Correct
1,new_learn,28,395,B,77.68725349738023,53.173884029502254,3.884362674869011,0.8352534171495996,B,786,Incorrect
1,new_learn,28,396,B,78.46928702177547,59.098429384716304,3.9234643510887737,0.9283159579685993,A,1014,Incorrect
1,new_learn,28,397,A,26.409132652695547,41.2952589255221,1.3204566326347773,0.6486644103425429,A,772,Incorrect
1,new_learn,28,398,A,44.345978899987415,62.68233118917939,2.2172989449993707,0.9846117558690417,107,344,Incorrect
1,new_learn,28,399,A,16.54098517264528,34.43639599136649,0.827049258632264,0.5409256433129298,B,145,Incorrect
1,new_learn,28,400,B,35.92900376070701,21.717194499056276,1.7964501880353507,0.3411328934740793,A,714,Incorrect
1,new_learn,28,401,B,32.41003916689036,17.980119779364582,1.620501958344518,0.2824310610475815,A,639,Incorrect
1,new_learn,28,402,B,40.3672145506476,18.626234965454817,2.01836072753238,0.2925802146575509,B,644,Correct
1,new_learn,28,403,A,21.160861901207408,33.36959146251459,1.0580430950603705,0.5241683169596426,B,712,Correct
1,new_learn,28,404,A,37.940148474152345,58.90133978837046,1.8970074237076173,0.9252200818287041,B,511,Incorrect
1,new_learn,28,405,B,62.85077433849338,48.044826286452064,3.1425387169246686,0.7546863665225779,A,820,Correct
1,new_learn,28,406,B,84.79337060911514,69.28418579373619,4.239668530455757,1.0883134454977594,A,954,Incorrect
1,new_learn,28,407,B,72.38923650333656,57.60457967282058,3.6194618251668285,0.9048506215663054,B,737,Correct
1,new_learn,28,408,B,69.8917589881077,48.89945860161794,3.494587949405385,0.7681108995368058,B,801,Incorrect
1,new_learn,28,409,A,36.7641954122727,68.44244995346752,1.8382097706136349,1.0750914898375032,A,487,Incorrect
1,new_learn,28,410,A,31.92531473629345,43.36961444410778,1.5962657368146724,0.6812483106331538,B,907,Incorrect
1,new_learn,28,411,A,57.34761102901017,82.60243314378933,2.8673805514505086,1.2975159856658527,B,382,Incorrect
1,new_learn,28,412,B,82.82217936284589,58.7138462899954,4.141108968142294,0.9222749408432493,B,586,Incorrect
1,new_learn,28,413,B,62.4903596750523,46.01996876667753,3.124517983752615,0.7228799789791293,B,1028,Correct
1,new_learn,28,414,B,33.30566655620466,11.022145645375524,1.6652833278102332,0.17313545893154236,A,560,Incorrect
1,new_learn,28,415,A,21.69838572494454,33.256840165506674,1.084919286247227,0.5223972237278286,A,788,Correct
1,new_learn,28,416,B,42.79485687146281,26.98789359028202,2.1397428435731403,0.42392484119546536,B,901,Correct
1,new_learn,28,417,A,53.64608335315623,82.79613171161333,2.682304167657811,1.3005585956542867,A,1295,Correct
1,new_learn,28,418,A,39.9815391761603,54.15891249241097,1.999076958808015,0.8507262080628539,B,1816,Incorrect
1,new_learn,28,419,A,22.379062236280745,49.138292150467414,1.1189531118140372,0.771862488149287,B,544,Correct
1,new_learn,28,420,B,51.51423944058742,29.655424593107163,2.575711972029371,0.4658263202039577,B,629,Correct
1,new_learn,28,421,B,83.01608114979702,60.79903402216435,4.150804057489851,0.9550289931469371,A,475,Incorrect
1,new_learn,28,422,A,45.23665272445185,77.33685991488673,2.2618326362225925,1.2148045548015556,B,664,Correct
1,new_learn,28,423,B,60.45928682496532,41.51895722488566,3.022964341248266,0.6521782550120483,B,627,Incorrect
1,new_learn,28,424,A,31.40055153625483,60.22484914569932,1.5700275768127414,0.9460097181984125,A,680,Correct
1,new_learn,28,425,B,67.39445791291615,45.41529975611818,3.3697228956458076,0.713381860371996,B,756,Correct
1,new_learn,28,426,B,57.68963688066548,31.63981151492296,2.884481844033274,0.49699699708123857,B,567,Correct
1,new_learn,28,427,A,66.43689798799524,88.94005363675288,3.321844899399762,1.3970670955755249,A,771,Incorrect
1,new_learn,28,428,B,49.63988676460439,24.604599727483944,2.4819943382302196,0.38648814874190485,A,608,Incorrect
1,new_learn,28,429,B,69.28634162070665,58.7196769330355,3.4643170810353325,0.9223665283699518,B,373,Correct
1,new_learn,28,430,B,45.30636183510232,28.382999118856976,2.265318091755116,0.44583910759323325,B,730,Incorrect
1,new_learn,28,431,A,64.05209107709098,85.89584028872439,3.2026045538545485,1.3492487041248935,B,533,Incorrect
1,new_learn,28,432,A,33.92811426021181,65.68681105434709,1.6964057130105903,1.031806015230388,A,864,Correct
1,new_learn,28,433,A,15.531378213892701,36.42845773078174,0.7765689106946351,0.5722168759431511,A,974,Correct
1,new_learn,28,434,B,63.839860799248456,31.69592820070628,3.191993039962423,0.497878475920242,B,2573,Incorrect
1,new_learn,28,435,B,73.21988659002713,60.48673931224306,3.660994329501357,0.9501234793147186,A,790,Incorrect
1,new_learn,28,436,A,63.69468488881958,83.8792010528769,3.1847342444409787,1.3175714090834965,B,2763,Incorrect
1,new_learn,28,437,A,53.27812266717454,82.55662762922984,2.6639061333587275,1.296796474325683,A,776,Correct
1,new_learn,28,438,B,82.41659468628669,60.7076306925996,4.120829734314334,0.9535932330035657,B,850,Incorrect
1,new_learn,28,439,A,49.47993278212259,75.7152782268029,2.4739966391061294,1.189332809209156,A,478,Incorrect
1,new_learn,28,440,A,36.90521156392583,66.20678350592128,1.8452605781962916,1.039973723400061,B,1091,Incorrect
1,new_learn,28,441,B,69.58916101698077,50.55483473594562,3.4794580508490385,0.7941134870494643,B,973,Incorrect
1,new_learn,28,442,B,37.221481016953035,20.803141926481626,1.8610740508476515,0.3267749892391024,A,713,Incorrect
1,new_learn,28,443,A,55.47520966409523,71.10901259059787,2.7737604832047618,1.1169777577932318,B,812,Correct
1,new_learn,28,444,A,36.78139692656255,50.02002582078593,1.8390698463281274,0.7857127282547641,B,486,Correct
1,new_learn,28,445,A,67.84373178181193,81.10699124546106,3.3921865890905964,1.2740256392575604,B,474,Incorrect
1,new_learn,28,446,B,50.79429939582561,24.4794950618465,2.5397149697912806,0.3845230092494229,A,296,Incorrect
1,new_learn,28,447,B,50.61448610089972,31.574465253291194,2.530724305044986,0.49597054040382904,A,214,Correct
1,new_learn,28,448,A,66.61330074374709,87.23709353298193,3.3306650371873547,1.3703170608187085,A,403,Incorrect
1,new_learn,28,449,B,82.85018976337656,57.02189768479654,4.142509488168828,0.8956978743015283,B,543,Correct
1,new_learn,28,450,B,45.705353151139576,17.92930995772914,2.285267657556979,0.28163294223568097,B,641,Correct
1,new_learn,28,451,A,22.670179721320554,40.89107782600804,1.1335089860660277,0.6423155484777767,B,1216,Incorrect
1,new_learn,28,452,A,63.24870358655505,84.67936816967027,3.1624351793277525,1.3301404047623073,B,1146,Incorrect
1,new_learn,28,453,A,30.07284699718979,59.47059715271654,1.5036423498594893,0.9341619555978619,A,1069,Correct
1,new_learn,28,454,B,43.57982217987585,34.46203875279067,2.1789911089937926,0.5413284388674696,B,809,Correct
1,new_learn,28,455,B,60.758112308217854,48.184590447556424,3.0379056154108928,0.7568817768313809,A,1086,Incorrect
1,new_learn,28,456,A,14.49739588776033,39.314963615574186,0.7248697943880166,0.6175580043541894,A,703,Correct
1,new_learn,28,457,A,23.720110649765203,52.29155969664864,1.1860055324882601,0.8213938989387174,B,811,Incorrect
1,new_learn,28,458,A,49.583380298303155,66.68455818123617,2.4791690149151577,1.0474785904502635,B,2742,Incorrect
1,new_learn,28,459,B,56.826817002539066,36.77241754686038,2.841340850126953,0.5776197840997649,A,215,Correct
1,new_learn,28,460,A,46.14484531846213,55.44905594300894,2.3072422659231067,0.8709917339952317,A,480,Correct
1,new_learn,28,461,B,84.51831712607533,69.49265330550801,4.225915856303766,1.0915880455152323,B,737,Incorrect
1,new_learn,28,462,A,35.918928831247136,56.87181257011248,1.795946441562357,0.8933403428330051,A,607,Incorrect
1,new_learn,28,463,B,57.44086128562389,40.09809130089395,2.8720430642811943,0.6298593452693061,B,315,Incorrect
1,new_learn,28,464,B,52.511603960088685,29.050135136550836,2.6255801980044344,0.4563184556538942,B,722,Correct
1,new_learn,28,465,A,44.73048529644664,59.0315216029043,2.236524264822332,0.9272649729895566,B,705,Incorrect
1,new_learn,28,466,B,48.84759260130433,23.038528688122632,2.4423796300652163,0.3618883623806188,A,421,Correct
1,new_learn,28,467,A,52.21819381875625,74.60463132525236,2.6109096909378127,1.1718868084759388,A,659,Incorrect
1,new_learn,28,468,B,43.94847815611557,25.10917983654234,2.1974239078057787,0.39441407456073185,B,1155,Correct
1,new_learn,28,469,B,55.39014838124902,26.176115312871957,2.769507419062451,0.41117345783218906,B,1567,Incorrect
1,new_learn,28,470,B,45.74103164000823,31.298005002815227,2.2870515820004114,0.4916279129443045,A,768,Incorrect
1,new_learn,28,471,B,74.61255215658424,56.13674432162463,3.730627607829212,0.8817939177863223,B,798,Incorrect
1,new_learn,28,472,A,59.05080578024493,81.2908712751184,2.952540289012246,1.2769140200091276,B,298,Incorrect
1,new_learn,28,473,A,28.987466593783513,55.705943646179925,1.4493733296891755,0.8750269166006293,B,429,Incorrect
1,new_learn,28,474,B,80.63849028967596,63.176337805363495,4.031924514483798,0.9923715936501853,B,781,Incorrect
1,new_learn,28,475,B,54.303308452791136,28.76935460339621,2.7151654226395565,0.4519079653527461,B,431,Correct
1,new_learn,28,476,B,76.18951370372156,64.68374102375809,3.809475685186078,1.0160498280347157,A,1572,Correct
1,new_learn,28,477,B,77.0796326968601,57.51352954970288,3.8539816348430054,0.9034204095768302,B,1249,Correct
1,new_learn,28,478,A,22.616263330822704,47.24800408133924,1.1308131665411352,0.7421699125935797,A,1313,Incorrect
1,new_learn,28,479,A,65.50148996036133,87.46884282195913,3.275074498018066,1.3739573701373355,A,952,Correct
1,new_learn,28,480,A,37.793291845260605,55.7256209293074,1.8896645922630302,0.8753360066412087,B,710,Correct
1,new_learn,28,481,B,61.59331219201218,34.261372756909886,3.0796656096006085,0.5381763847750479,B,747,Correct
1,new_learn,28,482,B,70.44172092329795,60.12748803113617,3.5220860461648975,0.9444803733871281,B,1021,Incorrect
1,new_learn,28,483,A,52.609666737689956,83.07675386412552,2.6304833368844975,1.304966598118121,A,897,Correct
1,new_learn,28,484,A,54.16676105723593,82.5284470306412,2.7083380528617966,1.2963538145181839,B,1048,Incorrect
1,new_learn,28,485,A,44.80544779401617,66.93574257323013,2.2402723897008086,1.0514241856531867,B,978,Incorrect
1,new_learn,28,486,A,31.24719988921606,59.955677706330476,1.5623599944608029,0.9417815831160259,A,517,Correct
1,new_learn,28,487,A,53.050745861364305,73.37546257891233,2.652537293068215,1.1525790709583188,B,823,Correct
1,new_learn,28,488,B,62.148888393740314,35.57237735777373,3.1074444196870155,0.5587695968895293,B,823,Incorrect
1,new_learn,28,489,B,45.71290093699979,36.08837064932855,2.2856450468499894,0.5668748005597805,A,622,Incorrect
1,new_learn,28,490,B,46.994392999057624,37.62075891680689,2.349719649952881,0.5909454991775662,B,933,Incorrect
1,new_learn,28,491,A,51.47403772366658,58.82099646197728,2.5737018861833287,0.9239580518088952,B,2620,Correct
1,new_learn,28,492,B,71.21563670695393,42.365106096802485,3.5607818353476968,0.6654695304113343,B,6194,Incorrect
1,new_learn,28,493,A,19.331086462540107,41.2616847255762,0.9665543231270053,0.6481370280430419,A,676,Incorrect
1,new_learn,28,494,B,60.40342239189633,43.68324070261752,3.0201711195948167,0.6861747403816891,B,525,Incorrect
1,new_learn,28,495,A,22.17626645939985,35.784251783113675,1.1088133229699926,0.5620977125801868,A,564,Correct
1,new_learn,28,496,B,44.96481864441826,29.851986647700812,2.248240932220913,0.46891390973738734,A,1028,Correct
1,new_learn,28,497,A,39.41360789312687,58.26786029894623,1.9706803946563438,0.9152694092778292,B,1354,Incorrect
1,new_learn,28,498,A,48.79572915379878,68.00591268223003,2.439786457689939,1.0682343784158141,A,537,Incorrect
1,new_learn,28,499,A,41.167057060418735,53.273551020521936,2.0583528530209367,0.8368189825835637,A,888,Correct
1,new_learn,28,500,A,49.272567334914804,73.99522218322959,2.4636283667457404,1.1623142320578927,B,475,Incorrect
1,new_learn,28,501,A,54.267710828897506,68.09368604095484,2.7133855414448753,1.0696131191105678,B,833,Correct
1,new_learn,28,502,A,43.00310357844564,54.25417575455934,2.1501551789222817,0.8522225998854654,A,1148,Incorrect
1,new_learn,28,503,A,47.509669555946715,65.84519879899693,2.375483477797336,1.0342939641054412,B,597,Correct
1,new_learn,28,504,A,32.595175344865424,51.13058552783907,1.6297587672432712,0.803157359340019,A,979,Correct
1,new_learn,28,505,A,28.30677423283077,46.39525207382741,1.4153387116415386,0.728774915382914,B,1092,Correct
1,new_learn,28,506,A,65.84310120036189,89.71206847288612,3.2921550600180947,1.4091938762638176,A,1734,Incorrect
1,new_learn,28,507,A,45.322128539578486,55.26216844740523,2.2661064269789244,0.8680561120790498,A,938,Incorrect
1,new_learn,28,508,B,80.3729711358532,48.74867657202529,4.018648556792661,0.7657424209544975,B,1289,Incorrect
1,new_learn,28,509,B,46.04646382758734,35.67994332628444,2.302323191379367,0.5604592391717768,B,1733,Correct
1,new_learn,28,510,B,77.63471582777723,61.11005346080139,3.881735791388861,0.9599144750646659,A,2112,Correct
1,new_learn,28,511,B,61.79097093926427,31.22381574739289,3.0895485469632136,0.4904625508452541,B,1645,Incorrect
1,new_learn,28,512,A,67.22813513131749,83.21839592622757,3.361406756565874,1.3071915064268163,B,643,Correct
1,new_learn,28,513,A,43.77919893726488,55.782517778051385,2.188959946863244,0.8762297402513413,A,675,Correct
1,new_learn,28,514,A,39.05215715710372,57.26159245505853,1.952607857855186,0.8994629909483233,B,1300,Incorrect
1,new_learn,28,515,B,56.72961694705718,28.455085491245306,2.8364808473528593,0.4469714376828288,B,653,Incorrect
1,new_learn,28,516,B,75.58990398150618,46.7562453557523,3.779495199075309,0.7344453845953665,A,408,Correct
1,new_learn,28,517,A,21.984656715802785,52.18953794981705,1.0992328357901393,0.8197913450869548,A,400,Incorrect
1,new_learn,28,518,B,55.6422901283149,27.1183336587152,2.7821145064157453,0.42597378899908245,B,608,Incorrect
1,new_learn,28,519,B,48.67915939399837,22.00566525138561,2.4339579696999185,0.3456641814555461,A,417,Correct
1,new_learn,28,520,A,65.78675895659799,77.36775752505946,3.289337947829899,1.215289893327216,B,421,Correct
1,new_learn,28,521,B,62.19331177575139,31.88719140251295,3.1096655887875695,0.5008828312687316,B,992,Incorrect
1,new_learn,28,522,A,52.110287882192225,70.28539873089308,2.605514394109611,1.1040404615380153,A,671,Correct
1,new_learn,28,523,A,52.498742186368055,59.41008863508358,2.624937109318403,0.9332114900254852,B,708,Incorrect
1,new_learn,28,524,B,41.15547641759901,21.73836640723296,2.0577738208799503,0.34146546103003106,A,566,Incorrect
1,new_learn,28,525,A,29.466353329850055,60.30419957246202,1.4733176664925027,0.947256151787297,A,334,Correct
1,new_learn,28,526,A,18.812295981480823,33.78353521342347,0.9406147990740411,0.5306705301939162,B,891,Correct
1,new_learn,28,527,B,73.1686172139154,55.737003253039845,3.65843086069577,0.8755147997643018,B,1823,Incorrect
1,new_learn,28,528,A,62.66704309656558,73.12769223386765,3.133352154828279,1.14868710347947,A,3700,Incorrect
1,new_learn,28,529,A,19.613144171742256,48.40610517673644,0.9806572085871127,0.7603613220606503,B,363,Correct
1,new_learn,28,530,B,69.61901642093345,56.83364290599894,3.4809508210466724,0.8927407751511597,B,1049,Incorrect
1,new_learn,28,531,B,44.90514455558344,36.175896878096104,2.245257227779172,0.5682496593462433,B,364,Correct
1,new_learn,28,532,A,14.268705633720351,33.85676748780386,0.7134352816860176,0.5318208600699117,A,601,Incorrect
1,new_learn,28,533,B,44.368517478460035,28.009757171842672,2.218425873923002,0.43997623679947484,B,388,Correct
1,new_learn,28,534,B,38.99068694076791,18.417896644667223,1.9495343470383955,0.2893076439673133,B,382,Incorrect
1,new_learn,28,535,A,47.58780744376673,72.52090474301893,2.3793903721883365,1.1391557078617671,B,1011,Incorrect
1,new_learn,28,536,B,42.3208229879143,15.872203616380538,2.116041149395715,0.24931999138751226,A,830,Correct
1,new_learn,28,537,A,41.9443468205896,59.64241739645855,2.09721734102948,0.9368609016752512,B,1786,Correct
1,new_learn,28,538,B,70.8630484501711,61.21624691368457,3.5431524225085553,0.9615825579218513,B,1682,Incorrect
1,new_learn,28,539,B,88.58927379384154,64.2239357993259,4.429463689692077,1.0088272244589238,B,1165,Correct
1,new_learn,28,540,A,54.86450511630114,82.99778823214982,2.743225255815057,1.3037262088716164,A,2011,Correct
1,new_learn,28,541,A,28.614323386584438,58.540573270727734,1.4307161693292219,0.9195531746212663,A,991,Correct
1,new_learn,28,542,B,76.4313471419632,45.842297866420054,3.8215673570981603,0.7200891310041014,B,1063,Correct
1,new_learn,28,543,A,18.54477149982937,43.04983124277159,0.9272385749914684,0.6762251678528579,A,2303,Incorrect
1,new_learn,28,544,A,23.53140276521694,41.1811072131858,1.1765701382608469,0.6468713194381907,B,1628,Correct
1,new_learn,28,545,B,60.69315343055804,27.780792045119608,3.034657671527902,0.43637966099926767,B,2793,Incorrect
1,new_learn,28,546,A,57.70664466815283,67.68162964138779,2.8853322334076417,1.0631405523218451,B,833,Correct
1,new_learn,28,547,A,52.55804735113465,74.22455865388298,2.6279023675567323,1.1659166409149173,B,835,Correct
1,new_learn,28,548,B,42.657166747331814,21.002176266717033,2.132858337366591,0.3299014133445807,B,1203,Correct
1,new_learn,28,549,A,28.86375699586134,43.60374438036353,1.443187849793067,0.6849260150717864,A,892,Incorrect
1,new_learn,28,550,B,57.235619647666596,37.425978774327106,2.8617809823833293,0.587885899854168,B,803,Correct
1,new_learn,28,551,A,34.991859789977696,65.97172329684362,1.7495929894988849,1.0362814062701124,B,1144,Correct
1,new_learn,28,552,B,69.32999841855364,57.46233014235143,3.4664999209276823,0.902616171166813,A,659,Correct
1,new_learn,28,553,B,49.60688641939958,27.730689912569503,2.480344320969979,0.4355926585415246,B,814,Incorrect
1,new_learn,28,554,A,19.921737234528873,43.50463018881764,0.9960868617264437,0.6833691329916511,A,367,Correct
1,new_learn,28,555,B,43.75324161395481,34.95205159926695,2.1876620806977405,0.5490255426607422,A,656,Incorrect
1,new_learn,28,556,A,16.07307663448924,35.75028773170276,0.803653831724462,0.5615642065081936,B,404,Incorrect
1,new_learn,28,557,A,33.85030903857355,55.322062376517835,1.6925154519286776,0.8689969237175236,B,497,Incorrect
1,new_learn,28,558,B,44.266001646242714,21.16326932637275,2.213300082312136,0.3324318572083742,B,1879,Correct
1,new_learn,28,559,B,39.5930743066732,27.599530150091493,1.9796537153336602,0.4335324058102872,B,993,Correct
1,new_learn,28,560,A,31.271032066448196,43.0854728805391,1.56355160332241,0.6767850253897195,A,799,Correct
1,new_learn,28,561,B,56.09256558456904,44.501818620904814,2.8046282792284516,0.6990329322541001,B,804,Correct
1,new_learn,28,562,A,43.230983939868686,52.09919268061169,2.1615491969934344,0.818372204916844,B,843,Correct
1,new_learn,28,563,A,59.91289446722267,86.44843425744165,2.995644723361133,1.3579288298875944,A,1064,Incorrect
1,new_learn,28,564,B,32.484693894747366,14.935610221549926,1.6242346947373683,0.23460801674450937,B,737,Incorrect
1,new_learn,28,565,B,66.09145612194231,43.86336905172133,3.3045728060971156,0.689004189872928,B,469,Incorrect
1,new_learn,28,566,B,48.19553504442324,19.98505932507755,2.409776752221162,0.3139245777860991,B,688,Incorrect
1,new_learn,28,567,A,41.93781186792375,65.7691930898661,2.0968905933961874,1.0331000692182597,A,964,Incorrect
1,new_learn,28,568,A,30.373422640208652,39.52920152543759,1.5186711320104325,0.6209232455729259,A,363,Correct
1,new_learn,28,569,B,51.7987840418663,42.275071959656806,2.5899392020933147,0.6640552774921885,B,714,Correct
1,new_learn,28,570,B,34.01300270315993,14.547206493400719,1.7006501351579966,0.22850698524960716,B,1129,Correct
1,new_learn,28,571,A,17.433361688230388,31.264964269531436,0.8716680844115194,0.49110891031953674,A,857,Incorrect
1,new_learn,28,572,A,53.11780430016567,79.96646330232143,2.655890215008284,1.256110268220654,B,631,Correct
1,new_learn,28,573,B,65.73350166719817,36.829561991734494,3.2866750833599085,0.5785174069408149,A,1217,Correct
1,new_learn,28,574,A,18.974910996099798,49.90693862620736,0.9487455498049898,0.7839363587562487,A,1045,Correct
1,new_learn,28,575,B,62.19270299627092,35.022184648547,3.109635149813546,0.5501271900227023,B,775,Correct
1,new_learn,28,576,B,66.83214435239367,44.02580058015716,3.341607217619684,0.691555658355155,B,870,Incorrect
1,new_learn,28,577,B,33.85687378835795,10.188753985357224,1.6928436894178975,0.16004457334815989,A,512,Incorrect
1,new_learn,28,578,B,43.87098100016947,33.33817583047822,2.1935490500084738,0.523674841365576,B,552,Correct
1,new_learn,28,579,B,69.07518960597251,41.206861158120496,3.4537594802986256,0.6472758614592298,B,530,Correct
1,new_learn,28,580,A,46.68608702712206,77.97739497416408,2.3343043513561033,1.2248660559845175,A,825,Incorrect
1,new_learn,28,581,A,29.269884729821854,54.82826691092093,1.4634942364910928,0.8612404026820476,B,827,Correct
1,new_learn,28,582,A,39.07646096730716,67.89551768293786,1.953823048365358,1.0665002978219673,A,838,Incorrect
1,new_learn,28,583,B,36.97124932189534,13.128625387017554,1.8485624660947673,0.20622396533793402,B,621,Incorrect
1,new_learn,28,584,A,60.292173825749906,86.96311331877033,3.0146086912874956,1.3660133896777278,B,816,Correct
1,new_learn,28,585,B,55.45585258321727,33.46550862562874,2.7727926291608633,0.5256749802346056,B,878,Incorrect
1,new_learn,28,586,A,41.89262248824834,71.24747004247735,2.0946311244124174,1.1191526423615286,B,635,Incorrect
1,new_learn,28,587,B,78.99334316510597,59.79911289618826,3.9496671582552985,0.9393222688292586,A,843,Incorrect
1,new_learn,28,588,B,69.1779932272157,54.78649423822159,3.4588996613607845,0.8605842390736823,A,376,Correct
1,new_learn,28,589,A,28.156773403731975,48.372156467265874,1.4078386701865986,0.7598280569792922,B,506,Correct
1,new_learn,28,590,B,73.81420773463658,45.97961610915181,3.690710386731829,0.7222461209169511,B,977,Incorrect
1,new_learn,28,591,A,62.89406285463773,77.61278565247625,3.1447031427318866,1.2191387861522935,A,715,Correct
1,new_learn,28,592,B,36.13692901078081,21.795296600853227,1.8068464505390407,0.3423597184202554,B,536,Incorrect
1,new_learn,28,593,A,60.51482584557721,77.22821028134544,3.0257412922788602,1.2130978903488128,A,914,Correct
1,new_learn,28,594,A,27.385656780660142,47.199483832734856,1.3692828390330072,0.7414077583107502,A,769,Incorrect
1,new_learn,28,595,B,46.6236050683661,16.861345302597265,2.331180253418305,0.2648573926614017,B,401,Incorrect
1,new_learn,28,596,B,72.65578166580795,54.4306776294555,3.632789083290397,0.8549950848530585,B,717,Incorrect
1,new_learn,28,597,B,84.97542836287738,65.75263258669347,4.248771418143869,1.032839937442725,A,405,Correct
1,new_learn,28,598,A,34.20153737137706,60.70746898225784,1.710076868568853,0.9535906928634574,A,640,Correct
1,new_learn,28,599,A,33.6891036709484,49.61008532916837,1.6844551835474197,0.7792733980703905,B,621,Incorrect
1,new_learn,28,600,B,37.425978774327106,42.764380352333404,1.8712989387163554,0.6717413157510516,B,940,Correct
1,new_learn,28,601,A,60.54237781027318,62.93494793907038,3.027118890513659,0.9885798504971979,B,961,Incorrect
1,new_learn,28,602,A,72.77110886862809,42.294770802894405,3.6385554434314042,0.6643647061981857,B,993,Incorrect
1,new_learn,28,603,A,77.22821028134544,39.48517415442279,3.861410514067272,0.6202316652462411,B,810,Incorrect
1,new_learn,28,604,A,53.273551020521936,58.832942939581265,2.663677551026097,0.9241457066402798,B,756,Incorrect
1,new_learn,28,605,B,41.19034493732451,31.607069652013337,2.0595172468662257,0.49648268910133003,A,1525,Incorrect
1,new_learn,28,606,B,37.32194361290478,46.331713005170755,1.866097180645239,0.7277768460263756,B,760,Correct
1,new_learn,28,607,B,23.330348847220428,64.7593747416432,1.1665174423610214,1.0172378796970734,A,899,Incorrect
1,new_learn,28,608,B,26.505257561349353,60.3517790201022,1.3252628780674678,0.9480035280031383,B,1633,Correct
1,new_learn,28,609,A,47.24800408133924,77.3837366691773,2.362400204066962,1.2155408931360723,A,1493,Correct
1,new_learn,28,610,B,48.312951299090315,20.24773322504153,2.415647564954516,0.31805064975818215,B,2542,Correct
1,new_learn,28,611,A,40.06958767907791,69.40437045815663,2.003479383953896,1.0902013017918468,A,1841,Correct
1,new_learn,28,612,A,68.00591268223003,51.20427084620122,3.4002956341115014,0.8043148056142388,B,1029,Incorrect
1,new_learn,28,613,A,34.528514223341574,76.70114994455865,1.7264257111670787,1.2048188459385731,A,1238,Correct
1,new_learn,28,614,A,81.13082575603728,48.291947649171235,4.056541287801864,0.7585681398108962,B,863,Incorrect
1,new_learn,28,615,B,17.70019957218824,63.012115094966745,0.885009978609412,0.9897919893475102,A,1000,Incorrect
1,new_learn,28,616,A,37.548392736606246,87.66679353913851,1.8774196368303122,1.3770667727316532,A,1769,Correct
1,new_learn,28,617,A,42.083652952345325,83.4423313815008,2.1041826476172663,1.3107090763326399,B,2016,Incorrect
1,new_learn,28,618,B,36.77241754686038,43.173182997460934,1.838620877343019,0.6781627726845552,B,653,Correct
1,new_learn,28,619,B,44.66954228452013,34.80233778659613,2.2334771142260066,0.5466738435906042,B,776,Correct
1,new_learn,28,620,B,37.9521711477189,54.69670044241765,1.897608557385945,0.8591737614275043,B,1554,Correct
1,new_learn,28,621,B,14.353027002830416,58.07774485822787,0.7176513501415208,0.9122830829183551,A,617,Incorrect
1,new_learn,28,622,B,25.18805340533749,52.18909876699434,1.2594026702668746,0.8197844464193077,A,1112,Incorrect
1,new_learn,28,623,B,31.69592820070628,36.160139200751544,1.584796410035314,0.5680021383293267,B,893,Correct
1,new_learn,28,624,A,38.11082289465253,72.86692877315015,1.9055411447326265,1.1445910406168962,B,625,Incorrect
1,new_learn,28,625,A,79.96646330232143,46.88219569983433,3.998323165116071,0.7364238079737926,A,1884,Correct
1,new_learn,28,626,A,46.055201858728275,62.95240820330689,2.302760092936414,0.9888541156864737,A,1271,Correct
1,new_learn,28,627,A,33.62097798544399,83.17202881771837,1.6810488992721997,1.3064631735895131,B,1358,Incorrect
1,new_learn,28,628,B,56.55112114420901,26.384420337945187,2.8275560572104506,0.41444550551456866,B,717,Correct
1,new_learn,28,629,B,28.608046889004104,39.04924620187457,1.4304023444502052,0.6133841249801414,A,883,Incorrect
1,new_learn,28,630,B,24.528836276397996,61.88656386595192,1.2264418138198998,0.9721118719859506,B,398,Correct
1,new_learn,28,631,A,79.81350727645966,51.592180917815945,3.990675363822983,0.8104080827704305,B,722,Incorrect
1,new_learn,28,632,A,88.22381204609539,30.59479936732356,4.41119060230477,0.4805819846521867,A,792,Correct
1,new_learn,28,633,A,43.36961444410778,68.07468526370656,2.168480722205389,1.0693146555994892,A,811,Correct
1,new_learn,28,634,B,49.71398794085482,29.13960319691283,2.4856993970427412,0.457723816659715,A,570,Incorrect
1,new_learn,28,635,B,51.464762265990046,25.23996725171051,2.573238113299502,0.39646847847410344,B,547,Correct
1,new_learn,28,636,B,11.022145645375524,66.69433344379533,0.5511072822687761,1.0476321399154773,A,1123,Incorrect
1,new_learn,28,637,B,27.771429943595457,58.521870202270385,1.3885714971797727,0.9192593875089402,B,617,Correct
1,new_learn,28,638,A,70.92433440707248,44.692985713647076,3.546216720353624,0.7020357779249362,B,886,Incorrect
1,new_learn,28,639,B,19.98505932507755,51.80446495557676,0.9992529662538775,0.8137426326379492,B,865,Correct
1,new_learn,28,640,A,41.1811072131858,76.46859723478306,2.05905536065929,1.2011659165155562,A,928,Correct
1,new_learn,28,641,B,43.54032454839139,31.300515068370288,2.1770162274195695,0.4916673409618436,B,825,Correct
1,new_learn,28,642,A,70.31219391610345,52.998429929187516,3.515609695805173,0.8324973905866446,B,473,Incorrect
1,new_learn,28,643,B,41.206861158120496,30.92481039402749,2.060343057906025,0.48576578573767015,B,537,Correct
1,new_learn,28,644,A,33.03616610951356,84.7530567456842,1.6518083054756778,1.331297902207602,A,793,Correct
1,new_learn,28,645,A,83.07768754836775,31.97355215481275,4.153884377418388,0.5022393827936492,B,678,Incorrect
1,new_learn,28,646,A,76.142311441557,46.2598243025816,3.80711557207785,0.7266476209267245,B,1034,Incorrect
1,new_learn,28,647,B,65.19639869324905,16.99475410538895,3.259819934662453,0.26695297323527445,B,1189,Correct
1,new_learn,28,648,A,79.89116938259333,37.448522284021934,3.9945584691296663,0.5882400124763848,A,1002,Correct
1,new_learn,28,649,A,52.18953794981705,78.01534328419721,2.6094768974908527,1.225462146644599,A,1025,Correct
1,new_learn,28,650,B,36.06101010524056,56.08837482203408,1.8030505052620283,0.8810341314634651,B,617,Correct
1,new_learn,28,651,A,84.67936816967027,36.75129641344495,4.233968408483514,0.5772880141118978,A,889,Correct
1,new_learn,28,652,A,82.60243314378933,42.65238897098983,4.130121657189466,0.6699821592465799,A,759,Correct
1,new_learn,28,653,A,77.61278565247625,37.10593714536227,3.8806392826238123,0.5828586977021737,A,796,Correct
1,new_learn,28,654,B,56.61504727238891,29.4836038506468,2.830752363619445,0.4631273662927186,B,883,Correct
1,new_learn,28,655,B,40.09809130089395,42.55913871437611,2.0049045650446975,0.6685173876409647,B,1451,Correct
1,new_learn,28,656,A,46.11664695332109,65.85433795369656,2.3058323476660543,1.034437521611763,A,1037,Correct
1,new_learn,28,657,A,55.53834340734598,51.945572564234126,2.7769171703672986,0.8159591457715671,B,897,Incorrect
1,new_learn,28,658,A,55.78252189228574,61.98844698309832,2.789126094614287,0.9737122482477103,A,1244,Correct
1,new_learn,28,659,A,49.67382853419597,74.78593623498006,2.4836914267097985,1.1747347393382404,A,1042,Correct
1,new_learn,28,660,A,84.06731464258755,38.63422023521346,4.203365732129377,0.6068649123405838,B,851,Incorrect
1,new_learn,28,661,B,56.19063366128384,19.673901377529035,2.809531683064192,0.3090369201754767,B,697,Correct
1,new_learn,28,662,B,63.220130116713904,18.55433116637768,3.161006505835695,0.2914507524228213,B,589,Correct
1,new_learn,28,663,A,46.107240213106664,63.531542737762784,2.305362010655333,0.9979511396809077,A,699,Correct
1,new_learn,28,664,B,53.51849723967671,36.92600231874742,2.6759248619838356,0.5800322880550829,B,809,Correct
1,new_learn,28,665,B,23.038528688122632,51.15240739869567,1.1519264344061315,0.8035001364858726,B,1834,Correct
1,new_learn,28,666,B,59.308274658518144,30.939486362531028,2.9654137329259074,0.4859963153118453,B,1541,Correct
1,new_learn,28,667,B,10.188753985357224,66.14312621164206,0.5094376992678612,1.0389737969597856,B,2222,Correct
1,new_learn,28,668,B,25.594112233838928,63.96572350599714,1.2797056116919463,1.0047712352399827,B,816,Correct
1,new_learn,28,669,B,47.60562707633685,35.32037912037086,2.3802813538168426,0.5548112178328171,A,1468,Incorrect
1,new_learn,28,670,A,65.42049980811296,47.71322298507615,3.271024990405648,0.7494775540450344,B,763,Incorrect
1,new_learn,28,671,A,81.91323629287315,43.629201897433646,4.095661814643657,0.685325900814817,B,612,Incorrect
1,new_learn,28,672,B,31.195269582708015,60.33469205185391,1.559763479135401,0.9477351265335335,B,805,Correct
1,new_learn,28,673,A,59.75686486154519,66.98762037786929,2.9878432430772595,1.0522390803028805,A,697,Correct
1,new_learn,28,674,B,40.357399303378784,50.375731540386724,2.017869965168939,0.7913001406324527,B,514,Correct
1,new_learn,28,675,A,46.094075857368566,64.92782768242435,2.3047037928684286,1.0198839323032416,B,646,Incorrect
1,new_learn,28,676,B,29.594509405860897,58.799655725302415,1.4797254702930447,0.9236228323010954,A,668,Incorrect
1,new_learn,28,677,B,35.57237735777373,37.851111606259686,1.7786188678886867,0.5945638707621639,B,290,Correct
1,new_learn,28,678,A,36.02084747557781,76.58300900430065,1.8010423737788903,1.2029630923885595,B,478,Incorrect
1,new_learn,28,679,A,74.39674096500895,41.389991011437765,3.719837048250447,0.6501524584684023,A,470,Correct
1,new_learn,28,680,A,49.287696249334985,66.24143145081575,2.4643848124667493,1.0405179720457733,B,1048,Incorrect
1,new_learn,28,681,A,40.07029113072504,77.8634249430532,2.0035145565362518,1.223075818922181,A,577,Correct
1,new_learn,28,682,B,12.507767578494693,64.42926403046752,0.6253883789247346,1.0120525127715694,A,758,Incorrect
1,new_learn,28,683,B,34.95205159926695,56.24675838604519,1.7476025799633477,0.8835220146691982,A,1296,Incorrect
1,new_learn,28,684,B,33.33817583047822,56.12901899983053,1.6669087915239111,0.8816725687153476,B,430,Correct
1,new_learn,28,685,B,30.59572977024306,55.43427096869903,1.529786488512153,0.8707594921618541,B,517,Correct
1,new_learn,28,686,A,42.76374187045171,76.23689847100495,2.1381870935225855,1.1975264008449005,B,489,Incorrect
1,new_learn,28,687,A,66.93574257323013,55.19455220598383,3.3467871286615063,0.8669939986424857,A,922,Correct
1,new_learn,28,688,A,82.23995415295525,33.40364546751384,4.111997707647762,0.5247032360192974,B,644,Incorrect
1,new_learn,28,689,B,17.92930995772914,54.294646848860424,0.896465497886457,0.8528583183481604,A,1114,Incorrect
1,new_learn,28,690,A,80.3978922323164,46.6083653089331,4.01989461161582,0.732122490251868,B,639,Incorrect
1,new_learn,28,691,A,38.955048109379774,84.12975692966694,1.9477524054689888,1.3215071315926832,A,1000,Correct
1,new_learn,28,692,B,13.806587974179749,65.82909282139279,0.6903293987089875,1.034040972000841,B,1364,Correct
1,new_learn,28,693,B,20.803141926481626,62.778518983046965,1.0401570963240814,0.9861226702019388,B,927,Correct
1,new_learn,28,694,B,42.80554768307225,42.70371464067016,2.1402773841536122,0.6707883809806212,A,1538,Incorrect
1,new_learn,28,695,A,36.42845773078174,84.46862178610729,1.8214228865390867,1.3268300083104472,B,1395,Incorrect
1,new_learn,28,696,A,82.66862153155407,45.49665212341971,4.133431076577704,0.714659740369329,B,1256,Incorrect
1,new_learn,28,697,A,70.49708355831167,43.978421032156,3.5248541779155835,0.6908114221555006,B,930,Incorrect
1,new_learn,28,698,B,27.810113768244573,49.173040340979384,1.3905056884122287,0.7724083114494769,A,1253,Incorrect
1,new_learn,28,699,A,39.98314085057492,81.86664281822328,1.9991570425287462,1.2859582182589493,A,967,Correct
1,new_learn,28,700,A,53.58604941446851,70.93263072526457,2.679302470723426,1.114207157931444,B,1948,Incorrect
1,new_learn,28,701,B,40.093259341826005,38.02199894118424,2.0046629670913005,0.5972481627421166,B,802,Correct
1,new_learn,28,702,B,66.86628335312902,10.809647429764254,3.343314167656451,0.16979754476621586,B,857,Correct
1,new_learn,28,703,A,43.66827755749458,81.78564344453982,2.1834138778747287,1.2846858830724024,A,793,Correct
1,new_learn,28,704,A,58.13018182609618,72.61116318790762,2.906509091304809,1.140573484198701,B,791,Incorrect
1,new_learn,28,705,B,29.734272369126096,40.428703072429,1.4867136184563048,0.6350525828325303,A,978,Incorrect
1,new_learn,28,706,A,47.90197022072992,65.04260558686458,2.395098511036496,1.0216868594101611,B,453,Incorrect
1,new_learn,28,707,B,23.664561776025042,46.1989028305986,1.183228088801252,0.7256906686825862,B,334,Correct
1,new_learn,28,708,A,66.35607660925994,51.228224178294525,3.3178038304629975,0.8046910636749055,A,634,Correct
1,new_learn,28,709,B,37.18531834104813,35.19950085084335,1.8592659170524064,0.5529124664151857,A,617,Incorrect
1,new_learn,28,710,B,42.67467396899532,26.676170103351325,2.133733698449766,0.419028300113001,B,350,Correct
1,new_learn,28,711,A,38.34050939096472,87.48949921407268,1.9170254695482358,1.3742818399859034,A,757,Correct
1,new_learn,28,712,B,30.579008250979832,51.39154675149134,1.5289504125489914,0.8072565286555079,A,906,Incorrect
1,new_learn,28,713,A,59.293233720231065,64.96226299950749,2.9646616860115533,1.0204248409991037,B,970,Incorrect
1,new_learn,28,714,B,43.82929810019448,36.88040171715691,2.191464905009724,0.5793159954803027,B,765,Correct
1,new_learn,28,715,B,32.021384946483465,35.93655570975871,1.6010692473241732,0.5644900970654915,B,720,Correct
1,new_learn,28,716,B,28.76935460339621,45.696691547208864,1.4384677301698106,0.7178019522903508,B,696,Correct
1,new_learn,28,717,A,86.20944574048605,39.615473220183006,4.310472287024302,0.6222783981850506,B,854,Incorrect
1,new_learn,28,718,A,58.90133978837046,62.059851525847655,2.945066989418523,0.9748338681823815,A,1196,Correct
1,new_learn,28,719,A,85.10318210125973,43.934906850361685,4.255159105062987,0.6901279029862407,A,913,Correct
1,new_learn,28,720,A,59.00025694506127,70.35150525959381,2.9500128472530633,1.105078860462618,A,3783,Correct
1,new_learn,28,721,A,57.76127820871584,57.27466449344579,2.888063910435792,0.8996683260471474,A,913,Correct
1,new_learn,28,722,A,57.958029590330156,50.755558219634764,2.897901479516508,0.7972664441582681,A,661,Correct
1,new_learn,28,723,A,59.736093878125295,64.99034479333176,2.9868046939062647,1.0208659487849936,A,1681,Correct
1,new_learn,28,724,A,41.06544642109895,72.98750190131602,2.0532723210549473,1.1464849988852275,A,1489,Correct
1,new_learn,28,725,B,58.14463152919276,31.121068365168426,2.907231576459638,0.4888485987393943,B,759,Correct
1,new_learn,28,726,A,74.1155531915695,44.06329812583783,3.7057776595784753,0.692144668425345,B,904,Incorrect
1,new_learn,28,727,B,54.1810196241006,24.771233317931816,2.70905098120503,0.3891056230598665,B,900,Correct
1,new_learn,28,728,A,52.9244191477729,77.21329102940771,2.6462209573886453,1.2128635392873897,A,1284,Correct
1,new_learn,28,729,A,68.0718849500979,64.34892558277082,3.403594247504895,1.0107905593861455,B,2833,Incorrect
1,new_learn,28,730,B,68.03278359105981,17.166402019249745,3.4016391795529906,0.2696492123612199,B,1186,Correct
1,new_learn,28,731,A,60.755278901974215,49.33250598113721,3.037763945098711,0.7749131918675759,A,1456,Correct
1,new_learn,28,732,A,66.68455818123617,50.416619701696845,3.3342279090618088,0.7919424103684061,A,1114,Correct
1,new_learn,28,733,B,44.501818620904814,43.90743441543096,2.2250909310452407,0.6896963669874678,A,594,Incorrect
1,new_learn,28,734,A,44.8667059768875,78.86252647164102,2.243335298844375,1.23876966903419,B,356,Incorrect
1,new_learn,28,735,A,67.0226207031401,54.62289282101254,3.351131035157005,0.8580143940215783,B,1170,Incorrect
1,new_learn,28,736,A,44.778272711261764,65.89147643505163,2.238913635563088,1.035020891512716,B,946,Incorrect
1,new_learn,28,737,A,56.611168559358255,54.08614962755409,2.830558427967913,0.8495832516544114,A,656,Correct
1,new_learn,28,738,B,15.872203616380538,57.6791770120857,0.793610180819027,0.9060223938313685,A,814,Incorrect
1,new_learn,28,739,A,50.71743396692711,78.64528630647695,2.5358716983463556,1.2353572684994696,A,1409,Correct
1,new_learn,28,740,A,47.199483832734856,72.61434321933986,2.359974191636743,1.1406234360156295,A,1423,Correct
1,new_learn,28,741,B,36.85962379731328,37.52720055200824,1.842981189865664,0.5894758878198996,B,783,Correct
1,new_learn,28,742,A,46.82344797517637,66.14114159523905,2.3411723987588187,1.0389426226782266,B,2656,Incorrect
1,new_learn,28,743,A,38.33455853962561,78.58117683037375,1.9167279269812807,1.2343502392037131,B,1522,Incorrect
1,new_learn,28,744,A,54.442296129422814,62.386030903252795,2.7221148064711405,0.9799574818614241,B,923,Incorrect
1,new_learn,28,745,A,63.349444553661,53.051418981100284,3.16747222768305,0.8333297406676937,B,127,Incorrect
1,new_learn,28,746,A,57.032782951556555,58.39204657015155,2.8516391475778278,0.917220122664306,B,139,Incorrect
1,new_learn,28,747,A,79.22522508939659,34.634935683221414,3.9612612544698296,0.544044297499817,A,437,Correct
1,new_learn,28,748,B,30.462216890864816,37.241888275320605,1.5231108445432409,0.5849942130577953,B,850,Correct
1,new_learn,28,749,A,36.22031189763399,78.14265844184938,1.8110155948816995,1.2274620084644523,A,1186,Correct
1,new_learn,28,750,A,76.29979517017135,36.21141109936987,3.8149897585085677,0.5688075154295014,B,729,Incorrect
1,new_learn,28,751,A,37.15177014125533,72.94722082676314,1.8575885070627662,1.1458522652457572,B,1514,Incorrect
1,new_learn,28,752,B,19.66586721102734,51.0377723762667,0.9832933605513671,0.8016994537643376,A,1701,Incorrect
1,new_learn,28,753,B,34.325003205594925,36.975253998994006,1.7162501602797462,0.5808059316392811,B,630,Correct
1,new_learn,28,754,A,39.49382908078178,81.289988327011,1.974691454039089,1.276900150692689,B,2034,Incorrect
1,new_learn,28,755,B,53.758407442889485,29.10704854165735,2.687920372144474,0.45721244933076116,A,338,Incorrect
1,new_learn,28,756,A,39.314963615574186,85.50260411223967,1.9657481807787094,1.3430717647090427,A,903,Correct
1,new_learn,28,757,B,15.648437358938892,66.85835707458136,0.7824218679469446,1.0502086170829399,B,679,Correct
1,new_learn,28,758,A,34.15277972389343,81.75260046143403,1.7076389861946717,1.2841668451075134,B,702,Incorrect
1,new_learn,28,759,B,43.372279629814436,42.67828306173363,2.1686139814907217,0.6703889026728403,B,610,Correct
1,new_learn,28,760,A,67.42367715355306,54.2940094102848,3.3711838576776527,0.8528483054864291,A,1815,Correct
1,new_learn,28,761,B,31.88719140251295,37.80668822424861,1.5943595701256477,0.5938660699092959,B,1405,Correct
1,new_learn,28,762,A,48.98931868349234,65.73315913592354,2.449465934174617,1.032534049193331,B,2155,Incorrect
1,new_learn,28,763,B,25.10917983654234,56.05152184388443,1.2554589918271168,0.8804552462363757,B,1786,Correct
1,new_learn,28,764,B,29.050135136550836,47.488396039911315,1.4525067568275418,0.7459459806487401,B,2481,Correct
1,new_learn,28,765,A,60.61901959005279,59.30033327652305,3.0309509795026397,0.9314874568847558,A,2764,Correct
1,new_learn,28,766,B,44.22683145290745,32.59340492309312,2.2113415726453725,0.5119760073093337,B,2154,Correct
1,new_learn,28,767,A,62.32371272008219,62.793106908972604,3.1161856360041096,0.986351816806534,B,6201,Incorrect
1,new_learn,28,768,A,49.138292150467414,77.62093776371925,2.4569146075233705,1.2192668392162547,B,646,Incorrect
1,new_learn,28,769,B,21.297237557031135,66.19177090185924,1.0648618778515568,1.0397379059668983,A,1034,Incorrect
1,new_learn,28,770,A,84.90055022572523,37.58534150474148,4.245027511286262,0.5903891637697969,B,1228,Incorrect
1,new_learn,28,771,B,44.95340442901828,25.10613253714338,2.247670221450914,0.3943662076937066,B,380,Correct
1,new_learn,28,772,A,52.62432873136627,64.32013224042593,2.6312164365683133,1.0103382746222305,A,725,Correct
1,new_learn,28,773,B,40.368353326735935,52.24363986912752,2.0184176663367968,0.8206411760482093,B,696,Correct
1,new_learn,28,774,B,30.958665429330395,40.54046867787808,1.5479332714665197,0.6368081928575444,A,722,Incorrect
1,new_learn,28,775,A,43.04983124277159,81.45522850017063,2.152491562138579,1.27949573726307,B,1261,Incorrect
1,new_learn,28,776,A,43.60374438036353,71.13624300413866,2.1801872190181766,1.1174054921289016,B,426,Incorrect
1,new_learn,28,777,A,78.87844652461018,39.303704241161235,3.943922326230509,0.6173811425144907,B,833,Incorrect
1,new_learn,28,778,A,68.44244995346752,63.2358045877273,3.422122497673376,0.993305695683219,A,530,Correct
1,new_learn,28,779,A,83.07675386412552,47.390333262310044,4.153837693206276,0.7444056141402263,B,755,Incorrect
1,new_learn,28,780,B,33.247766346517686,41.083947881454115,1.6623883173258844,0.645345144224211,B,478,Correct
1,new_learn,28,781,A,77.97739497416408,53.31391297287794,3.8988697487082042,0.8374529866485945,A,1084,Correct
1,new_learn,28,782,B,48.74867657202529,19.627028864146794,2.4374338286012645,0.30830064845699195,B,567,Correct
1,new_learn,28,783,B,34.261372756909886,38.40668780798782,1.7130686378454942,0.6032908413314562,A,896,Incorrect
1,new_learn,28,784,A,55.322062376517835,66.14969096142644,2.7661031188258915,1.0390769158082622,B,689,Incorrect
1,new_learn,28,785,B,17.739261299856913,65.01005137617639,0.8869630649928456,1.0211754990644537,B,2163,Correct
1,new_learn,28,786,A,45.13605177148134,78.31425507895463,2.256802588574067,1.2301574421370052,B,1365,Incorrect
1,new_learn,28,787,A,50.6272787068249,79.81400335391979,2.531363935341245,1.2537154329513276,B,703,Incorrect
1,new_learn,28,788,B,57.09938229196915,28.556015578756416,2.8549691145984575,0.4485568437900842,B,664,Correct
1,new_learn,28,789,A,83.83000947087854,32.35055983029423,4.191500473543926,0.5081614055118471,A,827,Correct
1,new_learn,28,790,A,82.79613171161333,46.35391664684377,4.139806585580667,0.72812562001419,B,3866,Incorrect
1,new_learn,28,791,B,62.7515551829506,27.960029206942707,3.13757775914753,0.4391951117534363,B,652,Correct
1,new_learn,28,792,B,16.792825034828127,64.33978588995141,0.8396412517414064,1.0106469934270579,B,476,Correct
1,new_learn,28,793,B,40.80024991340641,35.4742841924252,2.0400124956703207,0.5572287530513977,A,936,Incorrect
1,new_learn,28,794,A,79.57011527615329,52.19183426725424,3.9785057638076644,0.8198274155569096,B,348,Incorrect
1,new_learn,28,795,B,18.626234965454817,59.6327854493524,0.9313117482727408,0.9367096034039091,B,328,Correct
1,new_learn,28,796,B,37.044922237950956,31.196287424098614,1.852246111897548,0.49003013695411923,B,308,Correct
1,new_learn,28,797,B,43.91577360952733,31.45035898758917,2.195788680476366,0.4940210837408593,B,420,Correct
1,new_learn,28,798,B,55.83896093382283,25.870670289560024,2.7919480466911413,0.4063755386256275,B,265,Correct
1,new_learn,28,799,A,70.71902880870395,42.57391053547016,3.535951440435198,0.6687494228641108,B,754,Incorrect
1,new_learn,28,800,B,32.42537029015441,42.000483217030116,1.6212685145077206,0.659742047609216,A,467,Incorrect
1,new_learn,28,801,A,34.43639599136649,83.45901482735472,1.7218197995683244,1.310971139287296,A,727,Correct
1,new_learn,28,802,B,39.44508612420519,30.602629205590304,1.9722543062102595,0.48070497546407476,B,1639,Correct
1,new_learn,28,803,B,25.155690129216786,52.60913722475204,1.2577845064608395,0.8263823950848915,A,778,Incorrect
1,new_learn,28,804,B,63.892450232525306,14.31610932132233,3.1946225116262656,0.22487691935927295,B,534,Correct
1,new_learn,28,805,A,73.32286049957564,44.932612677019854,3.666143024978782,0.705799829463606,B,571,Incorrect
1,new_learn,28,806,B,67.95318664214831,17.474185003212,3.3976593321074153,0.2744838561677988,B,502,Correct
1,new_learn,28,807,A,69.66191496873817,45.14137455291521,3.483095748436909,0.7090790533419183,A,805,Correct
1,new_learn,28,808,A,68.60117310679922,54.85067166641329,3.4300586553399612,0.8615923357583491,B,769,Incorrect
1,new_learn,28,809,B,64.68374102375809,23.81048629627844,3.2341870511879045,0.37401424413394396,B,2819,Correct
1,new_learn,28,810,B,29.80940705247928,40.00214406106146,1.490470352623964,0.6283522095503562,A,455,Incorrect
1,new_learn,28,811,A,43.80380421296873,84.12569964339575,2.1901902106484363,1.3214433998889679,A,751,Correct
1,new_learn,28,812,B,69.64857011836231,14.44925389484095,3.482428505918116,0.22696834942943017,B,791,Correct
1,new_learn,28,813,A,73.80438540740792,58.10322575483986,3.690219270370396,0.9126833359063709,B,969,Incorrect
1,new_learn,28,814,B,54.78649423822159,30.822006772784306,2.7393247119110797,0.48415095023137006,A,2321,Incorrect
1,new_learn,28,815,B,41.80211001493927,27.577230464159427,2.0901055007469633,0.43318212316277943,B,953,Correct
1,new_learn,28,816,A,48.10035254026769,71.78839815580062,2.4050176270133847,1.1276495212962114,B,1110,Incorrect
1,new_learn,28,817,A,72.09293361781992,55.22960485393302,3.6046466808909963,0.8675446043489158,B,715,Incorrect
1,new_learn,28,818,B,61.98144598767752,27.142412012807355,3.0990722993838755,0.4263520109007147,A,432,Incorrect
1,new_learn,28,819,A,69.14493717714815,43.80888547945021,3.457246858857408,0.6881483639209868,B,843,Incorrect
1,new_learn,28,820,B,53.53523940750352,33.94931723974716,2.6767619703751757,0.5332746281738949,B,429,Correct
1,new_learn,28,821,B,17.814555785566817,66.76019428505538,0.890727789278341,1.0486666795907862,A,362,Incorrect
1,new_learn,28,822,B,12.764345757866188,61.862316901345125,0.6382172878933094,0.9717310015565477,B,300,Correct
1,new_learn,28,823,B,29.655424593107163,48.48576055941258,1.4827712296553583,0.7616125458858215,B,398,Correct
1,new_learn,28,824,B,39.298045775148005,31.068289117622015,1.9649022887574004,0.48801954425762517,B,649,Correct
1,new_learn,28,825,A,69.19684775832137,52.72385194214922,3.4598423879160687,0.8281843296520596,A,901,Correct
1,new_learn,28,826,B,35.76098908763089,54.22655151948122,1.7880494543815444,0.8517886794155531,A,108,Incorrect
1,new_learn,28,827,B,47.46298624522967,40.75453525649851,2.3731493122614835,0.6401707428114096,B,406,Correct
1,new_learn,28,828,B,48.66516030124187,39.636294369601714,2.4332580150620937,0.622605456035316,B,786,Correct
1,new_learn,28,829,A,33.50331312261248,80.77733208225953,1.6751656561306243,1.2688473652310484,A,627,Correct
1,new_learn,28,830,B,23.024923962165733,59.11680006696939,1.1512461981082867,0.9286045239706381,B,1724,Correct
1,new_learn,28,831,B,37.79576978513089,54.597185409248354,1.8897884892565444,0.8576105829418722,A,840,Incorrect
1,new_learn,28,832,A,72.24728504967943,56.77765489156927,3.6123642524839714,0.8918613174770531,B,636,Incorrect
1,new_learn,28,833,B,60.67863196490074,29.983981763118408,3.033931598245037,0.4709872841619156,B,466,Correct
1,new_learn,28,834,A,35.30578864697891,76.99100710788878,1.7652894323489454,1.2093719116131147,A,848,Correct
1,new_learn,28,835,A,55.782517778051385,56.22080106273512,2.789125888902569,0.8831142779881096,B,971,Incorrect
1,new_learn,28,836,B,18.37927811121101,57.15593476234827,0.9189639055605505,0.8978033237922541,A,266,Incorrect
1,new_learn,28,837,B,26.53236052714371,58.74120561437765,1.3266180263571854,0.9227047001056816,A,432,Incorrect
1,new_learn,28,838,A,48.384401089840566,61.0811154986557,2.4192200544920284,0.959459918618232,B,340,Incorrect
1,new_learn,28,839,B,44.02580058015716,33.16785564760633,2.201290029007858,0.5209994581892339,B,260,Correct
1,new_learn,28,840,A,81.15673245581907,41.65420635607536,4.057836622790953,0.6543027433967981,B,5386,Incorrect
1,new_learn,28,841,B,33.976444238979205,47.478906521942044,1.6988222119489604,0.7457969196490483,A,307,Incorrect
1,new_learn,28,842,B,43.44064175898718,32.34498851399,2.1720320879493586,0.5080738914799862,A,446,Incorrect
1,new_learn,28,843,B,27.1183336587152,44.3577098716851,1.3559166829357598,0.6967692773147668,A,659,Incorrect
1,new_learn,28,844,B,28.919626434466203,47.59586028416757,1.4459813217233102,0.7476340250501353,B,613,Correct
1,new_learn,28,845,B,45.41529975611818,32.60554208708385,2.270764987805909,0.5121666574354771,A,733,Incorrect
1,new_learn,28,846,B,28.104147088076054,41.24759598117588,1.4052073544038026,0.6479157225635099,B,577,Correct
1,new_learn,28,847,B,64.32422394737135,16.85674921098908,3.2162111973685676,0.26478519742324413,B,1084,Correct
1,new_learn,28,848,A,74.91611265538002,51.96023339817008,3.7458056327690006,0.8161894376125106,A,699,Correct
1,new_learn,28,849,A,61.372089922372865,47.39135709618258,3.0686044961186436,0.7444216964850886,B,708,Incorrect
1,new_learn,28,850,A,51.88740783674001,56.96132422811775,2.5943703918370007,0.8947463886690051,A,854,Correct
1,new_learn,28,851,A,50.11030942558311,79.85576917740686,2.5055154712791556,1.254371488972518,B,779,Incorrect
1,new_learn,28,852,A,32.06901410445879,88.7362682562349,1.6034507052229394,1.3938660423038034,A,1115,Correct
1,new_learn,28,853,B,49.064294043141786,35.41784970137891,2.4532147021570894,0.5563422821389972,B,678,Correct
1,new_learn,28,854,B,41.01474883851993,30.16009891319314,2.0507374419259965,0.47375372588614534,B,710,Correct
1,new_learn,28,855,B,57.02189768479654,17.149810236623438,2.8510948842398274,0.26938858924917614,B,1071,Correct
1,new_learn,28,856,A,46.40963352429154,73.66915635955021,2.3204816762145772,1.1571924020766036,A,1472,Correct
1,new_learn,28,857,A,45.43386459652859,83.95794363585182,2.27169322982643,1.3188082946844901,A,1211,Correct
1,new_learn,28,858,A,31.264964269531436,82.56663831176961,1.5632482134765717,1.2969537217593048,A,1870,Correct
1,new_learn,28,859,A,59.64241739645855,58.0556531794104,2.9821208698229276,0.911936067638963,B,4356,Incorrect
1,new_learn,28,860,B,54.44310190176182,20.16424122259592,2.7221550950880906,0.316739160450599,B,927,Correct
1,new_learn,28,861,B,27.599530150091493,60.4069256933268,1.3799765075045747,0.9488697699204999,B,1707,Correct
1,new_learn,28,862,B,59.99333276813754,22.42172458794687,2.999666638406877,0.35219962623153755,A,2155,Incorrect
1,new_learn,28,863,B,17.980119779364585,67.58996083310964,0.8990059889682293,1.0617006220485954,B,411,Correct
1,new_learn,28,864,A,78.3904833861326,50.25597976192287,3.91952416930663,0.789419084095071,B,485,Incorrect
1,new_learn,28,865,A,73.25715477562966,44.68753388996918,3.662857738781483,0.7019501408788603,A,408,Correct
1,new_learn,28,866,B,30.333168656237437,56.23235771813458,1.516658432811872,0.8832958095066245,A,844,Incorrect
1,new_learn,28,867,B,56.83364290599894,30.38098357906655,2.8416821452999472,0.4772233741041381,B,558,Correct
1,new_learn,28,868,A,52.16156400121923,73.07360805310192,2.6080782000609615,1.1478375511546246,B,395,Incorrect
1,new_learn,28,869,A,67.60213521830096,54.80057327832607,3.3801067609150484,0.8608053921184915,B,1803,Incorrect
1,new_learn,28,870,B,26.176115312871957,44.60985161875098,1.3088057656435979,0.700729910615994,B,1151,Correct
1,new_learn,28,871,B,28.382999118856976,54.69363816489768,1.4191499559428487,0.8591256592847044,B,913,Correct
1,new_learn,28,872,A,53.952243521668805,77.91141998805189,2.6976121760834406,1.223829723326064,A,954,Correct
1,new_learn,28,873,B,60.48673931224306,26.78011340997287,3.024336965612153,0.4206610377553614,B,652,Correct
1,new_learn,28,874,A,48.29404297460245,64.47163610552968,2.4147021487301226,1.0127180917702328,A,1101,Correct
1,new_learn,28,875,B,46.40143300052293,23.120080462593336,2.3200716500261462,0.3631693746584407,B,760,Correct
1,new_learn,28,876,B,61.48949192458244,23.845163212777834,3.074474596229122,0.3745589478645621,A,3132,Incorrect
1,new_learn,28,877,A,58.26786029894623,60.58639210687313,2.9133930149473115,0.9516888217523162,B,820,Incorrect
1,new_learn,28,878,B,35.980628609568065,47.17098116575784,1.7990314304784034,0.7409600394648367,B,339,Correct
1,new_learn,28,879,A,40.71150932807433,82.98284890159952,2.0355754664037162,1.3034915424160847,A,770,Correct
1,new_learn,28,880,B,41.602948339427094,42.34292057285036,2.0801474169713545,0.665121041016014,B,1767,Correct
1,new_learn,28,881,B,32.14419843513713,55.31523390092838,1.6072099217568563,0.8688896622737884,B,2617,Correct
1,new_learn,28,882,A,64.35118529100478,63.93981793523752,3.2175592645502387,1.0043643114860554,A,593,Correct
1,new_learn,28,883,B,32.54470735561773,50.67230284173483,1.6272353677808866,0.7959586717403567,B,665,Correct
1,new_learn,28,884,B,16.06135006389846,60.91963646227707,0.8030675031949229,0.9569234118462527,B,1384,Correct
1,new_learn,28,885,B,61.21624691368457,29.136951549828893,3.0608123456842287,0.4576821646847209,A,807,Incorrect
1,new_learn,28,886,B,29.353168863180553,51.726849217442435,1.4676584431590276,0.8125234474743205,B,1633,Correct
1,new_learn,28,887,B,31.574465253291194,49.38551389910028,1.5787232626645595,0.7757458382958502,B,805,Correct
1,new_learn,28,888,A,35.75028773170276,83.92692336551076,1.7875143865851382,1.3183210294174108,A,716,Correct
1,new_learn,28,889,B,69.67726616488302,13.582979144412874,3.483863308244151,0.2133609374697543,B,1793,Correct
1,new_learn,28,890,A,52.12123343597082,62.57660519278733,2.6060616717985408,0.9829510158012481,A,2503,Correct
1,new_learn,28,891,A,37.113323416725436,78.27284209519024,1.8556661708362718,1.229506928509218,A,858,Correct
1,new_learn,28,892,A,33.36959146251459,78.83913809879259,1.6684795731257296,1.2384022853325898,B,1012,Incorrect
1,new_learn,28,893,B,59.90403314941922,19.931148051519017,2.995201657470961,0.3130777414813133,B,1821,Correct
1,new_learn,28,894,A,49.31610092420934,64.58844580915809,2.465805046210467,1.0145529343041677,A,609,Correct
1,new_learn,28,895,B,32.07211575258344,54.67766967762599,1.603605787629172,0.858874826873196,A,744,Incorrect
1,new_learn,28,896,B,35.022184648547,37.80729700372908,1.75110923242735,0.5938756325950134,A,497,Incorrect
1,new_learn,28,897,B,56.13674432162463,25.387447843415757,2.806837216081232,0.3987850981913449,A,415,Incorrect
1,new_learn,28,898,B,33.00113016469315,48.63589602823322,1.6500565082346577,0.7639708683152724,A,730,Incorrect
