experiment,condition,subject,trial,cat,x,y,xt,yt,resp,rt,fb
1,new_learn,26,0,B,79.06833935756072,58.0891487717438,3.9534169678780358,0.9124622151729743,B,920,Correct
1,new_learn,26,1,B,66.12981422559328,47.634770019525774,3.306490711279664,0.7482452177439075,B,924,Correct
1,new_learn,26,2,B,49.37693335171306,35.21314802948203,2.468846667585653,0.5531268357959532,B,1644,Correct
1,new_learn,26,3,B,37.5787079769289,19.224388657603473,1.878935398846445,0.30197599088241006,A,981,Incorrect
1,new_learn,26,4,A,52.94838815261492,62.34944762194392,2.647419407630746,0.979382833022403,B,834,Incorrect
1,new_learn,26,5,A,36.96392304232624,44.6550524840116,1.8481961521163124,0.7014399241471874,B,1370,Incorrect
1,new_learn,26,6,A,16.29104765291178,30.751711966272026,0.8145523826455888,0.48304676199274765,A,943,Correct
1,new_learn,26,7,B,45.92186885304764,16.28373318174577,2.2960934426523822,0.2557842826839443,B,789,Correct
1,new_learn,26,8,A,42.57891754160426,50.77671438119525,2.128945877080213,0.7975987643669509,B,975,Incorrect
1,new_learn,26,9,A,27.61900258446709,48.40394875010915,1.3809501292233546,0.7603274489903986,B,1479,Incorrect
1,new_learn,26,10,A,48.47126393694518,57.50976912351733,2.423563196847259,0.9033613409404357,B,2309,Incorrect
1,new_learn,26,11,B,84.59810676919174,66.258614138843,4.229905338459587,1.0407878770781498,B,978,Correct
1,new_learn,26,12,A,36.2556227431062,44.9939107610624,1.81278113715531,0.7067626975161418,A,928,Correct
1,new_learn,26,13,B,77.00585962472965,59.772327779386835,3.8502929812364823,0.938901529198414,B,954,Correct
1,new_learn,26,14,A,45.574299688246356,76.77486698147754,2.278714984412318,1.205976790446717,A,1441,Correct
1,new_learn,26,15,A,29.670460562984857,43.70487645922644,1.4835230281492429,0.6865145940517764,B,1075,Incorrect
1,new_learn,26,16,A,40.83407808429816,48.41729274335416,2.0417039042149083,0.7605370559461392,A,1599,Correct
1,new_learn,26,17,A,58.847763207910106,77.50380683668583,2.9423881603955055,1.217426950916873,B,714,Incorrect
1,new_learn,26,18,B,58.74199618520119,43.29756303532693,2.9370998092600593,0.6801165297506204,B,1201,Correct
1,new_learn,26,19,B,52.822683100336256,33.360360345528406,2.641134155016813,0.5240233149131014,B,1009,Correct
1,new_learn,26,20,B,35.35644246562515,22.656866757671875,1.7678221232812574,0.35589323079632385,A,972,Incorrect
1,new_learn,26,21,B,33.97313701222238,14.078055913719275,1.6986568506111188,0.22113758517683407,B,959,Correct
1,new_learn,26,22,A,59.33975531241161,85.98732487564868,2.9669877656205808,1.3506857406558839,A,883,Correct
1,new_learn,26,23,A,48.62194159237392,66.60656958168772,2.4310970796186964,1.0462535483932376,B,814,Incorrect
1,new_learn,26,24,B,61.97441353083943,32.80603586776449,3.0987206765419715,0.5153160063778609,B,684,Correct
1,new_learn,26,25,A,21.34524609297059,38.49610471420327,1.0672623046485297,0.604695398809822,A,686,Correct
1,new_learn,26,26,A,14.670198062155663,32.56316396563728,0.7335099031077832,0.5115009834604298,A,722,Correct
1,new_learn,26,27,A,35.90164301495157,65.61063584429584,1.7950821507475783,1.0306094578289748,A,1019,Correct
1,new_learn,26,28,B,77.05984488750973,64.72718623137635,3.852992244375486,1.016732263760152,B,647,Correct
1,new_learn,26,29,B,78.40679803828684,61.523445917234675,3.920339901914342,0.9664080285855671,B,839,Correct
1,new_learn,26,30,B,48.5142206296147,33.417159878134264,2.425711031480735,0.524915519884911,A,937,Incorrect
1,new_learn,26,31,A,63.53893058198764,84.49821633852099,3.176946529099382,1.3272948784526928,B,854,Incorrect
1,new_learn,26,32,B,57.69740793329771,34.75728593452099,2.8848703966648857,0.545966170753055,B,1306,Correct
1,new_learn,26,33,A,51.766010297870636,75.48954986882545,2.588300514893532,1.1857870764535117,A,1316,Correct
1,new_learn,26,34,A,16.74391057092262,32.5926759355483,0.837195528546131,0.5119645563997569,A,888,Correct
1,new_learn,26,35,A,61.907898454554044,71.67715458668867,3.095394922727702,1.1259021113988052,B,937,Incorrect
1,new_learn,26,36,B,45.135635986537416,19.06990521464634,2.2567817993268706,0.29954937063493314,B,1314,Correct
1,new_learn,26,37,A,23.82174739089475,52.403033420765475,1.1910873695447375,0.8231449241024862,A,627,Correct
1,new_learn,26,38,A,52.64842246235443,66.93083780716415,2.6324211231177217,1.0513471417679845,B,963,Incorrect
1,new_learn,26,39,A,47.26371325727167,54.20240216264672,2.3631856628635832,0.8514093422054523,B,1313,Incorrect
1,new_learn,26,40,B,58.04843833412756,48.55209134389861,2.902421916706378,0.7626544674120623,B,2006,Correct
1,new_learn,26,41,B,72.13452719721116,44.742768981195326,3.6067263598605575,0.7028177716629425,B,972,Correct
1,new_learn,26,42,B,81.71406662088796,57.05183006787719,4.085703331044398,0.8961680510754813,B,857,Correct
1,new_learn,26,43,B,34.62094848290049,20.08620921547045,1.7310474241450242,0.31551343654894787,A,774,Incorrect
1,new_learn,26,44,B,61.620905645638864,46.480356841034265,3.081045282281943,0.7301117379401266,B,890,Correct
1,new_learn,26,45,A,30.850200791075753,59.00222816851345,1.5425100395537876,0.9268048327981528,A,765,Correct
1,new_learn,26,46,B,75.75728764514083,58.96365673761592,3.7878643822570415,0.9261989541784224,B,671,Correct
1,new_learn,26,47,B,59.86719182603178,50.61677805602948,2.993359591301589,0.7950864904460363,B,683,Correct
1,new_learn,26,48,A,38.69272930360584,68.5392904548155,1.9346364651802919,1.0766126568755268,A,874,Correct
1,new_learn,26,49,A,48.30344596589197,74.52954196449288,2.4151722982945985,1.1707073075553152,A,1406,Correct
1,new_learn,26,50,B,36.7110139847651,26.368264099131675,1.835550699238255,0.41419172390873776,A,1655,Incorrect
1,new_learn,26,51,A,19.40201489162795,43.26607985446563,0.9701007445813974,0.6796219931020928,A,852,Correct
1,new_learn,26,52,B,66.76484124768942,42.88827893580601,3.338242062384471,0.6736875101491901,B,657,Correct
1,new_learn,26,53,B,76.89840649726715,59.39637104905371,3.8449203248633577,0.9329960146880032,B,686,Correct
1,new_learn,26,54,B,75.09550132556835,62.13855918914996,3.754775066278418,0.9760702052664401,B,642,Correct
1,new_learn,26,55,B,36.077000718768645,14.427667579672768,1.8038500359384324,0.226629272383678,A,1454,Incorrect
1,new_learn,26,56,A,54.57376536369109,63.62462057982459,2.728688268184554,0.9994132030050745,B,984,Incorrect
1,new_learn,26,57,B,55.3067112618999,23.95085624285982,2.765335563094995,0.3762191700987682,B,649,Correct
1,new_learn,26,58,B,78.96903922204795,49.14324728752607,3.948451961102398,0.7719403232601921,B,877,Correct
1,new_learn,26,59,B,76.40547398404132,56.20438518346744,3.8202736992020663,0.8828564179595615,B,668,Correct
1,new_learn,26,60,B,39.229459950908776,23.02723614547983,1.961472997545439,0.3617109795355839,A,895,Incorrect
1,new_learn,26,61,A,47.46792797247865,75.17668705991717,2.3733963986239326,1.1808726389432733,A,900,Correct
1,new_learn,26,62,A,59.72910049917158,68.65837445511983,2.986455024958579,1.0784832239781077,B,761,Incorrect
1,new_learn,26,63,A,36.431572624691,55.08199229123732,1.82157863123455,0.865225911636204,A,1035,Correct
1,new_learn,26,64,B,73.68425894032073,42.448770657229275,3.6842129470160363,0.6667837302533474,B,714,Correct
1,new_learn,26,65,A,46.53955380864997,69.54762920741507,2.3269776904324986,1.0924516049630106,A,1353,Correct
1,new_learn,26,66,A,38.69798948813369,67.96048842659033,1.9348994744066845,1.0675208558767517,A,1163,Correct
1,new_learn,26,67,B,55.61849876031758,30.180271390713315,2.7809249380158794,0.4740705944220558,B,635,Correct
1,new_learn,26,68,B,56.095611668638334,24.678675259611587,2.8047805834319166,0.38765172447961965,B,781,Correct
1,new_learn,26,69,A,17.063556976611743,39.678675954420044,0.8531778488305872,0.6232711844128799,A,728,Correct
1,new_learn,26,70,A,12.851817254519933,31.468066497685758,0.6425908627259966,0.4942992326590233,A,745,Correct
1,new_learn,26,71,B,37.46038180860363,24.304117058289776,1.8730190904301816,0.3817681780115476,B,644,Correct
1,new_learn,26,72,A,53.438867646682475,75.38350270847107,2.671943382334124,1.184121291553995,B,1153,Incorrect
1,new_learn,26,73,A,14.659436317525046,38.378383591044695,0.7329718158762524,0.6028462397313855,A,751,Correct
1,new_learn,26,74,A,44.83558384172288,56.952933381986384,2.241779192086144,0.8946145855661867,B,899,Incorrect
1,new_learn,26,75,B,31.180835254766478,11.901232443275852,1.5590417627383237,0.1869441220622996,A,1279,Incorrect
1,new_learn,26,76,A,40.91242868696764,52.74778965395793,2.045621434348382,0.8285603423498696,B,1736,Incorrect
1,new_learn,26,77,A,22.620870472240647,43.672039532768075,1.1310435236120324,0.685998792817136,A,557,Correct
1,new_learn,26,78,B,45.98967593035704,19.926476893986912,2.299483796517852,0.3130043671103802,B,673,Correct
1,new_learn,26,79,B,64.08557324587092,33.4411952539408,3.204278662293546,0.5252930666852114,B,857,Correct
1,new_learn,26,80,B,45.43246352030542,21.6691123471686,2.2716231760152708,0.34037762079838374,B,1024,Correct
1,new_learn,26,81,A,56.4081841761931,65.82695962661396,2.8204092088096555,1.0340074638556116,B,1344,Incorrect
1,new_learn,26,82,A,34.70320231963535,57.171824812547946,1.7351601159817676,0.8980529241171165,A,1590,Correct
1,new_learn,26,83,A,44.04978894631155,62.10627549330478,2.2024894473155774,0.9755630941579503,B,1324,Incorrect
1,new_learn,26,84,B,63.78126879228078,37.35943877942411,3.189063439614039,0.5868406920583821,B,904,Correct
1,new_learn,26,85,A,60.78401361614792,81.06028462020089,3.039200680807396,1.2732919733036039,A,1026,Correct
1,new_learn,26,86,A,27.44487986827292,53.087884403756114,1.3722439934136461,0.8339025381873219,B,943,Incorrect
1,new_learn,26,87,B,62.54838745482574,35.939016257875025,3.127419372741287,0.5645287472649215,B,733,Correct
1,new_learn,26,88,B,57.44057794575033,27.94390051536318,2.8720288972875165,0.438941762858545,B,1851,Correct
1,new_learn,26,89,A,60.679399317948416,77.7115754744004,3.0339699658974206,1.2206905730463253,A,1827,Correct
1,new_learn,26,90,A,13.835172915098003,37.30252156505556,0.6917586457549001,0.5859466385457668,A,798,Correct
1,new_learn,26,91,B,65.53074460820557,47.18923364945418,3.2765372304102782,0.7412467488082876,B,1366,Correct
1,new_learn,26,92,B,60.60705255656661,30.64330801498616,3.0303526278283304,0.4813439567078488,B,1031,Correct
1,new_learn,26,93,A,32.392610272221845,51.60602283503552,1.6196305136110922,0.8106255110976734,A,731,Correct
1,new_learn,26,94,B,59.69002112770779,42.502808422098916,2.9845010563853895,0.6676325534790017,B,743,Correct
1,new_learn,26,95,B,47.6423791843834,37.773983650373594,2.38211895921917,0.5933523476641732,B,1222,Correct
1,new_learn,26,96,B,60.40551693885071,29.003815254387952,3.0202758469425355,0.45559086464630383,B,750,Correct
1,new_learn,26,97,A,65.46181647585581,85.54378369586239,3.2730908237927907,1.3437186120959779,A,908,Correct
1,new_learn,26,98,A,17.024220869742287,31.368112438895622,0.8512110434871144,0.49272915797506545,A,759,Correct
1,new_learn,26,99,B,79.63358443224253,56.986684041335224,3.981679221612126,0.895144739683507,B,927,Correct
1,new_learn,26,100,A,40.92730439973756,61.2874267186889,2.046365219986878,0.9627006476842791,B,1102,Incorrect
1,new_learn,26,101,B,86.65835683699378,58.073248149829425,4.332917841849689,0.9122124487880059,B,755,Correct
1,new_learn,26,102,A,57.026379742791676,72.4708909314445,2.851318987139584,1.138370092746666,A,1006,Correct
1,new_learn,26,103,A,45.54180585964203,61.804319438722736,2.2770902929821015,0.9708199795440409,A,673,Correct
1,new_learn,26,104,A,44.99810752390574,62.04842814049699,2.249905376195287,0.9746544300648976,A,559,Correct
1,new_learn,26,105,B,68.43701074838664,55.21377791391453,3.4218505374193318,0.8672959953564613,B,741,Correct
1,new_learn,26,106,B,68.04296376420554,50.622418378625035,3.4021481882102766,0.7951750884261867,B,948,Correct
1,new_learn,26,107,A,13.811410238867222,33.614850914213164,0.6905705119433612,0.5280208434180411,A,655,Correct
1,new_learn,26,108,A,68.05663108108561,86.03683475833441,3.40283155405428,1.3514634400745118,A,741,Correct
1,new_learn,26,109,A,42.935524918709376,71.17730684931885,2.146776245935469,1.1180505215006329,A,1169,Correct
1,new_learn,26,110,B,44.92738630139602,33.366033954640095,2.246369315069801,0.5241124357566246,B,634,Correct
1,new_learn,26,111,B,50.565284097195814,33.504179389409266,2.5282642048597905,0.5262824191716136,B,861,Correct
1,new_learn,26,112,B,65.0564087912846,55.5410192351748,3.2528204395642297,0.8724362900105727,B,961,Correct
1,new_learn,26,113,A,49.739362500795345,58.073129467501175,2.4869681250397675,0.9122105845303532,B,780,Incorrect
1,new_learn,26,114,B,53.18295733107088,31.369176340358493,2.6591478665535444,0.49274586970016504,B,884,Correct
1,new_learn,26,115,A,45.92794830440238,77.90204608432842,2.296397415220119,1.2236824783906983,B,1367,Incorrect
1,new_learn,26,116,A,25.339592101260475,57.19990577849053,1.2669796050630238,0.8984940188986711,A,1628,Correct
1,new_learn,26,117,A,17.42329661897822,46.78734086284547,0.871164830948911,0.7349338316785842,A,1007,Correct
1,new_learn,26,118,A,25.20726795883521,39.23880434144711,1.2603633979417606,0.6163616972736875,A,1090,Correct
1,new_learn,26,119,A,18.534135195944618,39.96840612397909,0.9267067597972308,0.6278222552739301,A,1215,Correct
1,new_learn,26,120,A,30.513051256343218,59.363418262820325,1.5256525628171607,0.9324783935322725,B,1242,Incorrect
1,new_learn,26,121,A,66.47404502018165,79.5079572021586,3.3237022510090823,1.2489080712411655,B,678,Incorrect
1,new_learn,26,122,B,83.36855278239611,59.92625100145829,4.168427639119805,0.9413193495167967,B,651,Correct
1,new_learn,26,123,A,18.637256807280803,43.03206307068615,0.9318628403640402,0.6759460660584011,A,606,Correct
1,new_learn,26,124,A,30.282037098609468,47.890608604299885,1.5141018549304734,0.7522639208360632,A,846,Correct
1,new_learn,26,125,B,48.25552867132087,38.12646882312559,2.412776433566043,0.5988891718102581,B,870,Correct
1,new_learn,26,126,A,34.7987599547741,45.85578740950168,1.7399379977387048,0.720301024251329,A,762,Correct
1,new_learn,26,127,B,59.32512566866698,39.55665721453748,2.966256283433349,0.6213545185288032,B,701,Correct
1,new_learn,26,128,A,20.98875059675312,40.15138535293687,1.0494375298376561,0.6306964862811965,A,694,Correct
1,new_learn,26,129,B,78.18860548121607,59.00944965280402,3.909430274060804,0.9269182676081293,B,705,Correct
1,new_learn,26,130,B,66.31285860150943,41.52485117782774,3.3156429300754717,0.6522708370083655,B,645,Correct
1,new_learn,26,131,B,37.68938514611594,25.916341762768635,1.8844692573057968,0.4070929444491815,A,1609,Incorrect
1,new_learn,26,132,A,56.29256523338357,78.86230588936095,2.8146282616691787,1.2387662041358372,A,1052,Correct
1,new_learn,26,133,A,34.81913038151576,68.19632186291948,1.7409565190757883,1.071225318831964,B,868,Incorrect
1,new_learn,26,134,B,67.41477188295761,38.76596459377687,3.3707385941478805,0.6089343478856573,B,854,Correct
1,new_learn,26,135,A,30.196347642569556,53.337483761964805,1.5098173821284777,0.8378232357377675,A,948,Correct
1,new_learn,26,136,B,33.22480206432228,12.255163996045496,1.6612401032161142,0.19250366589257328,B,850,Correct
1,new_learn,26,137,B,51.60080361681084,20.166989059674037,2.5800401808405424,0.3167823233744884,B,672,Correct
1,new_learn,26,138,A,19.387652793725294,34.180159607159744,0.9693826396862647,0.5369006916018981,A,843,Correct
1,new_learn,26,139,B,64.30523155723037,39.37876532278778,3.215261577861519,0.6185601992275329,B,552,Correct
1,new_learn,26,140,A,53.10505813034635,62.88145186303885,2.6552529065173176,0.9877395360999153,B,574,Incorrect
1,new_learn,26,141,A,61.88765386715815,83.60060150561858,3.094382693357908,1.3131951776286959,A,1301,Correct
1,new_learn,26,142,A,61.16879989665073,80.34675165759066,3.0584399948325363,1.2620838237364518,A,789,Correct
1,new_learn,26,143,B,47.293130833308076,32.41769566462603,2.3646565416654037,0.5092159727314941,B,895,Correct
1,new_learn,26,144,A,22.882749365152613,51.75153647570148,1.1441374682576306,0.8129112340202399,A,683,Correct
1,new_learn,26,145,B,81.49093862819583,51.88018006601436,4.074546931409792,0.8149319628115317,B,761,Correct
1,new_learn,26,146,A,31.158109845163118,62.22692382640682,1.5579054922581559,0.9774582337426565,A,615,Correct
1,new_learn,26,147,B,44.44380643947895,34.91043969141446,2.2221903219739474,0.548371904340686,B,1060,Correct
1,new_learn,26,148,A,32.43309808202858,50.06202615146422,1.621654904101429,0.7863724679063006,A,1088,Correct
1,new_learn,26,149,A,21.994979973985167,41.30426766756326,1.0997489986992584,0.6488059193316157,A,590,Correct
1,new_learn,26,150,A,61.571311356507394,72.08315361019841,3.07856556782537,1.1322795291469194,B,573,Incorrect
1,new_learn,26,151,A,58.76876223309402,72.07516551204391,2.938438111654701,1.132154052394528,B,1660,Incorrect
1,new_learn,26,152,A,32.49399177198958,48.12729373560918,1.624699588599479,0.7559817621847393,A,570,Correct
1,new_learn,26,153,B,66.33046421890191,44.14941101463795,3.3165232109450953,0.6934973265195143,B,894,Correct
1,new_learn,26,154,A,47.105966445613895,78.67736324876199,2.3552983222806945,1.2358611319306312,A,625,Correct
1,new_learn,26,155,A,36.50476742498383,46.341565362845465,1.8252383712491917,0.7279316064988327,A,569,Correct
1,new_learn,26,156,B,66.11531413058836,36.38490292524988,3.3057657065294177,0.571532718657714,B,645,Correct
1,new_learn,26,157,B,73.59920418989132,52.98549229680425,3.6799602094945665,0.8322941667323941,B,574,Correct
1,new_learn,26,158,B,46.664056261992855,23.971816759806632,2.3332028130996427,0.37654841712904596,A,597,Incorrect
1,new_learn,26,159,B,43.56763608219519,24.90201828465885,2.1783818041097596,0.3911599885132147,B,1070,Correct
1,new_learn,26,160,B,40.51371893610163,15.82067906513516,2.0256859468050816,0.24851064562915223,B,734,Correct
1,new_learn,26,161,B,41.09949047831427,17.147512792686705,2.0549745239157136,0.2693525010842078,B,664,Correct
1,new_learn,26,162,B,82.85669521438095,59.19960617273661,4.142834760719047,0.9299052392383915,B,837,Correct
1,new_learn,26,163,B,65.42558800968465,53.909896453753134,3.2712794004842323,0.8468146732744863,B,700,Correct
1,new_learn,26,164,B,30.4568064112631,14.704913840442746,1.5228403205631549,0.230984246464029,A,520,Incorrect
1,new_learn,26,165,A,10.729922962071857,34.817578679789264,0.5364961481035928,0.5469132469810528,A,922,Correct
1,new_learn,26,166,B,32.80391013027006,18.27831106931091,1.640195506513503,0.2871150388768807,B,617,Correct
1,new_learn,26,167,A,32.589734605303526,54.86285377395927,1.6294867302651763,0.8617836918562075,B,1053,Incorrect
1,new_learn,26,168,A,40.55496311388339,69.24904330428012,2.0277481556941694,1.0877614285642394,A,703,Correct
1,new_learn,26,169,A,50.40956418957419,73.06271605113515,2.5204782094787093,1.1476664599878164,B,983,Incorrect
1,new_learn,26,170,B,47.059982127735125,39.730563058034576,2.352999106386756,0.6240862251305372,B,903,Correct
1,new_learn,26,171,A,50.774180038110316,69.48476972306588,2.538709001905516,1.0914642104918113,A,1164,Correct
1,new_learn,26,172,A,18.717161740991106,42.42401339538661,0.9358580870495552,0.6663948440937077,A,726,Correct
1,new_learn,26,173,B,77.27259728079608,62.459720017316364,3.8636298640398037,0.9811149877583822,B,908,Correct
1,new_learn,26,174,B,42.81148881778891,34.07399540492681,2.140574440889446,0.5352330682128521,A,842,Incorrect
1,new_learn,26,175,A,12.781808052995334,36.515407122425785,0.6390904026497667,0.5735826737932663,A,628,Correct
1,new_learn,26,176,A,30.148392134252866,47.5786169836022,1.5074196067126433,0.7473631679182363,A,834,Correct
1,new_learn,26,177,A,53.44341544281245,70.2218405124137,2.672170772140623,1.1030420913767651,B,808,Incorrect
1,new_learn,26,178,B,82.55148923767646,54.91719445583004,4.127574461883824,0.8626372732909888,B,703,Correct
1,new_learn,26,179,A,34.955696602409354,64.82540969396943,1.7477848301204677,1.0182751543026145,A,612,Correct
1,new_learn,26,180,B,42.373479598195175,32.802796164276614,2.1186739799097585,0.5152651172344743,B,677,Correct
1,new_learn,26,181,B,32.90331994381941,17.7489003651788,1.6451659971909707,0.2787990749827146,A,903,Incorrect
1,new_learn,26,182,A,36.48949989130916,46.44526952037593,1.824474994565458,0.7295605875960547,B,647,Incorrect
1,new_learn,26,183,B,79.15483519611934,48.59414850363866,3.957741759805967,0.7633150997324132,B,762,Correct
1,new_learn,26,184,A,55.800798848488576,66.25196604270394,2.790039942424429,1.0406834490281958,A,2544,Correct
1,new_learn,26,185,A,21.15576360953508,50.22848682699046,1.057788180476754,0.7889872260830246,A,1008,Correct
1,new_learn,26,186,A,30.920494318358436,50.78541513805191,1.546024715917922,0.7977354355360587,A,2697,Correct
1,new_learn,26,187,B,59.73613813609515,31.844471238769316,2.9868069068047576,0.5002117845058457,B,556,Correct
1,new_learn,26,188,B,70.20608757513583,59.1080820923508,3.5103043787567914,0.9284675823455585,B,679,Correct
1,new_learn,26,189,B,49.24471484487767,28.184517617264184,2.4622357422438834,0.4427213674568463,B,1185,Correct
1,new_learn,26,190,A,32.91389796935877,45.135928467298555,1.6456948984679385,0.7089935064290978,A,3095,Correct
1,new_learn,26,191,B,76.10415332614738,44.34004883749722,3.8052076663073695,0.6964918584384695,B,836,Correct
1,new_learn,26,192,A,32.33711069830901,47.690323906855525,1.6168555349154505,0.7491178561654751,A,2083,Correct
1,new_learn,26,193,B,45.33372661524467,37.912472639630195,2.2666863307622336,0.5955277276204314,B,1758,Correct
1,new_learn,26,194,B,54.61660101236888,31.374072537490385,2.730830050618444,0.4928227789848653,B,867,Correct
1,new_learn,26,195,B,40.783008946382246,21.98127200464876,2.039150447319112,0.34528101323181765,B,852,Correct
1,new_learn,26,196,B,71.78834160283033,39.20514233780954,3.589417080141516,0.6158329357570232,B,594,Correct
1,new_learn,26,197,A,56.52217883387783,68.16709815941138,2.8261089416938914,1.0707662739707056,B,570,Incorrect
1,new_learn,26,198,B,73.01016628964598,46.24801107907627,3.650508314482299,0.7264620592458269,B,1015,Correct
1,new_learn,26,199,B,82.47800239703162,58.889414744786734,4.123900119851581,0.9250327636821221,B,694,Correct
1,new_learn,26,200,B,70.41420702847341,41.34351044606103,3.520710351423671,0.649422343454791,B,1437,Correct
1,new_learn,26,201,A,53.526069698780844,70.1579353075589,2.676303484939042,1.102038270766275,A,2119,Correct
1,new_learn,26,202,A,64.14997835642274,77.01083381717822,3.2074989178211366,1.2096833488343575,A,856,Correct
1,new_learn,26,203,B,55.21029404505486,32.099130076238396,2.7605147022527428,0.5042119561706686,B,691,Correct
1,new_learn,26,204,B,54.67329722350304,28.157386922384543,2.7336648611751517,0.442295199498243,B,830,Correct
1,new_learn,26,205,B,63.39422754013166,32.085398782746985,3.169711377006583,0.5039962655168841,B,592,Correct
1,new_learn,26,206,B,63.47212316304349,47.834204272071574,3.1736061581521744,0.7513779236572679,B,534,Correct
1,new_learn,26,207,B,45.58093331255045,21.3942344477884,2.2790466656275226,0.33605984885174855,B,1051,Correct
1,new_learn,26,208,A,15.695076782411288,36.77576237794037,0.7847538391205644,0.5776723245835068,A,651,Correct
1,new_learn,26,209,B,52.616475692722034,34.70909324053966,2.6308237846361013,0.5452091616862127,B,523,Correct
1,new_learn,26,210,A,34.7197092684443,48.10202017344726,1.7359854634222147,0.7555847659986498,B,591,Incorrect
1,new_learn,26,211,B,69.4988438642145,53.412961375945535,3.474942193210725,0.8390088353257293,B,802,Correct
1,new_learn,26,212,A,13.508510593657014,37.75252811399679,0.6754255296828506,0.5930153248868721,A,598,Correct
1,new_learn,26,213,B,47.62007249997403,31.29697487188251,2.3810036249987014,0.4916117316854523,B,2413,Correct
1,new_learn,26,214,B,47.127173869078575,21.546001885764532,2.3563586934539287,0.33844380619274844,B,794,Correct
1,new_learn,26,215,A,12.158582909416012,33.129741324262156,0.6079291454708006,0.5204007597981609,A,584,Correct
1,new_learn,26,216,B,78.32208427563252,63.794699113598654,3.916104213781626,1.0020847903662642,B,597,Correct
1,new_learn,26,217,B,47.790665724708006,40.37824343175791,2.3895332862354,0.6342599646503548,B,719,Correct
1,new_learn,26,218,A,26.085788475368318,42.030307859324736,1.3042894237684157,0.6602105319948596,A,635,Correct
1,new_learn,26,219,B,69.60526299344242,57.76189585426792,3.480263149672121,0.9073217383659342,B,688,Correct
1,new_learn,26,220,B,52.84979084354236,27.111180099309998,2.642489542177118,0.42586142115071046,B,1212,Correct
1,new_learn,26,221,B,76.40989734648403,55.36733410018945,3.820494867324202,0.8697080502900341,B,706,Correct
1,new_learn,26,222,B,56.704263193074226,28.388958852729928,2.835213159653711,0.4459327228739963,B,3891,Correct
1,new_learn,26,223,B,72.14099202061948,42.481024139677444,3.607049601030974,0.6672903667709066,B,2081,Correct
1,new_learn,26,224,A,47.229190367472505,65.42648443246028,2.3614595183736253,1.027716814216121,B,3272,Incorrect
1,new_learn,26,225,A,41.834740325883345,61.29966558792195,2.091737016294167,0.9628928953926332,A,1548,Correct
1,new_learn,26,226,B,34.71017379084989,21.304189764154433,1.7355086895424947,0.3346454302687522,B,1169,Correct
1,new_learn,26,227,B,63.336501175940164,40.148449718665084,3.1668250587970084,0.630650373445887,B,614,Correct
1,new_learn,26,228,B,71.56159118416787,56.53928458511163,3.578079559208393,0.8881170054590465,B,568,Correct
1,new_learn,26,229,B,61.69458372745248,32.169765391218284,3.0847291863726243,0.5053214931037927,B,850,Correct
1,new_learn,26,230,B,52.32780696565256,26.08975739461974,2.616390348282628,0.4098169508243868,B,892,Correct
1,new_learn,26,231,A,64.0252443672866,79.52785311331147,3.2012622183643304,1.2492205954827373,A,987,Correct
1,new_learn,26,232,B,59.67114047792845,49.21334674286423,2.9835570238964224,0.7730414429297472,B,648,Correct
1,new_learn,26,233,A,30.476493826075636,56.0205582144877,1.5238246913037818,0.8799688706831696,A,582,Correct
1,new_learn,26,234,B,65.25027848431832,43.019641885261095,3.2625139242159156,0.6757509545340001,B,601,Correct
1,new_learn,26,235,A,26.483674057573545,57.3098976479186,1.3241837028786774,0.9002217671434202,A,1559,Correct
1,new_learn,26,236,A,46.35589993071635,59.51153637280944,2.3177949965358176,0.9348050273632994,B,2923,Incorrect
1,new_learn,26,237,B,54.87558496203702,25.153420643703267,2.743779248101851,0.3951090075345602,B,687,Correct
1,new_learn,26,238,A,42.55343028414706,49.42477400174008,2.127671514207353,0.7763625345460122,B,746,Incorrect
1,new_learn,26,239,B,62.7719063249782,55.02689765434728,3.1385953162489098,0.8643604871036742,B,763,Correct
1,new_learn,26,240,B,32.8810998586441,13.871136746409242,1.6440549929322048,0.21788730649729351,A,647,Incorrect
1,new_learn,26,241,B,79.25997697025072,49.481413202392254,3.9629988485125356,0.7772522210293826,B,1555,Correct
1,new_learn,26,242,A,37.052006181984446,48.17902979651235,1.8526003090992222,0.7567944303290348,B,2302,Incorrect
1,new_learn,26,243,B,60.09822707086665,40.07274713899173,3.0049113535433327,0.6294612401050891,B,708,Correct
1,new_learn,26,244,A,57.292574454717695,77.5158589679396,2.8646287227358846,1.2176162653519076,A,878,Correct
1,new_learn,26,245,A,28.408603704583783,39.11548546623537,1.4204301852291892,0.6144246089116169,A,963,Correct
1,new_learn,26,246,A,59.247413848930286,76.11356772497513,2.9623706924465143,1.1955891260164553,A,1017,Correct
1,new_learn,26,247,B,50.790630099825385,36.71863199120505,2.5395315049912695,0.5767749225671847,B,712,Correct
1,new_learn,26,248,A,35.95210701706358,66.1626822092449,1.797605350853179,1.0392809818517996,B,2201,Incorrect
1,new_learn,26,249,A,43.30798532683991,62.2334479260435,2.1653992663419954,0.9775607140601061,A,708,Correct
1,new_learn,26,250,A,33.36379077599066,55.17890416299792,1.668189538799533,0.8667481997580475,A,614,Correct
1,new_learn,26,251,B,81.60378144085038,60.441629441686885,4.080189072042519,0.9494148951250003,B,847,Correct
1,new_learn,26,252,B,77.93025663338756,49.739005533705566,3.896512831669378,0.7812984719077574,B,711,Correct
1,new_learn,26,253,B,74.1767626544677,42.17546205819395,3.7088381327233844,0.6624906088188858,B,784,Correct
1,new_learn,26,254,B,78.28763240304518,65.67479180391469,3.914381620152259,1.0316172172860878,B,784,Correct
1,new_learn,26,255,A,14.778027361440842,37.0059253644947,0.7389013680720421,0.5812877163219436,A,633,Correct
1,new_learn,26,256,A,33.84708415286423,49.75169168917244,1.6923542076432114,0.7814977455718425,B,1175,Incorrect
1,new_learn,26,257,B,83.83571129870327,65.42408024664206,4.191785564935163,1.027679049353599,B,590,Correct
1,new_learn,26,258,A,42.39500236122128,64.10026027229132,2.1197501180610643,1.0068845338231205,B,1487,Incorrect
1,new_learn,26,259,B,40.625001324145146,24.941644433448072,2.0312500662072575,0.3917824346028461,B,3391,Correct
1,new_learn,26,260,A,57.72911671722679,72.6988441840733,2.8864558358613395,1.1419507740657686,A,1125,Correct
1,new_learn,26,261,B,44.23035867606042,23.924914572023923,2.211517933803021,0.3758116792861687,B,661,Correct
1,new_learn,26,262,B,68.81315168923356,59.91412691369396,3.440657584461678,0.9411289047915373,B,641,Correct
1,new_learn,26,263,A,31.69282098630084,63.30081583081088,1.584641049315042,0.9943268899015798,A,1767,Correct
1,new_learn,26,264,A,27.980968111584644,56.79331272954584,1.3990484055792323,0.8921072702208444,B,815,Incorrect
1,new_learn,26,265,B,53.29860703625064,45.61087205589917,2.6649303518125316,0.7164539028731841,B,683,Correct
1,new_learn,26,266,A,20.98843693954266,49.99541588645171,1.0494218469771328,0.7853261563102156,A,628,Correct
1,new_learn,26,267,A,36.71812318019361,46.22417297028812,1.8359061590096803,0.7260876111086053,B,749,Incorrect
1,new_learn,26,268,A,41.43540650512023,74.18383345127273,2.0717703252560113,1.165276930928236,A,1124,Correct
1,new_learn,26,269,A,30.025678235103214,62.208252108941004,1.5012839117551606,0.977164939090554,B,2503,Incorrect
1,new_learn,26,270,A,24.531386205886157,39.33646340770643,1.2265693102943078,0.6178957222992713,A,748,Correct
1,new_learn,26,271,A,44.39131247951661,56.531545784347,2.2195656239758303,0.8879954446608979,B,685,Incorrect
1,new_learn,26,272,B,67.14599558661246,53.91391832603397,3.357299779330623,0.8468778486965423,B,760,Correct
1,new_learn,26,273,A,43.6593876179024,63.256183193475124,2.18296938089512,0.993625802073758,B,4150,Incorrect
1,new_learn,26,274,A,38.98824971584128,51.6035599709528,1.9494124857920638,0.8105868245191284,B,1316,Incorrect
1,new_learn,26,275,B,58.11813495778455,29.270567046554817,2.9059067478892273,0.4597809919993205,B,796,Correct
1,new_learn,26,276,A,62.263120554407614,81.00538782856646,3.1131560277203807,1.272429656517082,A,1750,Correct
1,new_learn,26,277,B,50.11415727795684,21.59003184770014,2.5057078638978423,0.3391354272175221,B,803,Correct
1,new_learn,26,278,B,52.633240482732646,28.91764496553659,2.631662024136632,0.45423730491423797,B,782,Correct
1,new_learn,26,279,B,42.76763517578149,22.666732561328526,2.1383817587890745,0.35604820247777125,B,2499,Correct
1,new_learn,26,280,B,64.58031220616482,39.71941129380978,3.229015610308241,0.6239110536277213,B,825,Correct
1,new_learn,26,281,B,73.8400983961524,41.97728794068778,3.6920049198076197,0.6593776970604407,B,652,Correct
1,new_learn,26,282,A,19.609715786690806,32.632682153239614,0.9804857893345402,0.5125929725977416,A,823,Correct
1,new_learn,26,283,A,14.454098419979005,32.91819606658733,0.7227049209989502,0.5170778146610959,A,837,Correct
1,new_learn,26,284,B,45.89649992666469,23.00319763298374,2.2948249963332343,0.36133338346427907,B,1095,Correct
1,new_learn,26,285,A,43.15624383732861,63.852376677589014,2.1578121918664306,1.0029907874228094,A,1334,Correct
1,new_learn,26,286,A,13.782826924251719,34.09522031246571,0.6891413462125859,0.535566468280839,A,650,Correct
1,new_learn,26,287,B,45.440428388399766,17.008541455682465,2.272021419419988,0.2671695444272474,B,1234,Correct
1,new_learn,26,288,A,35.300899034623086,48.63349952486993,1.7650449517311544,0.7639332241284704,B,1941,Incorrect
1,new_learn,26,289,A,39.16359081526615,54.846889530880816,1.9581795407633076,0.8615329261123306,B,1059,Incorrect
1,new_learn,26,290,A,17.644372098075767,45.866679623292164,0.8822186049037883,0.7204721187454567,A,548,Correct
1,new_learn,26,291,B,58.02222053154794,37.521971101146505,2.901111026577397,0.5893937437978519,B,1126,Correct
1,new_learn,26,292,B,75.99948032563479,52.85813677086631,3.7999740162817397,0.8302936708089905,B,688,Correct
1,new_learn,26,293,B,55.434967601871925,29.22608422464207,2.7717483800935963,0.4590822574666604,B,752,Correct
1,new_learn,26,294,B,61.201444887528815,28.282465000492508,3.0600722443764408,0.4442599213547886,B,564,Correct
1,new_learn,26,295,A,25.32139096057933,53.476727559280995,1.2660695480289663,0.8400104721912999,A,1166,Correct
1,new_learn,26,296,A,60.66658370958244,81.84172607171006,3.033329185479122,1.2855668269199627,A,916,Correct
1,new_learn,26,297,A,40.52166990639697,55.79974284849091,2.0260834953198485,0.8765003110250932,A,3048,Correct
1,new_learn,26,298,A,13.670881034465069,33.71935393033065,0.6835440517232534,0.5296623729566045,A,632,Correct
1,new_learn,26,299,B,67.10628578584173,45.40523770181474,3.355314289292087,0.7132238059925975,B,1176,Correct
1,new_learn,26,300,B,44.785077839959314,27.2566873998082,2.239253891997966,0.4281470444821546,B,708,Correct
1,new_learn,26,301,B,48.27682793071385,37.57335222711971,2.413841396535693,0.5902008366373049,B,557,Incorrect
1,new_learn,26,302,A,34.50960811931708,66.44911952080223,1.725480405965854,1.043780328620312,A,2285,Incorrect
1,new_learn,26,303,B,44.63900079774041,17.13595312596865,2.2319500398870202,0.26917092226401085,B,774,Incorrect
1,new_learn,26,304,B,38.56401171940859,29.014601276765532,1.9282005859704296,0.45576029108961813,B,780,Incorrect
1,new_learn,26,305,B,76.00584226446765,49.24377291185611,3.8002921132233825,0.7735193760746563,B,661,Correct
1,new_learn,26,306,A,65.34477998010931,76.70182004477721,3.2672389990054653,1.204829371848192,B,637,Correct
1,new_learn,26,307,B,45.18933571039594,24.10378023305178,2.259466785519797,0.3786212945194917,B,564,Correct
1,new_learn,26,308,B,46.47527019178081,17.9785172622622,2.3237635095890403,0.28240588876780104,B,1041,Correct
1,new_learn,26,309,B,70.45937255007328,55.50490198612764,3.5229686275036642,0.8718689615892007,B,926,Correct
1,new_learn,26,310,A,62.662533793730844,86.40940145033585,3.1331266896865424,1.3573157039873316,A,2548,Incorrect
1,new_learn,26,311,B,59.916026023231325,33.30849824936594,2.995801301161566,0.5232086670115825,B,717,Incorrect
1,new_learn,26,312,A,38.31458018363031,61.91863003628611,1.9157290091815156,0.9726155662117038,A,3944,Correct
1,new_learn,26,313,B,75.86686354266484,62.757737481476795,3.7933431771332424,0.9857962351386214,B,1465,Incorrect
1,new_learn,26,314,A,50.53968239783196,68.55194416336572,2.526984119891598,1.076811420864637,B,1661,Correct
1,new_learn,26,315,A,51.58667596607007,82.45114325401042,2.5793337983035034,1.2951395296343937,A,1500,Correct
1,new_learn,26,316,B,48.47162309755213,24.456488317495733,2.4235811548776067,0.384161620154246,B,1112,Correct
1,new_learn,26,317,A,47.11108204830504,54.377415228615206,2.355554102415252,0.8541584410170964,B,2478,Incorrect
1,new_learn,26,318,B,79.92015304776146,53.685253066317486,3.996007652388073,0.8432859831962596,B,655,Incorrect
1,new_learn,26,319,B,51.74227707551163,28.52986613899499,2.5871138537755813,0.4481460893508343,B,3508,Incorrect
1,new_learn,26,320,A,64.89990429634851,89.41196021678205,3.2449952148174255,1.4044797868005268,A,876,Correct
1,new_learn,26,321,B,54.73987274218488,47.343317034520986,2.736993637109244,0.7436670849611182,B,866,Incorrect
1,new_learn,26,322,B,81.73711805779517,65.01968922527128,4.086855902889758,1.0213268900440182,A,960,Correct
1,new_learn,26,323,A,57.9851798223914,68.5566307722295,2.89925899111957,1.0768850379445207,A,1076,Incorrect
1,new_learn,26,324,B,70.40194292509096,55.9961571833975,3.5200971462545483,0.8795855801831046,B,1077,Incorrect
1,new_learn,26,325,A,59.97161095037947,78.52099163426375,2.9985805475189737,1.2334048523539431,A,785,Incorrect
1,new_learn,26,326,B,64.88068200738064,39.03056914326826,3.2440341003690323,0.6130907464296002,B,538,Correct
1,new_learn,26,327,B,64.17250395268755,42.358044865384244,3.2086251976343774,0.6653586128475899,B,706,Incorrect
1,new_learn,26,328,B,62.23781177138104,51.128545731175535,3.111890588569052,0.8031253182889542,B,2395,Incorrect
1,new_learn,26,329,B,70.00605891395678,58.902762638218036,3.500302945697839,0.9252424319018456,B,736,Correct
1,new_learn,26,330,A,65.33227810796637,89.21741213066011,3.2666139053983185,1.4014238326098734,A,775,Correct
1,new_learn,26,331,A,22.043729706390774,46.11239200376828,1.1021864853195387,0.7243317597924558,A,598,Incorrect
1,new_learn,26,332,B,53.12598992343794,32.795303462302115,2.656299496171897,0.5151474221470812,B,1030,Incorrect
1,new_learn,26,333,B,37.406906048365734,23.24884065811777,1.8703453024182866,0.36519193508011244,A,911,Incorrect
1,new_learn,26,334,A,56.31585376678068,81.13146026834553,2.815792688339034,1.2744099977702326,A,1304,Correct
1,new_learn,26,335,A,54.55516500281322,67.9293543751938,2.7277582501406608,1.0670318033410324,A,2538,Incorrect
1,new_learn,26,336,B,61.10573387049106,44.53060425748305,3.0552866935245526,0.6994850959761156,B,709,Incorrect
1,new_learn,26,337,B,42.35470270764772,33.79234851710119,2.117735135382386,0.5308089692443552,B,3569,Correct
1,new_learn,26,338,B,54.96577242621164,44.79499109495217,2.748288621310582,0.7036380747076098,B,3160,Correct
1,new_learn,26,339,B,47.32684142131983,28.96209380497964,2.3663420710659917,0.45493550565151253,B,2793,Correct
1,new_learn,26,340,B,86.55988353360532,65.29871789118525,4.327994176680266,1.0257098620788998,B,1888,Incorrect
1,new_learn,26,341,A,49.07717051171924,58.68838866623125,2.4538585255859617,0.9218750534242727,B,4404,Incorrect
1,new_learn,26,342,B,59.613491109951234,45.219851060738094,2.9806745554975618,0.7103117594441971,B,1741,Correct
1,new_learn,26,343,B,49.39886039485543,38.181833169959724,2.4699430197427716,0.5997588329366826,A,2042,Correct
1,new_learn,26,344,B,38.11284550826005,14.90725114491287,1.9056422754130025,0.2341625534103815,A,1419,Incorrect
1,new_learn,26,345,A,41.80114948315395,70.52659001651594,2.0900574741576974,1.1078290853931287,A,943,Correct
1,new_learn,26,346,A,15.101994979316,44.109758398102706,0.7550997489658,0.6928744646755007,A,734,Incorrect
1,new_learn,26,347,B,77.35431885896202,60.74496648455733,3.867715942948101,0.9541797022522177,A,1658,Incorrect
1,new_learn,26,348,B,72.19259635857738,49.970624448838976,3.6096298179288686,0.7849367333188351,B,537,Incorrect
1,new_learn,26,349,A,34.11451527670642,62.80191498933021,1.705725763835321,0.9864901738092525,B,1121,Incorrect
1,new_learn,26,350,A,61.603940454956486,87.62741097950855,3.0801970227478246,1.3764481529315884,A,1666,Incorrect
1,new_learn,26,351,B,44.15046426850628,15.965141846653214,2.207523213425314,0.25077986169482364,B,5260,Correct
1,new_learn,26,352,A,50.32904153732822,72.04820046618703,2.516452076866411,1.1317304864446893,A,3106,Correct
1,new_learn,26,353,A,38.885301255297605,60.71973722242502,1.9442650627648803,0.9537834019293658,A,1377,Correct
1,new_learn,26,354,B,51.608755102990415,28.146678280477285,2.5804377551495206,0.44212698854451415,B,1274,Correct
1,new_learn,26,355,A,14.693746590184368,44.056099250103536,0.7346873295092183,0.6920315887497404,A,1036,Incorrect
1,new_learn,26,356,A,41.76892582404401,53.096110492139516,2.0884462912022004,0.8340317532814872,B,941,Correct
1,new_learn,26,357,B,76.88419297285388,49.57810407154863,3.8442096486426944,0.7787710376504369,B,745,Correct
1,new_learn,26,358,A,47.40798205159926,59.865202055047874,2.370399102579963,0.940360394909035,B,708,Correct
1,new_learn,26,359,A,46.53223866732475,64.16572125218575,2.3266119333662374,1.007912792490786,B,1287,Correct
1,new_learn,26,360,A,22.86903521995682,40.35957366424281,1.1434517609978412,0.6339667006280065,B,724,Correct
1,new_learn,26,361,B,87.73418238066714,66.43176188056071,4.386709119033356,1.04350767544498,B,3397,Incorrect
1,new_learn,26,362,B,75.21606113254555,45.767241977944735,3.760803056627277,0.7189101558648878,B,767,Incorrect
1,new_learn,26,363,B,50.35031461429031,33.77230609796156,2.5175157307145155,0.530494143660709,A,879,Incorrect
1,new_learn,26,364,B,47.2449929078943,21.504709128041725,2.362249645394715,0.3377951810712062,B,527,Correct
1,new_learn,26,365,A,53.161336315390585,65.88450638530425,2.6580668157695295,1.0349114062273082,B,696,Correct
1,new_learn,26,366,A,18.146947070085496,40.73507524286543,0.9073473535042749,0.6398650656320675,A,2019,Incorrect
1,new_learn,26,367,A,39.481336432919875,60.517061336088574,1.9740668216459938,0.9505997765514939,B,1020,Incorrect
1,new_learn,26,368,A,48.20839722428636,59.16651913826405,2.4104198612143177,0.9293855093162512,A,662,Correct
1,new_learn,26,369,A,42.4131867051496,60.21521619645746,2.12065933525748,0.9458584041855593,A,467,Incorrect
1,new_learn,26,370,A,54.23797145970492,63.37821552094165,2.711898572985246,0.9955426813911045,B,1155,Correct
1,new_learn,26,371,B,36.87827957988615,19.16280311502537,1.8439139789943073,0.3010086074417565,A,803,Correct
1,new_learn,26,372,B,81.82077757110903,54.59609132022365,4.091038878555452,0.8575933970316603,B,917,Correct
1,new_learn,26,373,B,32.8270671073206,12.694052067500298,1.64135335536603,0.19939770359772627,A,1228,Correct
1,new_learn,26,374,B,54.92726517206085,25.178473346015927,2.746363258603042,0.39550253446225025,B,916,Correct
1,new_learn,26,375,A,40.79465066974427,49.3842159838833,2.0397325334872134,0.7757254506912971,B,1214,Correct
1,new_learn,26,376,A,29.441100565608863,60.66962033110222,1.472055028280443,0.9529961676413634,B,1028,Correct
1,new_learn,26,377,B,79.29307491541175,49.93975980723066,3.9646537457705877,0.7844519126621734,B,876,Incorrect
1,new_learn,26,378,A,13.679215344969041,42.373462773958124,0.683960767248452,0.6656007967891372,A,744,Correct
1,new_learn,26,379,B,84.79078646726622,64.87264126542168,4.239539323363311,1.019017066092074,B,608,Correct
1,new_learn,26,380,B,44.582763616370855,25.11028687811845,2.229138180818543,0.39443146392914546,B,1018,Correct
1,new_learn,26,381,B,84.12818464954968,63.32895692724174,4.206409232477484,0.9947689292106353,B,1147,Incorrect
1,new_learn,26,382,A,18.001763860353005,42.04761939841413,0.9000881930176503,0.6604824610149875,A,1120,Correct
1,new_learn,26,383,A,33.45456848488815,42.420003776684894,1.6727284242444074,0.6663318611504226,B,808,Incorrect
1,new_learn,26,384,A,36.079715551369226,66.75493515235523,1.8039857775684611,1.048584069327511,A,1371,Incorrect
1,new_learn,26,385,B,45.743486748441484,20.619512770577785,2.287174337422074,0.3238905492032404,B,628,Incorrect
1,new_learn,26,386,B,76.25230138956854,48.94305386648172,3.812615069478427,0.7687956923559425,B,664,Correct
1,new_learn,26,387,A,21.13272549150907,41.57936414955047,1.0566362745754534,0.6531271247658129,B,923,Correct
1,new_learn,26,388,A,24.96806189487298,55.71305837776767,1.248403094743649,0.8751386745430709,B,1064,Correct
1,new_learn,26,389,A,49.19142106463406,61.17912845838939,2.459571053231703,0.9609995025895117,B,1577,Correct
1,new_learn,26,390,A,42.69023951422556,73.24408101948424,2.1345119757112783,1.1505153342487366,B,970,Incorrect
1,new_learn,26,391,B,62.667426594200414,48.450460715633575,3.1333713297100205,0.7610580572363765,A,895,Correct
1,new_learn,26,392,B,43.89931581662913,29.832965357346943,2.194965790831456,0.4686151240071998,B,1202,Incorrect
1,new_learn,26,393,B,70.85245663867354,51.78284098691142,3.5426228319336768,0.8134029641324468,A,689,Incorrect
1,new_learn,26,394,A,20.67115139980694,52.46833178856971,1.0335575699903472,0.8241706284654119,B,716,Correct
1,new_learn,26,395,B,50.26416497620639,27.25769433733663,2.5132082488103196,0.4281628614198643,B,1805,Incorrect
1,new_learn,26,396,A,43.91095680355762,67.30445896772751,2.195547840177881,1.0572159692342422,A,940,Incorrect
1,new_learn,26,397,B,44.88821827676314,19.80161531796232,2.2444109138381574,0.31104304606060773,B,925,Incorrect
1,new_learn,26,398,A,32.76388384986939,46.8890346704962,1.6381941924934693,0.7365312342737399,B,574,Incorrect
1,new_learn,26,399,B,60.06523377012635,44.783418297563415,3.0032616885063175,0.7034562896313198,A,1862,Incorrect
1,new_learn,26,400,B,43.29877484243333,14.828081846948326,2.1649387421216666,0.23291896498600514,A,1111,Incorrect
1,new_learn,26,401,B,77.05729863382294,63.54216344379739,3.8528649316911467,0.9981179693411789,B,608,Incorrect
1,new_learn,26,402,A,59.45491923827833,84.3720550629044,2.9727459619139167,1.3253131417694697,A,929,Correct
1,new_learn,26,403,B,59.28998230097154,35.390680608267246,2.964499115048577,0.5559155110223757,B,623,Incorrect
1,new_learn,26,404,B,59.68721661327814,48.336175345850926,2.9843608306639067,0.7592628668457667,B,762,Correct
1,new_learn,26,405,B,78.5533731451626,49.48514714958688,3.92766865725813,0.7773108737347602,B,758,Incorrect
1,new_learn,26,406,A,67.10637918163012,79.83637748822397,3.3553189590815062,1.2540668850311298,A,959,Correct
1,new_learn,26,407,A,42.834151284275016,74.34936116114461,2.1417075642137506,1.167877034114731,A,758,Incorrect
1,new_learn,26,408,B,45.413409629095206,21.323080659134707,2.2706704814547605,0.334942167753201,B,1053,Correct
1,new_learn,26,409,B,74.28184531466083,58.90988453522077,3.7140922657330413,0.9253543023983626,B,1524,Incorrect
1,new_learn,26,410,A,32.55795012968698,47.38739528308438,1.627897506484349,0.7443594644704676,A,678,Incorrect
1,new_learn,26,411,B,72.89157580931075,59.002756996219645,3.644578790465538,0.9268131396043371,B,5111,Correct
1,new_learn,26,412,A,20.628051119881523,34.97200590849587,1.031402555994076,0.5493389842171473,B,2488,Correct
1,new_learn,26,413,A,21.252375643642026,45.13780527894981,1.0626187821821014,0.7090229873175766,B,1869,Incorrect
1,new_learn,26,414,A,39.93755126813643,55.46149885599225,1.9968775634068214,0.8711871868153199,A,719,Incorrect
1,new_learn,26,415,B,64.69504673638416,53.057257238709454,3.2347523368192075,0.8334214478037674,B,2076,Incorrect
1,new_learn,26,416,A,42.25892968040608,65.52691540249323,2.112946484020304,1.029294380204363,B,2581,Correct
1,new_learn,26,417,A,30.70989349097532,43.179940524054444,1.535494674548766,0.6782689196640682,B,944,Incorrect
1,new_learn,26,418,B,80.30206346260563,66.23109134113969,4.0151031731302815,1.040355549982795,B,1947,Correct
1,new_learn,26,419,A,60.72582418081373,72.05376958498815,3.0362912090406864,1.1318179659582521,B,2185,Incorrect
1,new_learn,26,420,B,41.9764954236327,29.92020720446724,2.0988247711816346,0.4699855157371934,A,2212,Incorrect
1,new_learn,26,421,A,29.17074849815542,49.96635225130998,1.4585374249077712,0.7848696257969762,A,851,Correct
1,new_learn,26,422,B,84.87234753367646,63.6223701590151,4.243617376683823,0.9993778534776616,B,2929,Correct
1,new_learn,26,423,A,63.18703743703695,87.7302998852874,3.1593518718518476,1.3780643280842415,A,2288,Incorrect
1,new_learn,26,424,A,46.68245708152143,60.451656644974314,2.3341228540760715,0.9495724020659194,B,2739,Correct
1,new_learn,26,425,B,34.389194967093616,20.072154145471888,1.7194597483546807,0.315292660025682,B,3367,Incorrect
1,new_learn,26,426,B,56.85740090499058,27.87885944549987,2.8428700452495286,0.43792010012222404,B,3719,Incorrect
1,new_learn,26,427,A,34.586808342642854,52.262145303315606,1.7293404171321427,0.8209318587286931,A,4138,Incorrect
1,new_learn,26,428,A,21.19500351449757,50.32214494567117,1.0597501757248786,0.7904584043710065,A,984,Incorrect
1,new_learn,26,429,B,56.16148994898143,23.932010044907617,2.8080744974490717,0.37592313471359456,B,1764,Correct
1,new_learn,26,430,A,59.91807708176981,81.60457052386609,2.9959038540884904,1.2818415962856395,A,3103,Correct
1,new_learn,26,431,A,37.564339070044035,64.38338028295415,1.8782169535022017,1.0113317725510336,A,1658,Correct
1,new_learn,26,432,B,71.08668912441738,61.44671817610097,3.554334456220869,0.9652027920462062,B,1707,Correct
1,new_learn,26,433,A,42.86243633514144,74.32722287960894,2.143121816757072,1.1675292868015534,A,1114,Correct
1,new_learn,26,434,A,47.751211845372296,63.21082650799708,2.3875605922686147,0.9929133409243129,B,1534,Incorrect
1,new_learn,26,435,A,53.6488895555154,63.24719847011349,2.6824444777757703,0.9934846703692208,A,1436,Correct
1,new_learn,26,436,A,41.42735547246895,52.110710685013686,2.0713677736234475,0.8185531293069106,A,831,Incorrect
1,new_learn,26,437,B,52.09300918294518,42.70131870640802,2.6046504591472592,0.6707507457332391,B,1067,Incorrect
1,new_learn,26,438,B,39.358787672486415,24.16779495621206,1.9679393836243206,0.3796268354395013,A,1089,Correct
1,new_learn,26,439,B,45.913979616079956,25.47260716670237,2.295698980803998,0.40012277771345445,B,1345,Correct
1,new_learn,26,440,A,68.91205727150994,86.046142220839,3.4456028635754965,1.3516096413536518,A,1213,Correct
1,new_learn,26,441,B,43.3171000080321,30.692268581790223,2.165855000401605,0.48211302749278484,A,2137,Correct
1,new_learn,26,442,A,22.339639255989283,43.18089615830595,1.1169819627994642,0.6782839307317884,A,1173,Incorrect
1,new_learn,26,443,B,37.560345126187926,14.30363273157242,1.8780172563093964,0.22468093754577215,A,2500,Incorrect
1,new_learn,26,444,B,56.944935767343736,25.269660774592378,2.847246788367187,0.39693490324082786,B,1873,Incorrect
1,new_learn,26,445,B,74.81292043791909,56.149911141109456,3.7406460218959547,0.8820007417031456,B,5018,Correct
1,new_learn,26,446,B,36.943109519051276,14.140714452189325,1.847155475952564,0.22212182319754498,A,820,Incorrect
1,new_learn,26,447,B,40.24700563813301,18.47808263234844,2.0123502819066506,0.29025304325105494,B,1536,Incorrect
1,new_learn,26,448,A,48.05150798574991,68.47704934885995,2.402575399287495,1.0756349758694208,B,3744,Incorrect
1,new_learn,26,449,A,21.85636104747239,33.704804941942214,1.0928180523736195,0.5294338379814132,A,674,Correct
1,new_learn,26,450,B,66.78913999706968,39.13691120467828,3.339456999853484,0.6147611636240666,A,1245,Incorrect
1,new_learn,26,451,A,36.47773805385333,51.840637422130825,1.8238869026926665,0.8143108284138917,B,888,Incorrect
1,new_learn,26,452,B,57.38837178755857,41.29461108443328,2.8694185893779287,0.6486542340785161,A,478,Correct
1,new_learn,26,453,B,63.18345827421868,51.156618655971755,3.159172913710934,0.803566286760477,A,3987,Incorrect
1,new_learn,26,454,B,55.80063288231139,25.43124266316422,2.7900316441155697,0.3994730256112802,B,1735,Incorrect
1,new_learn,26,455,A,11.1827603742129,37.63352873251189,0.5591380187106451,0.5911460869735988,A,686,Correct
1,new_learn,26,456,B,38.527851522099745,19.323041761549213,1.9263925761049874,0.3035256302154589,B,1767,Incorrect
1,new_learn,26,457,B,46.316398173679225,33.78539582696552,2.3158199086839613,0.5306997566430905,A,503,Incorrect
1,new_learn,26,458,B,46.46155658589724,20.168691859232055,2.323077829294862,0.31680907088739846,B,1392,Incorrect
1,new_learn,26,459,B,54.76082080928909,40.90734137706706,2.7380410404644544,0.6425710157404183,A,3142,Correct
1,new_learn,26,460,A,50.918408909219956,71.30259671887998,2.5459204454609976,1.1200185701695453,A,2700,Correct
1,new_learn,26,461,A,34.60649500855738,55.490658802866825,1.730324750427869,0.871645230189721,B,2550,Incorrect
1,new_learn,26,462,B,71.98388273208433,62.09514635060175,3.5991941366042166,0.9753882779931675,B,4658,Incorrect
1,new_learn,26,463,B,42.725222897230864,24.8855146204439,2.1362611448615434,0.3909007495619397,B,6078,Incorrect
1,new_learn,26,464,B,40.26538560801849,31.0650054815926,2.013269280400925,0.4879679650234899,A,2104,Incorrect
1,new_learn,26,465,B,47.3810007515449,39.84520737900461,2.369050037577245,0.6258870539132135,B,606,Correct
1,new_learn,26,466,A,25.612309663321383,38.96611688467063,1.2806154831660692,0.6120783327190122,B,805,Incorrect
1,new_learn,26,467,B,65.74035656371117,39.869581507088014,3.287017828185559,0.6262699218218359,A,2675,Incorrect
1,new_learn,26,468,B,80.20784082520629,64.36044669055761,4.010392041260315,1.0109715325240665,B,597,Correct
1,new_learn,26,469,B,36.04120284293055,25.407957636436116,1.8020601421465274,0.39910726526674195,A,8456,Incorrect
1,new_learn,26,470,B,76.9892550638729,48.79096228643008,3.849462753193645,0.7664066434031269,B,1975,Correct
1,new_learn,26,471,A,36.00301016094331,67.4915809287368,1.8001505080471656,1.0601552741244025,A,3320,Incorrect
1,new_learn,26,472,A,38.22734223064961,55.61291931003308,1.9113671115324806,0.8735656937454093,A,7484,Incorrect
1,new_learn,26,473,B,57.66812193002823,32.939435933505095,2.883406096501411,0.5174114497104563,A,8618,Incorrect
1,new_learn,26,474,A,44.78966749543547,54.89007391871324,2.2394833747717735,0.8622112648901511,B,2645,Incorrect
1,new_learn,26,475,B,81.15457339056606,53.58573431597943,4.057728669528303,0.8417227463214771,A,2334,Correct
1,new_learn,26,476,A,52.085464894308934,70.36955040647194,2.604273244715447,1.1053623129669443,A,4520,Incorrect
1,new_learn,26,477,A,41.090743587287626,67.92393184824934,2.0545371793643814,1.0669466264869696,B,6260,Incorrect
1,new_learn,26,478,A,44.61381954579346,60.06418484130459,2.2306909772896732,0.9434860092065095,A,1087,Incorrect
1,new_learn,26,479,B,39.55370074220937,18.041246443894746,1.9776850371104686,0.28339123644871356,B,1112,Incorrect
1,new_learn,26,480,B,67.11761627118564,53.740125842858944,3.3558808135592817,0.8441479227545833,B,1879,Incorrect
1,new_learn,26,481,A,29.19781263948154,62.42867738030843,1.459890631974077,0.9806273711565213,A,694,Correct
1,new_learn,26,482,B,75.2562447890484,60.60889697978431,3.76281223945242,0.9520423274693551,B,7594,Correct
1,new_learn,26,483,B,62.652048676761304,49.39698699508163,3.1326024338380654,0.7759260572660951,A,2182,Correct
1,new_learn,26,484,A,13.155721496459496,30.582763250003584,0.6577860748229747,0.48039292176343584,A,1726,Correct
1,new_learn,26,485,A,13.059352145994897,30.503165651817564,0.6529676072997448,0.47914260561491284,A,2736,Incorrect
1,new_learn,26,486,B,45.82112487622539,17.1874049374916,2.2910562438112696,0.2699791254294827,A,8655,Correct
1,new_learn,26,487,B,71.87374959393209,56.19697751354569,3.5936874796966043,0.8827400585525297,B,7027,Incorrect
1,new_learn,26,488,A,50.46399369302538,76.48204052894306,2.523199684651269,1.2013770832864217,A,2481,Incorrect
1,new_learn,26,489,B,33.46030311402332,16.567141681507426,1.6730151557011659,0.26023605298802494,B,4805,Correct
1,new_learn,26,490,B,86.54152316093146,65.65418753006499,4.327076158046573,1.031293566109294,B,2352,Incorrect
1,new_learn,26,491,A,67.26311153532636,81.54378087164957,3.3631555767663177,1.280886714661551,A,1090,Correct
1,new_learn,26,492,B,86.02153335086378,65.49636985886671,4.301076667543189,1.0288145719270783,B,4813,Incorrect
1,new_learn,26,493,B,68.90998795069264,55.828621184736384,3.445499397534632,0.8769539308700766,B,1692,Correct
1,new_learn,26,494,A,38.23762861080464,63.69966926847925,1.911881430540232,1.0005920650497695,A,3832,Correct
1,new_learn,26,495,A,46.20929965006359,58.36877746680525,2.3104649825031798,0.9168546124436641,A,2748,Correct
1,new_learn,26,496,A,42.74939854490135,70.47337384953923,2.1374699272450672,1.1069931677969973,A,2559,Incorrect
1,new_learn,26,497,A,38.13633270613109,46.255585765763286,1.9068166353065548,0.7265810421460728,A,975,Correct
1,new_learn,26,498,A,46.13440370638327,68.04990248981532,2.3067201853191635,1.068925368697528,A,4494,Incorrect
1,new_learn,26,499,A,34.835018677129156,62.37269873690451,1.7417509338564576,0.9797480606821428,A,2431,Incorrect
1,new_learn,26,500,B,75.92595695963593,47.37293936090711,3.7962978479817964,0.7441323913759027,B,1942,Incorrect
1,new_learn,26,501,B,39.64896499373843,14.44011011905296,1.9824482496869218,0.22682471933522205,B,3652,Incorrect
1,new_learn,26,502,A,53.610113035162954,81.95936224100778,2.6805056517581476,1.2874146515462737,A,722,Incorrect
1,new_learn,26,503,A,52.10218474948429,81.9723830676594,2.605109237474214,1.2876191822130354,B,2420,Correct
1,new_learn,26,504,A,35.721576586476296,51.12124507722042,1.7860788293238148,0.8030106398847953,A,8254,Incorrect
1,new_learn,26,505,B,56.91049880728108,36.869921096257336,2.845524940364054,0.5791513662721869,A,1528,Correct
1,new_learn,26,506,A,48.43609314600663,59.626792459423264,2.4218046573003313,0.9366154657382371,A,764,Incorrect
1,new_learn,26,507,B,64.51092944406828,49.819882244904804,3.2255464722034137,0.7825688803165076,A,830,Correct
1,new_learn,26,508,A,31.30167852466676,47.73098518042043,1.565083926233338,0.7497565619570605,A,1681,Correct
1,new_learn,26,509,A,15.247829195004197,39.448449310572315,0.7623914597502099,0.6196547927480166,A,884,Correct
1,new_learn,26,510,A,49.88391042259063,70.36428283592055,2.494195521129532,1.1052795701622118,B,1037,Incorrect
1,new_learn,26,511,A,62.65642618294927,82.54358284513938,3.1328213091474635,1.2965915673363517,B,2614,Incorrect
1,new_learn,26,512,A,15.73263689195312,44.05068648585557,0.786631844597656,0.6919465652477553,A,997,Correct
1,new_learn,26,513,A,35.927766062255714,50.22191065902426,1.7963883031127859,0.7888839278781677,B,1053,Incorrect
1,new_learn,26,514,A,44.295638465656836,54.4301511586002,2.214781923282842,0.8549868150682016,B,1448,Correct
1,new_learn,26,515,A,20.15584165119559,49.50539569969093,1.0077920825597795,0.7776289372160239,A,704,Correct
1,new_learn,26,516,B,74.74072207980697,41.94705634672814,3.7370361039903486,0.6589028202929912,B,2067,Incorrect
1,new_learn,26,517,A,26.38184889426238,44.427056282676666,1.319092444713119,0.6978585681913864,A,620,Correct
1,new_learn,26,518,B,44.7765162613625,24.65601434085827,2.238825813068125,0.3872957676002246,B,1352,Incorrect
1,new_learn,26,519,A,24.34065739416577,39.33476033764815,1.2170328697082886,0.617868970537353,B,2840,Incorrect
1,new_learn,26,520,A,54.620986097694185,67.26312233581746,2.731049304884709,1.0565666549385784,A,791,Correct
1,new_learn,26,521,A,13.506090646284374,32.75110462139763,0.6753045323142187,0.5144531483776675,A,919,Incorrect
1,new_learn,26,522,B,56.249276335842836,31.848780378682815,2.812463816792142,0.5002794723173234,B,1012,Incorrect
1,new_learn,26,523,A,26.15940062772794,40.35663250165628,1.307970031386397,0.6339205009541322,A,3440,Correct
1,new_learn,26,524,B,54.20586903241153,43.60938376951218,2.7102934516205766,0.6850145983893872,B,2532,Incorrect
1,new_learn,26,525,A,28.96614988484769,45.67639976708519,1.4483074942423846,0.717483209753527,B,1192,Incorrect
1,new_learn,26,526,B,55.72914370098973,27.21322825426236,2.786457185049487,0.42746438982026413,A,1514,Correct
1,new_learn,26,527,A,37.0169306940126,60.81347378791808,1.8508465347006302,0.9552558124569943,A,1810,Incorrect
1,new_learn,26,528,B,73.45795058370683,46.61678191501967,3.672897529185342,0.7322546979911166,B,4155,Correct
1,new_learn,26,529,A,18.57991654131872,45.042569727724675,0.9289958270659361,0.7075270307771292,A,1028,Correct
1,new_learn,26,530,A,37.952989883023065,65.84767181173096,1.8976494941511532,1.0343328100986287,A,3222,Incorrect
1,new_learn,26,531,A,49.371562382807554,58.31369156507887,2.4685781191403775,0.9159893251227642,B,5095,Correct
1,new_learn,26,532,A,39.97949939463689,69.9724968528364,1.9989749697318444,1.0991254103310288,B,2092,Incorrect
1,new_learn,26,533,A,27.204706292739544,55.95087788163192,1.3602353146369774,0.8788743345741723,A,3413,Incorrect
1,new_learn,26,534,B,61.15660215783487,29.728128513178973,3.0578301078917436,0.46696835070988163,B,4984,Correct
1,new_learn,26,535,B,77.68116607776186,53.333634811127205,3.884058303888093,0.8377627765593905,B,1324,Incorrect
1,new_learn,26,536,A,46.62078450030159,77.98012150697431,2.3310392250150795,1.2249088842617497,A,840,Correct
1,new_learn,26,537,B,72.37679548194576,59.530354293585134,3.618839774097288,0.9351006185716233,A,1200,Correct
1,new_learn,26,538,A,23.876392189842385,41.1955028502867,1.1938196094921194,0.6470974455769903,A,766,Correct
1,new_learn,26,539,B,48.47330136188006,29.752438119023346,2.423665068094003,0.4673502051055433,B,2540,Correct
1,new_learn,26,540,A,61.90580337728299,83.6454281126083,3.0952901688641496,1.313899312324717,A,1502,Incorrect
1,new_learn,26,541,A,38.20324164110072,61.48566501866246,1.9101620820550358,0.9658145676185644,B,1698,Incorrect
1,new_learn,26,542,A,60.94076071522615,80.79091936491261,3.0470380357613074,1.269060793767874,A,648,Correct
1,new_learn,26,543,A,22.985668692620973,36.498629794956045,1.1492834346310488,0.5733191361496371,B,1075,Incorrect
1,new_learn,26,544,A,43.20925564684461,69.21665966002055,2.1604627823422304,1.0872527474697278,A,5245,Correct
1,new_learn,26,545,B,58.468969473683075,33.337468684380745,2.9234484736841533,0.5236637335406518,B,1453,Incorrect
1,new_learn,26,546,A,51.90673825426934,60.15381337326203,2.595336912713467,0.9448938908942572,B,3922,Correct
1,new_learn,26,547,B,76.81374500830279,58.599275326615015,3.8406872504151397,0.9204752643588967,A,6034,Incorrect
1,new_learn,26,548,A,19.364444778206828,41.88922938366734,0.9682222389103414,0.657994476481335,A,639,Correct
1,new_learn,26,549,B,60.51865357641273,49.715157170665776,3.025932678820636,0.7809238626971278,B,1362,Incorrect
1,new_learn,26,550,A,43.11969562821847,64.9756029007886,2.1559847814109236,1.0206343836784257,A,757,Incorrect
1,new_learn,26,551,A,53.445511944186315,74.00996525113815,2.6722755972093157,1.1625458156270576,A,1302,Incorrect
1,new_learn,26,552,B,59.02651105578378,28.95419994756614,2.9513255527891893,0.4548115092292187,B,4794,Correct
1,new_learn,26,553,A,35.0202532848731,49.24533861781958,1.751012664243655,0.7735439701264187,A,2358,Correct
1,new_learn,26,554,A,44.14381314345347,69.71688924498318,2.207190657172674,1.095110335415862,B,1794,Incorrect
1,new_learn,26,555,B,62.95304512758798,34.0551366732658,3.1476522563793985,0.5349368359486409,A,7467,Correct
1,new_learn,26,556,A,18.78199913189518,42.419535070951056,0.939099956594759,0.6663244987379722,A,1096,Correct
1,new_learn,26,557,A,38.270113038208905,68.0527851198685,1.9135056519104452,1.0689706489445183,A,1642,Correct
1,new_learn,26,558,A,25.04531890499691,45.291314509339756,1.2522659452498457,0.7114343046698329,A,4366,Incorrect
1,new_learn,26,559,B,85.50389722737829,65.55756176395789,4.275194861368914,1.0297757721245462,B,3748,Correct
1,new_learn,26,560,B,37.118597446318034,26.804281454663936,1.8559298723159017,0.4210406685136268,B,2678,Correct
1,new_learn,26,561,B,49.14051728355203,38.24721567648472,2.4570258641776013,0.6007858589475438,B,2369,Correct
1,new_learn,26,562,A,49.83870234202164,71.06719778029635,2.491935117101082,1.1163209322889593,B,1671,Correct
1,new_learn,26,563,B,75.51209385956767,42.889820173260254,3.775604692978384,0.6737117198505086,A,1260,Correct
1,new_learn,26,564,A,61.56137937260968,84.63800745137308,3.078068968630484,1.3294907121185593,B,2951,Correct
1,new_learn,26,565,B,75.67262044264463,44.00036184250244,3.783631022132232,0.6911560675984917,B,2623,Correct
1,new_learn,26,566,A,63.07820885417405,82.52728842979684,3.1539104427087024,1.2963356152586785,A,2728,Incorrect
1,new_learn,26,567,B,53.021070617994525,38.20188594617471,2.651053530899726,0.6000738212088882,B,1330,Incorrect
1,new_learn,26,568,A,50.000904593093715,75.18861553542804,2.5000452296546856,1.1810600109984406,A,806,Correct
1,new_learn,26,569,A,63.326578894671485,85.42453424704806,3.166328944733574,1.3418454461342793,A,696,Incorrect
1,new_learn,26,570,A,47.48301963695008,72.65318062325326,2.374150981847504,1.1412334925297236,A,1243,Incorrect
1,new_learn,26,571,B,42.931581243717545,19.58142450002412,2.1465790621858774,0.3075842967804948,B,919,Correct
1,new_learn,26,572,A,40.33641960687434,69.21342355822914,2.016820980343717,1.087201914901657,A,1440,Incorrect
1,new_learn,26,573,B,79.91303419272982,58.66757350494134,3.995651709636491,0.9215480896353145,B,930,Correct
1,new_learn,26,574,B,58.59543713689456,35.815610207886245,2.929771856844728,0.5625902895646551,A,813,Incorrect
1,new_learn,26,575,A,50.141791493306656,81.09436878145667,2.5070895746653328,1.2738273660566284,B,694,Correct
1,new_learn,26,576,A,42.50945785089549,53.46837133919673,2.1254728925447743,0.8398792129931576,A,1922,Incorrect
1,new_learn,26,577,B,39.11644825556515,22.379775438378473,1.9558224127782577,0.35154069053099557,B,709,Incorrect
1,new_learn,26,578,A,19.976588714926248,50.415492709814316,0.9988294357463124,0.7919247076213121,A,950,Correct
1,new_learn,26,579,B,37.691857704661146,16.318545613461215,1.8845928852330573,0.2563311150825985,B,3126,Correct
1,new_learn,26,580,B,60.58015124880892,38.9810417234352,3.029007562440446,0.6123127715381061,B,2078,Incorrect
1,new_learn,26,581,B,42.14175569497586,19.273279435810345,2.1070877847487934,0.30274396543062504,B,3341,Incorrect
1,new_learn,26,582,B,70.63996996130878,51.76970756820378,3.5319984980654393,0.8131966648738046,B,1320,Incorrect
1,new_learn,26,583,A,22.583534599940037,53.76662587464182,1.129176729997002,0.8445641842804281,A,651,Incorrect
1,new_learn,26,584,B,85.20017413017707,61.32923449832353,4.260008706508853,0.9633573627510946,B,1383,Correct
1,new_learn,26,585,B,39.42792360159105,31.001771406027977,1.9713961800795523,0.486974686487238,A,1901,Incorrect
1,new_learn,26,586,B,51.98503366473473,40.81994762690812,2.5992516832367363,0.6411982379230733,A,1991,Correct
1,new_learn,26,587,A,22.334984435842145,39.4859992001187,1.1167492217921073,0.6202446250337267,A,716,Correct
1,new_learn,26,588,A,38.675584918737236,65.37947987365318,1.9337792459368617,1.026978468332953,B,4350,Incorrect
1,new_learn,26,589,A,24.578719113779364,41.816943527683364,1.228935955688968,0.6568590129107466,A,809,Incorrect
1,new_learn,26,590,A,19.852075583340273,38.44300573366059,0.9926037791670137,0.603861321973892,A,822,Correct
1,new_learn,26,591,A,30.157081456818965,46.82308609779912,1.5078540728409482,0.7354953165162406,A,1086,Correct
1,new_learn,26,592,B,55.61321491198928,29.026091120540215,2.780660745599464,0.45594077313358533,B,2032,Incorrect
1,new_learn,26,593,A,19.566650310253245,46.74090836482062,0.9783325155126622,0.734204471705171,A,1674,Correct
1,new_learn,26,594,B,55.022966400895385,41.65298445461956,2.751148320044769,0.6542835498136134,B,4572,Incorrect
1,new_learn,26,595,B,57.247455671362275,39.37718259115334,2.8623727835681136,0.6185353377371562,A,2142,Incorrect
1,new_learn,26,596,A,49.06998823768406,70.29281837514876,2.453499411884203,1.1041570090374448,B,3219,Incorrect
1,new_learn,26,597,B,60.48706591079372,32.71399425022593,3.0243532955396857,0.5138702200304426,A,1144,Correct
1,new_learn,26,598,A,35.29234083984929,49.24683410298843,1.7646170419924645,0.7735674611525187,A,823,Correct
1,new_learn,26,599,B,39.08213638020074,15.028946953928223,1.9541068190100368,0.23607414670825802,A,4676,Correct
1,new_learn,26,600,A,65.52691540249323,57.74107031959392,3.2763457701246614,0.9069946116322397,A,1856,Correct
1,new_learn,26,601,B,55.5410192351748,34.943591208715404,2.77705096175874,0.5488926471567259,B,5068,Correct
1,new_learn,26,602,B,63.794699113598654,21.67791572436748,3.1897349556799326,0.3405159039240577,B,1434,Correct
1,new_learn,26,603,A,37.30736746290955,83.78959140831344,1.8653683731454778,1.3161638240782398,A,820,Correct
1,new_learn,26,604,B,42.26260128831685,50.937167867862165,2.113130064415843,0.8001191618417292,B,1536,Correct
1,new_learn,26,605,B,37.773983650373594,52.3576208156166,1.8886991825186796,0.8224315845689056,B,773,Correct
1,new_learn,26,606,B,63.6223701590151,15.12765246632354,3.181118507950755,0.23762460927130774,B,3042,Correct
1,new_learn,26,607,A,87.62741097950855,38.396059545043514,4.381370548975428,0.6031238929675248,B,760,Incorrect
1,new_learn,26,608,A,58.36877746680525,53.79070034993641,2.9184388733402624,0.8449423452540507,B,759,Incorrect
1,new_learn,26,609,A,75.17668705991717,52.53207202752135,3.7588343529958586,0.8251718577975548,B,1055,Incorrect
1,new_learn,26,610,A,50.18662588958961,60.279272204536326,2.5093312944794803,0.9468645936075538,A,602,Correct
1,new_learn,26,611,B,25.269660774592378,43.055064232656264,1.263483038729619,0.6763073674657479,A,635,Incorrect
1,new_learn,26,612,A,63.21658119988612,53.47486787161642,3.1608290599943065,0.839981260285775,A,3419,Correct
1,new_learn,26,613,B,23.00319763298374,54.10350007333531,1.150159881649187,0.8498557918194252,A,1706,Incorrect
1,new_learn,26,614,B,29.92020720446724,58.0235045763673,1.4960103602233619,0.9114310785632462,B,5066,Correct
1,new_learn,26,615,A,62.98793982655891,60.76981701650856,3.1493969913279454,0.9545700534952964,B,897,Incorrect
1,new_learn,26,616,A,62.36946774535528,53.70145527297623,3.118473387267764,0.8435404868633151,B,842,Incorrect
1,new_learn,26,617,B,39.13691120467828,33.21086000293032,1.9568455602339139,0.5216749690230249,A,640,Incorrect
1,new_learn,26,618,B,45.59678729123988,41.569601613999424,2.279839364561994,0.652973775215975,B,932,Correct
1,new_learn,26,619,A,83.6454281126083,38.09419662271701,4.1822714056304156,0.5983822412716643,B,4383,Incorrect
1,new_learn,26,620,B,41.52485117782774,33.68714139849057,2.076242558891387,0.5291563796896928,B,1055,Correct
1,new_learn,26,621,B,49.21334674286423,40.32885952207155,2.460667337143212,0.6334842440109737,B,3232,Correct
1,new_learn,26,622,B,27.277036504610862,42.965657756121374,1.3638518252305432,0.6749029738164211,B,5021,Correct
1,new_learn,26,623,A,50.22848682699046,78.84423639046491,2.511424341349523,1.2384823691109081,A,1115,Correct
1,new_learn,26,624,A,39.981339316107025,71.78379003523035,1.9990669658053515,1.1275771371075594,A,761,Correct
1,new_learn,26,625,B,59.772327779386835,22.994140375270348,2.9886163889693416,0.36119111239280893,B,582,Correct
1,new_learn,26,626,A,62.80191498933021,65.88548472329359,3.1400957494665103,1.0349267739245083,A,1260,Correct
1,new_learn,26,627,B,25.178473346015927,45.07273482793915,1.2589236673007962,0.7080008630632723,A,1479,Incorrect
1,new_learn,26,628,A,75.38350270847107,46.561132353317525,3.7691751354235534,0.7313805567200218,B,1603,Incorrect
1,new_learn,26,629,B,22.666732561328526,57.23236482421851,1.1333366280664263,0.8990038843966788,A,580,Incorrect
1,new_learn,26,630,A,68.47622438667382,53.064979290254016,3.4238112193336914,0.8335427455057826,B,532,Incorrect
1,new_learn,26,631,A,82.54358284513938,37.34357381705073,4.127179142256969,0.5865914858121736,B,894,Incorrect
1,new_learn,26,632,A,85.42453424704806,36.673421105328515,4.271226712352403,0.5760647516325247,B,659,Incorrect
1,new_learn,26,633,A,55.7824022725174,67.40906640063399,2.78912011362587,1.0588591389478914,A,835,Correct
1,new_learn,26,634,A,33.614850914213164,86.18858976113277,1.6807425457106582,1.353847202084196,A,628,Correct
1,new_learn,26,635,B,51.78284098691142,29.147543361326456,2.5891420493455706,0.4578485404706657,B,756,Correct
1,new_learn,26,636,B,27.2566873998082,55.214922160040686,1.36283436999041,0.8673139691325804,B,1488,Correct
1,new_learn,26,637,A,69.53084631485055,50.265901075672986,3.476542315742528,0.7895749277270275,B,1243,Incorrect
1,new_learn,26,638,B,44.20033676323727,43.70963050008943,2.2100168381618635,0.6865892703510266,B,3096,Correct
1,new_learn,26,639,B,39.097981646292766,33.67370479714876,1.9548990823146384,0.5289453180493696,B,1737,Correct
1,new_learn,26,640,B,56.20438518346744,23.594526015958678,2.8102192591733717,0.3706219479833451,B,598,Correct
1,new_learn,26,641,B,30.180271390713315,44.38150123968242,1.5090135695356657,0.697142991249363,B,870,Correct
1,new_learn,26,642,A,64.16572125218575,53.46776133267525,3.2082860626092873,0.839869631033125,B,725,Incorrect
1,new_learn,26,643,B,53.057257238709454,35.30495326361584,2.6528628619354726,0.5545689090415327,B,948,Correct
1,new_learn,26,644,B,46.43675516145148,38.63990872033274,2.321837758072574,0.6069542668558877,B,760,Correct
1,new_learn,26,645,A,35.92619408863203,84.80523309092794,1.7963097044316014,1.332117486322146,A,574,Correct
1,new_learn,26,646,B,41.01311217608327,27.477351336795067,2.0506556088041634,0.4316132254989053,B,1001,Correct
1,new_learn,26,647,B,32.71399425022593,39.51293408920628,1.6356997125112966,0.6206677172821409,A,1242,Incorrect
1,new_learn,26,648,A,87.19055058503113,37.959769251880346,4.359527529251556,0.596270661068355,A,967,Correct
1,new_learn,26,649,A,84.63800745137308,38.43862062739032,4.231900372568655,0.6037924408856725,B,625,Incorrect
1,new_learn,26,650,B,42.481024139677444,27.85900797938052,2.1240512069838724,0.43760827402160635,B,1140,Correct
1,new_learn,26,651,B,40.148449718665084,36.663498824059836,2.007422485933254,0.5759088928028221,B,676,Correct
1,new_learn,26,652,B,11.44077227933537,68.53812360599312,0.5720386139667685,1.0765943280570858,A,644,Incorrect
1,new_learn,26,653,A,55.71305837776767,75.03193810512701,2.785652918888384,1.1785989276783555,B,663,Incorrect
1,new_learn,26,654,A,59.00222816851345,69.14979920892425,2.950111408425672,1.0862025059598286,A,441,Correct
1,new_learn,26,655,B,64.34924620258488,14.50065428348789,3.217462310129244,0.22777574484625462,B,1253,Correct
1,new_learn,26,656,B,47.37293936090711,24.074043040364074,2.3686469680453555,0.37815418378906135,B,997,Correct
1,new_learn,26,657,A,75.18861553542804,49.999095406906285,3.759430776771402,0.7853839540823597,B,650,Incorrect
1,new_learn,26,658,A,32.5926759355483,83.25608942907738,1.629633796777415,1.3077835945850218,B,427,Incorrect
1,new_learn,26,659,A,36.388400472881536,83.76341584039392,1.8194200236440767,1.3157526592188422,A,407,Correct
1,new_learn,26,660,A,33.704804941942214,78.14363895252761,1.6852402470971106,1.2274774102901695,A,538,Correct
1,new_learn,26,661,B,54.59609132022365,18.179222428890967,2.7298045660111825,0.28555855815289327,B,1007,Correct
1,new_learn,26,662,B,19.58142450002412,57.068418756282455,0.979071225001206,0.8964286255836146,A,2907,Incorrect
1,new_learn,26,663,B,41.00203132196297,44.85378281682507,2.050101566098148,0.7045615729152486,B,724,Correct
1,new_learn,26,664,A,43.69461242893895,78.3988847454955,2.1847306214469477,1.2314868018304077,A,855,Correct
1,new_learn,26,665,A,62.10627549330478,55.95021105368845,3.1053137746652393,0.8788638600653303,A,1214,Correct
1,new_learn,26,666,A,80.83062240458955,49.85088313178726,4.041531120229478,0.783055841108931,B,1167,Incorrect
1,new_learn,26,667,B,25.11028687811845,55.417236383629145,1.2555143439059224,0.8704919135252918,B,1150,Correct
1,new_learn,26,668,A,68.5392904548155,61.30727069639416,3.426964522740775,0.9630123561571635,B,1428,Incorrect
1,new_learn,26,669,A,48.40394875010915,72.3809974155329,2.4201974375054576,1.1369580487006998,A,901,Correct
1,new_learn,26,670,B,41.15656307525951,31.512394927281946,2.0578281537629755,0.4949955420028462,B,1183,Correct
1,new_learn,26,671,B,54.91719445583004,17.448510762323536,2.745859722791502,0.2740805661349903,B,773,Correct
1,new_learn,26,672,B,38.181833169959724,50.60113960514457,1.9090916584979862,0.7948408422339686,A,1912,Incorrect
1,new_learn,26,673,A,85.29186249282913,35.36161975201372,4.264593124641456,0.5554590241598102,B,894,Incorrect
1,new_learn,26,674,B,49.14324728752607,21.030960777952046,2.4571623643763036,0.33035355938974614,A,514,Incorrect
1,new_learn,26,675,A,82.10539047297756,43.67659582581453,4.105269523648878,0.6860703629009477,A,990,Correct
1,new_learn,26,676,A,72.6988441840733,42.27088328277321,3.634942209203665,0.6639894819095596,A,748,Correct
1,new_learn,26,677,A,87.50819054188767,35.56948987997019,4.375409527094384,0.5587242404942543,A,1041,Correct
1,new_learn,26,678,B,37.03727119371671,48.44510293573316,1.8518635596858357,0.7609738974265031,B,1645,Correct
1,new_learn,26,679,B,36.66894537755356,37.912536456330116,1.8334472688776782,0.5955287300508094,B,1825,Correct
1,new_learn,26,680,B,46.480356841034265,38.379094354361136,2.3240178420517132,0.6028574043754523,B,1352,Correct
1,new_learn,26,681,B,15.028946953928227,60.91786361979926,0.7514473476964113,0.9568955641017314,B,1307,Correct
1,new_learn,26,682,B,35.390680608267246,40.71001769902846,1.7695340304133622,0.6394714626538914,A,2043,Incorrect
1,new_learn,26,683,B,28.282465000492508,38.798555112471185,1.4141232500246252,0.6094462785561909,B,701,Correct
1,new_learn,26,684,A,52.28996130086433,60.343748048219084,2.6144980650432164,0.9478773777917924,B,1263,Incorrect
1,new_learn,26,685,A,55.52032756694858,58.881847153234965,2.776016378347429,0.9249138922320002,B,687,Incorrect
1,new_learn,26,686,A,74.32722287960894,57.13756366485856,3.716361143980447,0.8975147512676938,B,646,Incorrect
1,new_learn,26,687,B,29.270567046554817,41.88186504221545,1.463528352327741,0.6578787976763161,B,691,Correct
1,new_learn,26,688,B,22.656866757671875,64.64355753437485,1.1328433378835938,1.0154186272595056,A,1233,Incorrect
1,new_learn,26,689,B,47.18923364945418,34.469255391794434,2.359461682472709,0.5414417975678587,B,681,Correct
1,new_learn,26,690,A,86.12230498540409,37.930256169788905,4.306115249270204,0.5958070706589388,B,900,Incorrect
1,new_learn,26,691,A,49.50539569969093,79.84415834880441,2.475269784984546,1.2541891065033206,B,804,Incorrect
1,new_learn,26,692,B,28.146678280477285,48.391244897009585,1.407333914023864,0.7601278973325494,A,451,Incorrect
1,new_learn,26,693,B,46.61678191501967,26.542049416293167,2.3308390957509832,0.4169215372872193,B,542,Correct
1,new_learn,26,694,A,63.69966926847925,61.76237138919536,3.1849834634239627,0.9701610611229029,A,1240,Correct
1,new_learn,26,695,A,76.27143516079738,54.720463050275235,3.813571758039869,0.8595470235988821,A,661,Correct
1,new_learn,26,696,A,70.23269659752907,38.78596722311882,3.5116348298764537,0.6092485484526229,A,886,Correct
1,new_learn,26,697,A,50.32214494567117,78.80499648550243,2.5161072472835584,1.2378659901251194,A,798,Correct
1,new_learn,26,698,A,49.24533861781958,64.97974671512691,2.462266930890979,1.020699474561841,A,1094,Correct
1,new_learn,26,699,A,44.9939107610624,63.7443772568938,2.2496955380531203,1.0012943364895692,A,1895,Correct
1,new_learn,26,700,A,73.06271605113515,49.59043581042581,3.6531358025567577,0.7789647441517495,A,1265,Correct
1,new_learn,26,701,A,65.44351219408472,54.43103660157637,3.2721756097042363,0.8550007235739474,A,921,Correct
1,new_learn,26,702,A,59.51153637280944,53.64410006928365,2.975576818640472,0.8426395534304861,A,756,Correct
1,new_learn,26,703,B,14.90725114491287,61.88715449173995,0.7453625572456434,0.9721211495141339,B,1164,Correct
1,new_learn,26,704,A,45.67639976708519,71.0338501151523,2.283819988354259,1.1157971083898048,A,1383,Correct
1,new_learn,26,705,B,58.66757350494134,20.086965807270175,2.9333786752470665,0.31552532106514675,B,784,Correct
1,new_learn,26,706,B,62.459720017316364,22.727402719203923,3.122986000865818,0.35700120708913874,A,2125,Incorrect
1,new_learn,26,707,A,38.96611688467063,74.38769033667862,1.9483058442335317,1.16847910739611,A,555,Correct
1,new_learn,26,708,A,54.86285377395927,67.41026539469647,2.7431426886979637,1.0588779727025834,A,1876,Correct
1,new_learn,26,709,A,68.47704934885995,51.94849201425009,3.4238524674429978,0.8160050043851806,B,1097,Incorrect
1,new_learn,26,710,B,48.79096228643008,23.010744936127097,2.439548114321504,0.36145193622482713,B,706,Correct
1,new_learn,26,711,B,15.96514184665321,55.84953573149372,0.7982570923326605,0.8772824558023066,A,599,Incorrect
1,new_learn,26,712,B,26.263689873590835,53.12309718819893,1.3131844936795418,0.8344556593119118,B,657,Correct
1,new_learn,26,713,B,14.30363273157242,62.439654873812074,0.715181636578621,0.9807998052212508,B,806,Correct
1,new_learn,26,714,B,47.634770019525774,33.87018577440672,2.381738500976289,0.5320316340229884,B,1030,Correct
1,new_learn,26,715,A,53.096110492139516,58.23107417595599,2.654805524606976,0.9146915742091283,A,1377,Correct
1,new_learn,26,716,B,28.812117401304256,43.85029673360929,1.4406058700652127,0.6887988503801972,A,708,Incorrect
1,new_learn,26,717,B,19.273279435810345,57.85824430502414,0.9636639717905172,0.9088351762913365,B,640,Correct
1,new_learn,26,718,B,18.801245609914577,64.63765600163671,0.9400622804957288,1.0153259262000307,B,446,Correct
1,new_learn,26,719,B,55.36733410018945,23.59010265351597,2.7683667050094725,0.3705524659685743,A,1509,Incorrect
1,new_learn,26,720,A,43.672039532768075,77.37912952775935,2.183601976638404,1.2154685243279089,A,953,Correct
1,new_learn,26,721,B,37.35943877942411,36.21873120771922,1.8679719389712057,0.5689224994225703,A,893,Incorrect
1,new_learn,26,722,A,53.729826443959325,59.54300176941502,2.6864913221979663,0.9352992846573915,B,1057,Incorrect
1,new_learn,26,723,A,87.71621926542733,33.94077623059883,4.385810963271366,0.5331404663159217,A,1009,Correct
1,new_learn,26,724,B,21.504709128041725,52.7550070921057,1.0752354564020863,0.8286737136031834,B,1701,Correct
1,new_learn,26,725,B,62.48625907812791,23.11779167044415,3.1243129539063954,0.3631334223954332,B,691,Correct
1,new_learn,26,726,A,77.5158589679396,42.707425545282305,3.8757929483969797,0.6708466717339597,B,644,Incorrect
1,new_learn,26,727,B,32.80603586776449,38.02558646916057,1.6403017933882245,0.5973045154997916,A,576,Incorrect
1,new_learn,26,728,A,59.16651913826405,51.79160277571364,2.9583259569132023,0.8135405939891135,B,651,Incorrect
1,new_learn,26,729,B,24.993135437624673,61.91806843024071,1.2496567718812337,0.9726067445245715,B,839,Correct
1,new_learn,26,730,A,47.339404241618894,74.3574002596759,2.3669702120809446,1.168003311979168,A,1325,Correct
1,new_learn,26,731,B,50.1764631657492,39.05004837302374,2.50882315828746,0.6133967254550873,B,861,Correct
1,new_learn,26,732,A,39.678675954420044,82.93644302338825,1.983933797721002,1.302762600585725,A,595,Correct
1,new_learn,26,733,B,15.87123783405876,69.03291611750149,0.793561891702938,1.0843665106531155,A,1206,Incorrect
1,new_learn,26,734,B,49.715157170665776,39.48134642358727,2.485757858533289,0.6201715393908771,A,782,Incorrect
1,new_learn,26,735,B,39.55665721453748,40.67487433133302,1.9778328607268743,0.6389194319250193,B,1137,Correct
1,new_learn,26,736,B,18.290379189074997,60.453415935203886,0.9145189594537498,0.9496000369322232,B,895,Correct
1,new_learn,26,737,A,46.82308609779912,69.84291854318104,2.341154304889956,1.0970899990026397,B,914,Incorrect
1,new_learn,26,738,A,60.15381337326203,48.09326174573066,3.0076906686631015,0.7554471889377924,A,587,Correct
1,new_learn,26,739,A,43.179940524054444,69.29010650902468,2.158997026202722,1.0884064478760314,A,487,Correct
1,new_learn,26,740,B,62.09514635060175,28.016117267915675,3.1047573175300873,0.44007614095497016,B,958,Correct
1,new_learn,26,741,B,61.73960491625395,12.535791197652628,3.0869802458126974,0.19691174766740546,B,737,Correct
1,new_learn,26,742,A,54.999702010626685,59.932173073650496,2.7499851005313345,0.9414123732092621,B,967,Incorrect
1,new_learn,26,743,B,23.95085624285982,44.6932887381001,1.1975428121429912,0.7020405378219137,A,880,Incorrect
1,new_learn,26,744,A,48.85854113819503,59.96918318045108,2.442927056909751,0.9419937266074285,B,613,Incorrect
1,new_learn,26,745,A,68.55194416336572,49.46031760216804,3.4275972081682857,0.7769208521159453,B,2615,Incorrect
1,new_learn,26,746,A,49.11657951994514,61.490782352374076,2.455828975997257,0.9658949505085365,A,672,Correct
1,new_learn,26,747,B,55.46784275638796,27.479224355598703,2.773392137819398,0.43164264680947295,B,932,Correct
1,new_learn,26,748,B,61.44671817610097,28.913310875582624,3.0723359088050484,0.4541692251884412,B,934,Correct
1,new_learn,26,749,B,53.86158010098619,21.371170608644547,2.6930790050493094,0.3356975629136591,B,622,Correct
1,new_learn,26,750,A,46.62040817445417,71.32107900707281,2.331020408722708,1.1203088892735857,A,712,Correct
1,new_learn,26,751,A,71.82441491434011,38.760739159900865,3.5912207457170053,0.6088522669622738,B,1309,Incorrect
1,new_learn,26,752,A,84.3720550629044,40.54508076172167,4.21860275314522,0.6368806393011482,B,1159,Incorrect
1,new_learn,26,753,A,60.71973722242502,61.114698744702395,3.035986861121251,0.9599874430135519,A,812,Correct
1,new_learn,26,754,B,16.283733181745774,54.07813114695236,0.8141866590872887,0.8494572976556545,A,620,Incorrect
1,new_learn,26,755,B,15.82067906513516,59.48628106389837,0.791033953256758,0.9344083178986037,B,778,Correct
1,new_learn,26,756,B,41.65298445461956,44.977033599104615,2.082649222730978,0.7064975916760419,A,896,Incorrect
1,new_learn,26,757,A,72.09592036947632,43.87960214735891,3.6047960184738157,0.6892591787429283,B,595,Incorrect
1,new_learn,26,758,B,49.481413202392254,20.74002302974928,2.4740706601196125,0.3257835199277173,A,604,Incorrect
1,new_learn,26,759,A,45.38937556743235,76.5659635679442,2.2694687783716176,1.202695343300386,A,713,Correct
1,new_learn,26,760,A,55.490658802866825,65.39350499144263,2.774532940143341,1.027198774368018,A,698,Correct
1,new_learn,26,761,A,57.50976912351733,51.52873606305482,2.8754884561758667,0.8094114933223023,B,958,Incorrect
1,new_learn,26,762,A,66.93083780716415,47.35157753764557,3.346541890358208,0.743796840640774,B,593,Incorrect
1,new_learn,26,763,B,61.71330089110673,17.9533991505851,3.085665044555336,0.28201133439221693,B,368,Correct
1,new_learn,26,764,B,59.002756996219645,27.10842419068925,2.9501378498109823,0.4258181314393259,B,486,Correct
1,new_learn,26,765,B,53.909896453753134,34.574411990315355,2.695494822687657,0.5430935935548079,B,616,Correct
1,new_learn,26,766,A,53.216514073372274,61.782481031637545,2.6608257036686136,0.9704769426477162,B,568,Incorrect
1,new_learn,26,767,A,64.10735641600878,67.17027094620411,3.205367820800439,1.0551081487211538,A,637,Correct
1,new_learn,26,768,B,20.168691859232055,53.53844341410276,1.0084345929616028,0.8409799025718903,B,1234,Correct
1,new_learn,26,769,B,21.59003184770014,49.88584272204316,1.079501592385007,0.7836049850685333,B,1359,Correct
1,new_learn,26,770,A,76.11356772497513,40.752586151069714,3.8056783862487564,0.6401401263349287,B,5392,Incorrect
1,new_learn,26,771,A,40.23596507251425,75.18091506400168,2.0117982536257126,1.1809390522761294,A,614,Correct
1,new_learn,26,772,B,40.37824343175791,52.209334275291994,2.0189121715878953,0.8201023050403555,A,487,Incorrect
1,new_learn,26,773,A,58.31369156507887,50.628437617192446,2.9156845782539436,0.7952696384045045,B,837,Incorrect
1,new_learn,26,774,B,54.21414359066645,21.134722425377007,2.710707179533323,0.3319834435361193,B,647,Correct
1,new_learn,26,775,B,49.80029119584997,34.53961290096092,2.4900145597924985,0.5425469707374704,B,1194,Correct
1,new_learn,26,776,A,34.817578679789264,89.27007703792815,1.7408789339894633,1.4022510910387498,A,747,Correct
1,new_learn,26,777,B,24.90201828465885,56.43236391780481,1.2451009142329426,0.8864374995444065,A,635,Incorrect
1,new_learn,26,778,A,83.14235432922162,47.159571862048146,4.157117716461081,0.7407808225412519,B,780,Incorrect
1,new_learn,26,779,A,48.17902979651235,62.947993818015554,2.4089514898256175,0.9887847746844669,A,434,Correct
1,new_learn,26,780,B,37.821874990653015,51.01835291920484,1.8910937495326507,0.8013944136461265,B,765,Correct
1,new_learn,26,781,A,39.21361675851189,84.48870319935426,1.9606808379255944,1.327145446412099,A,640,Correct
1,new_learn,26,782,B,27.111180099309998,47.15020915645764,1.3555590049654997,0.7406337535057476,B,1634,Correct
1,new_learn,26,783,A,39.33476033764815,75.65934260583423,1.9667380168824076,1.18845417452961,A,590,Correct
1,new_learn,26,784,B,55.828621184736384,31.09001204930736,2.7914310592368192,0.48836076727061073,B,861,Correct
1,new_learn,26,785,A,52.46833178856971,79.32884860019306,2.6234165894284853,1.246094639900517,A,735,Correct
1,new_learn,26,786,B,32.939435933505095,42.33187806997177,1.6469717966752546,0.664947585786411,B,907,Correct
1,new_learn,26,787,B,33.034615741757435,43.89475504193327,1.6517307870878717,0.6894971998543055,B,821,Correct
1,new_learn,26,788,A,46.00966066110077,70.1413961514807,2.3004830330550385,1.1017784743101158,A,789,Correct
1,new_learn,26,789,A,64.43872760440134,66.97211577837041,3.2219363802200665,1.0519955346234677,A,1973,Correct
1,new_learn,26,790,A,55.79974284849091,59.47833009360303,2.789987142424545,0.9342834243492599,A,773,Correct
1,new_learn,26,791,B,25.407957636436116,63.95879715706945,1.2703978818218058,1.0046624364054457,A,978,Incorrect
1,new_learn,26,792,A,45.64516276509683,67.68966236965034,2.282258138254841,1.0632667301223349,A,1328,Correct
1,new_learn,26,793,B,29.832965357346943,56.10068418337087,1.4916482678673473,0.8812274864591952,B,814,Correct
1,new_learn,26,794,A,82.20709630840332,36.689914383659456,4.110354815420166,0.576323827442715,B,938,Incorrect
1,new_learn,26,795,B,41.957009255410824,49.74053984702325,2.097850462770541,0.7813225728449932,A,961,Incorrect
1,new_learn,26,796,A,62.2334479260435,56.69201467316009,3.111672396302175,0.8905160840720223,B,825,Incorrect
1,new_learn,26,797,B,49.39698699508163,37.347951323238696,2.4698493497540817,0.5866602475185794,A,772,Incorrect
1,new_learn,26,798,A,60.517061336088574,60.518663567080125,3.0258530668044283,0.9506249443370559,B,1046,Incorrect
1,new_learn,26,799,A,70.52659001651594,58.19885051684605,3.526329500825797,0.9141854061554704,B,577,Incorrect
1,new_learn,26,800,A,51.12124507722042,64.27842341352371,2.556062253861021,1.0096831139013014,A,409,Correct
1,new_learn,26,801,B,61.85175233763735,25.64634547486095,3.0925876168818673,0.402851852676245,B,894,Correct
1,new_learn,26,802,B,30.320665358754685,43.32259285505533,1.5160332679377342,0.6805096972395174,A,690,Incorrect
1,new_learn,26,803,A,65.79623915657771,67.12540181966916,3.289811957828886,1.0544033461296778,B,664,Incorrect
1,new_learn,26,804,B,41.29461108443328,42.61162821244143,2.064730554221664,0.6693418907485279,B,596,Correct
1,new_learn,26,805,B,21.98127200464876,59.216991053617754,1.0990636002324379,0.9301783203086902,B,919,Correct
1,new_learn,26,806,A,69.9724968528364,60.02050060536311,3.49862484264182,0.9427998188329524,A,707,Correct
1,new_learn,26,807,B,47.981412977802165,29.744186355099416,2.3990706488901083,0.4672205867009304,B,1245,Correct
1,new_learn,26,808,B,67.42823665594705,12.434018901098938,3.371411832797352,0.19531311217144526,B,1857,Correct
1,new_learn,26,809,B,38.9810417234352,39.41984875119108,1.94905208617176,0.6192055362118134,A,875,Incorrect
1,new_learn,26,810,A,47.690323906855525,67.662889301691,2.3845161953427763,1.0628461797542592,B,502,Incorrect
1,new_learn,26,811,B,49.02738443824326,29.38147056911592,2.451369221912163,0.4615230604579965,B,584,Correct
1,new_learn,26,812,A,70.1579353075589,46.473930301219156,3.5078967653779447,0.7300107900887708,B,1104,Incorrect
1,new_learn,26,813,A,49.3842159838833,59.20534933025573,2.469210799194165,0.9299954525457439,A,631,Correct
1,new_learn,26,814,B,58.902762638218036,29.993941086043222,2.9451381319109022,0.47114372484059225,B,768,Correct
1,new_learn,26,815,B,37.57335222711971,51.72317206928615,1.8786676113559855,0.8124656869661508,B,919,Correct
1,new_learn,26,816,B,16.31474596591704,53.83334638218564,0.8157372982958521,0.8456122275621452,A,528,Incorrect
1,new_learn,26,817,A,71.17730684931885,57.064475081290624,3.558865342465942,0.8963666784817022,A,815,Correct
1,new_learn,26,818,A,81.09436878145667,49.858208506693344,4.054718439072833,0.7831709078288798,A,844,Correct
1,new_learn,26,819,B,26.804281454663936,62.881402553681966,1.3402140727331968,0.9877387615503486,B,735,Correct
1,new_learn,26,820,A,60.81347378791808,62.9830693059874,3.040673689395904,0.9893357391611342,A,797,Correct
1,new_learn,26,821,A,41.816943527683364,75.42128088622064,2.090847176384168,1.1847147097824153,A,641,Correct
1,new_learn,26,822,A,68.0527851198685,61.729886961791095,3.4026392559934253,0.9696507969304564,B,1164,Incorrect
1,new_learn,26,823,A,68.5566307722295,42.0148201776086,3.427831538611475,0.6599672520593569,B,3601,Incorrect
1,new_learn,26,824,A,65.88450638530425,46.838663684609415,3.2942253192652124,0.7357400086776598,A,480,Correct
1,new_learn,26,825,B,31.844471238769316,40.26386186390485,1.5922235619384657,0.6324632631839886,A,825,Incorrect
1,new_learn,26,826,A,71.29903688721507,42.7002977203955,3.564951844360753,0.6707347081224574,B,790,Incorrect
1,new_learn,26,827,A,41.57936414955047,78.86727450849094,2.0789682074775238,1.2388442510226234,A,646,Correct
1,new_learn,26,828,A,77.7115754744004,39.320600682051584,3.8855787737200207,0.6176465511873552,B,3159,Incorrect
1,new_learn,26,829,B,39.03056914326826,35.11931799261936,1.9515284571634128,0.5516529570234842,B,1589,Correct
1,new_learn,26,830,A,81.67084017483566,49.21930742620504,4.083542008741784,0.7731350731247164,B,3882,Incorrect
1,new_learn,26,831,B,18.041246443894746,60.44629925779063,0.9020623221947374,0.9494882484248259,A,589,Incorrect
1,new_learn,26,832,B,20.08620921547045,65.37905151709951,1.0043104607735225,1.0269717397239424,B,1252,Correct
1,new_learn,26,833,B,53.822782666876044,28.278586362909508,2.6911391333438024,0.4441989958581051,B,1242,Correct
1,new_learn,26,834,A,43.70487645922644,70.32953943701514,2.185243822961322,1.1047338221284022,A,685,Correct
1,new_learn,26,835,B,47.369716372035896,43.90561225859053,2.368485818601795,0.6896677446147499,B,1241,Correct
1,new_learn,26,836,B,44.79499109495217,45.03422757378836,2.2397495547476085,0.7073959925295219,B,3485,Correct
1,new_learn,26,837,B,49.507789277295004,24.92946763503413,2.47538946386475,0.39159116190063864,B,1634,Correct
1,new_learn,26,838,B,57.76189585426792,30.394737006557577,2.8880947927133955,0.4774394124379755,B,749,Correct
1,new_learn,26,839,B,39.37876532278778,35.69476844276963,1.968938266139389,0.5606921115569692,B,797,Correct
1,new_learn,26,840,B,34.0551366732658,37.04695487241202,1.70275683366329,0.581932206325211,B,814,Correct
1,new_learn,26,841,A,44.6550524840116,63.03607695767376,2.23275262420058,0.9901683814067435,A,1284,Correct
1,new_learn,26,842,A,67.26312233581746,45.379013902305815,3.363156116790873,0.7128118835131653,B,569,Incorrect
1,new_learn,26,843,A,74.00996525113815,46.554488055813685,3.700498262556908,0.7312761883388903,B,749,Incorrect
1,new_learn,26,844,A,81.54378087164957,32.73688846467364,4.077189043582479,0.5142298415100357,A,678,Correct
1,new_learn,26,845,B,36.38490292524988,33.88468586941164,1.8192451462624941,0.5322594009827074,B,1184,Correct
1,new_learn,26,846,B,40.93140088856019,45.84281455262777,2.0465700444280093,0.7200972470920733,B,987,Correct
1,new_learn,26,847,B,21.304189764154433,65.2898262091501,1.0652094882077217,1.0255701918641016,B,1300,Correct
1,new_learn,26,848,B,50.09506749553964,21.71550945448091,2.504753374776982,0.34110642485578463,A,1346,Incorrect
1,new_learn,26,849,B,25.916341762768635,62.31061485388406,1.2958170881384317,0.9787728493281259,A,833,Incorrect
1,new_learn,26,850,A,59.80865703677197,69.80815793336104,2.9904328518385985,1.0965439806204154,B,671,Incorrect
1,new_learn,26,851,B,54.344942338810924,25.74944740432852,2.7172471169405465,0.40447137399717625,B,935,Correct
1,new_learn,26,852,A,51.75153647570148,77.11725063484738,2.5875768237850743,1.2113549402973967,A,479,Correct
1,new_learn,26,853,B,28.95419994756614,40.97348894421622,1.447709997378307,0.6436100592954614,B,815,Correct
1,new_learn,26,854,A,34.87397791878684,75.88489880898055,1.743698895939342,1.1919972030834904,A,637,Correct
1,new_learn,26,855,A,72.05376958498815,39.27417581918627,3.602688479249407,0.6169173111467474,B,3095,Incorrect
1,new_learn,26,856,B,52.85813677086631,24.000519674365208,2.642906838543315,0.37699928145661515,B,880,Correct
1,new_learn,26,857,B,56.88775890058795,24.143378553655126,2.8443879450293976,0.3792433034850015,B,588,Correct
1,new_learn,26,858,A,87.7302998852874,36.81296256296305,4.38651499426437,0.578256663723404,B,756,Incorrect
1,new_learn,26,859,A,45.042569727724675,81.42008345868128,2.252128486386234,1.2789436802423049,B,4687,Incorrect
1,new_learn,26,860,B,50.33235045059686,29.550038031093038,2.516617522529843,0.46417091195890436,B,641,Correct
1,new_learn,26,861,A,40.15138535293687,79.01124940324688,2.0075692676468435,1.2411058033809568,A,471,Correct
1,new_learn,26,862,A,62.05536698204053,66.88319315145412,3.1027683491020266,1.0505987412661772,B,1734,Incorrect
1,new_learn,26,863,B,33.28614570786224,51.79255533761496,1.6643072853931118,0.8135555567964698,B,898,Correct
1,new_learn,26,864,A,38.44300573366059,80.14792441665972,1.9221502866830296,1.2589606527392407,A,665,Correct
1,new_learn,26,865,A,82.21858008284309,40.414726377776454,4.110929004142155,0.6348330374263207,B,649,Incorrect
1,new_learn,26,866,B,57.05183006787719,18.285933379112038,2.8525915033938594,0.2872347698392538,B,672,Correct
1,new_learn,26,867,A,45.135928467298555,67.08610203064123,2.2567964233649276,1.053786026487189,A,812,Correct
1,new_learn,26,868,B,58.889414744786734,17.521997602968383,2.9444707372393366,0.2752348947285172,B,1404,Correct
1,new_learn,26,869,B,13.34818076251981,60.535791356820646,0.6674090381259904,0.9508939870291612,A,760,Incorrect
1,new_learn,26,870,B,46.102169615980394,29.940916578994376,2.3051084807990194,0.4703108178315679,B,1093,Correct
1,new_learn,26,871,A,56.952933381986384,55.16441615827712,2.847646669099319,0.8665206227120674,B,785,Incorrect
1,new_learn,26,872,A,52.54258844904647,66.71552906181765,2.6271294224523234,1.0479650799048132,A,687,Correct
1,new_learn,26,873,A,70.2218405124137,46.55658455718755,3.5110920256206852,0.7313091201054621,B,678,Incorrect
1,new_learn,26,874,A,47.38739528308438,67.44204987031301,2.369369764154219,1.0593772420780592,A,597,Correct
1,new_learn,26,875,A,51.6035599709528,61.01175028415872,2.58017799854764,0.9583703323768401,A,1021,Correct
1,new_learn,26,876,B,49.93975980723066,20.70692508458825,2.4969879903615326,0.3252636186208832,B,783,Correct
1,new_learn,26,877,B,41.446806113852965,47.69050206193121,2.072340305692648,0.7491206546188598,B,474,Correct
1,new_learn,26,878,A,71.06719778029635,50.16129765797836,3.5533598890148177,0.7879318210841785,B,1178,Incorrect
1,new_learn,26,879,B,14.078055913719275,66.02686298777762,0.7039027956859638,1.03714753850991,A,1115,Incorrect
1,new_learn,26,880,A,53.46837133919673,57.49054214910451,2.6734185669598367,0.9030593243326055,B,998,Incorrect
1,new_learn,26,881,B,17.9785172622622,53.52472980821919,0.8989258631131101,0.8407644897544001,B,910,Correct
1,new_learn,26,882,A,30.503165651817564,86.9406478540051,1.525158282590878,1.3656605029823983,A,512,Correct
1,new_learn,26,883,A,78.86230588936095,43.70743476661643,3.943115294468048,0.6865547798502865,B,1248,Incorrect
1,new_learn,26,884,B,32.099130076238396,44.78970595494514,1.6049565038119198,0.7035550559225133,B,875,Correct
1,new_learn,26,885,B,68.00695215222095,13.762120055703434,3.4003476076110473,0.21617487632409332,B,942,Correct
1,new_learn,26,886,A,48.620792214683995,77.72097213056443,2.4310396107342,1.2208381753761914,A,601,Correct
1,new_learn,26,887,A,36.64334739520656,76.34179950507134,1.832167369760328,1.199174182434785,A,783,Correct
1,new_learn,26,888,B,53.04651649962029,27.09287927645255,2.6523258249810144,0.42557395249749236,B,693,Correct
1,new_learn,26,889,A,72.07516551204391,41.23123776690598,3.6037582756021953,0.6476587683346292,B,734,Incorrect
1,new_learn,26,890,A,80.34675165759066,38.83120010334927,4.017337582879533,0.6099590648737864,B,632,Incorrect
1,new_learn,26,891,A,39.33646340770643,75.46861379411385,1.9668231703853218,1.185458213360967,A,603,Correct
1,new_learn,26,892,B,38.24721567648472,50.85948271644797,1.9123607838242362,0.79889888633685,B,1073,Correct
1,new_learn,26,893,B,18.918768564683123,52.3262875977417,0.9459384282341561,0.8219394035334601,A,681,Incorrect
1,new_learn,26,894,A,41.1955028502867,76.12360781015761,2.0597751425143347,1.1957468353057088,A,756,Correct
1,new_learn,26,895,B,17.67563271518035,56.71520115568419,0.8837816357590174,0.890880296487824,A,2481,Incorrect
1,new_learn,26,896,B,34.178356356508644,51.71885409472772,1.708917817825432,0.8123978603803949,B,866,Correct
1,new_learn,26,897,A,31.368112438895622,82.9757791302577,1.568405621944781,1.3033804907075344,A,774,Correct
1,new_learn,26,898,A,61.3844267142289,59.21828019775179,3.069221335711445,0.9301985701373946,B,681,Incorrect
