experiment,condition,subject,trial,cat,x,y,xt,yt,resp,rt,fb
2,relearn,41,0,B,59.67970831931593,31.862543777852906,2.9839854159657966,0.5004956672859293,A,1942,Incorrect
2,relearn,41,1,B,77.359976526775,54.51180322250202,3.86799882633875,0.8562694026887239,B,4283,Correct
2,relearn,41,2,A,33.731786237939296,58.343235185972915,1.6865893118969648,0.9164533952345703,B,1153,Incorrect
2,relearn,41,3,B,57.88053853248539,31.59953973958963,2.8940269266242695,0.49636440951356753,B,2827,Correct
2,relearn,41,4,B,46.24162234787272,31.992268865556074,2.312081117393636,0.5025333841985021,B,1609,Correct
2,relearn,41,5,A,37.96959980984833,60.337077115657365,1.8984799904924166,0.94777259102815,A,1121,Correct
2,relearn,41,6,A,39.9373868166756,53.15294931433981,1.9968693408337799,0.834924575412803,A,2522,Correct
2,relearn,41,7,B,44.21276662177519,28.360926909199307,2.2106383310887594,0.445492398134688,B,779,Correct
2,relearn,41,8,B,45.64461968893396,38.46422442300885,2.282230984446698,0.6041946243667685,B,1247,Correct
2,relearn,41,9,B,51.775880948974326,43.75355816873419,2.5887940474487166,0.6872792845565451,A,2171,Incorrect
2,relearn,41,10,B,61.57984689710441,50.577784914097236,3.0789923448552208,0.7944739876048627,A,1390,Incorrect
2,relearn,41,11,B,48.69355965928613,30.233839696063868,2.4346779829643066,0.47491204339482856,B,1229,Correct
2,relearn,41,12,B,41.5830404354739,13.909858161221543,2.079152021773695,0.21849554105884816,B,843,Correct
2,relearn,41,13,B,50.75235014676565,22.70960670135838,2.5376175073382825,0.35672166789450505,B,724,Correct
2,relearn,41,14,A,30.571543253642595,62.07101536301126,1.5285771626821298,0.9750092293264769,A,825,Correct
2,relearn,41,15,A,41.30721406048223,69.66453575942462,2.0653607030241115,1.0942879687877594,A,728,Correct
2,relearn,41,16,A,38.695890509393536,53.494809768768484,1.9347945254696768,0.8402945068737329,A,1384,Correct
2,relearn,41,17,A,28.759034719220956,57.80024684299276,1.4379517359610476,0.9079241542881136,A,1214,Correct
2,relearn,41,18,A,25.42401075131187,45.83730649451262,1.2712005375655935,0.7200107267175229,A,2685,Correct
2,relearn,41,19,A,21.22045369357725,42.00476590474463,1.0610226846788626,0.6598093199105237,B,1397,Incorrect
2,relearn,41,20,B,46.671640391048406,26.838252648429318,2.3335820195524204,0.42157428677746167,B,709,Correct
2,relearn,41,21,A,56.050713578155694,66.72284024000608,2.802535678907785,1.0480799236232425,A,842,Correct
2,relearn,41,22,B,57.156335988755075,38.878638303027394,2.857816799437754,0.6107042223718281,A,2292,Incorrect
2,relearn,41,23,B,64.77604678828601,34.86723530833165,3.2388023394143004,0.5476932514782068,B,2250,Correct
2,relearn,41,24,B,39.3868866932063,17.568787250177394,1.969344334660315,0.2759698647881966,B,843,Correct
2,relearn,41,25,A,26.487735922918997,37.64660639383713,1.3243867961459497,0.5913515103973264,B,3466,Incorrect
2,relearn,41,26,A,50.66668196069279,66.03521434355957,2.5333340980346395,1.0372787212997705,A,832,Correct
2,relearn,41,27,A,16.404002150394756,43.34814895015519,0.8202001075197378,0.6809111314426183,B,2725,Incorrect
2,relearn,41,28,A,43.057297809690446,52.31536974952104,2.1528648904845222,0.8217679063746449,A,2080,Correct
2,relearn,41,29,A,53.41384562680361,70.11983151107816,2.6706922813401803,1.101439737730786,A,834,Correct
2,relearn,41,30,B,40.5433517155232,21.95087074715143,2.0271675857761604,0.3448034713957501,B,1583,Correct
2,relearn,41,31,A,31.079487198879754,46.85927290191534,1.5539743599439877,0.7360637375060827,A,5278,Correct
2,relearn,41,32,A,61.093064346672435,82.31685133230067,3.054653217333622,1.293030077060995,A,770,Correct
2,relearn,41,33,A,23.91904272776044,37.116129196124106,1.1959521363880221,0.5830187940611656,B,5349,Incorrect
2,relearn,41,34,A,65.38084659813047,82.69193020031554,3.2690423299065237,1.2989218021423563,A,728,Correct
2,relearn,41,35,A,54.69840063826538,78.53452487858075,2.7349200319132696,1.2336174320585707,A,1321,Correct
2,relearn,41,36,A,45.35664133894521,71.95972179446933,2.2678320669472605,1.1303406667193507,A,705,Correct
2,relearn,41,37,A,41.12744095885936,73.80207315365834,2.056372047942968,1.1592802541961478,A,771,Correct
2,relearn,41,38,A,45.69587448440946,59.38553117818515,2.2847937242204726,0.9328257423945705,A,1250,Correct
2,relearn,41,39,A,34.603607581750936,52.444228427643054,1.7301803790875467,0.8237920137573421,A,1474,Correct
2,relearn,41,40,A,63.75313878971265,81.22119575792004,3.1876569394856324,1.2758195595443005,A,543,Correct
2,relearn,41,41,B,63.1666275803404,44.2615831557912,3.15833137901702,0.6952593223924369,A,1077,Incorrect
2,relearn,41,42,A,25.900137914579997,44.65584519754404,1.2950068957289997,0.7014523760622369,B,851,Incorrect
2,relearn,41,43,A,40.42967605948076,66.60787974226193,2.021483802974038,1.0462741283474122,A,638,Correct
2,relearn,41,44,B,74.1887930123405,48.745989319141344,3.709439650617025,0.7657002096849047,A,1225,Incorrect
2,relearn,41,45,B,63.66147809696459,30.817905863723333,3.18307390484823,0.4840865333024752,B,891,Correct
2,relearn,41,46,A,17.146420710040804,39.73485811253407,0.8573210355020402,0.624153691688849,B,597,Incorrect
2,relearn,41,47,B,61.107268967094114,37.20970846003144,3.0553634483547056,0.5844887337012639,B,665,Correct
2,relearn,41,48,B,72.16196037930148,47.46455932528878,3.608098018965074,0.7455715544110207,A,4539,Incorrect
2,relearn,41,49,A,21.437146702001016,37.35733222050656,1.0718573351000509,0.5868076023082834,B,2399,Incorrect
2,relearn,41,50,A,33.38043495212043,50.49685892700113,1.6690217476060214,0.7932028051721346,A,2429,Correct
2,relearn,41,51,A,59.0053185631225,77.89311551374266,2.950265928156125,1.2235421973159752,A,571,Correct
2,relearn,41,52,B,59.81664159224991,31.416719191543123,2.990832079612495,0.4934926710602267,B,2574,Correct
2,relearn,41,53,A,54.88924019733844,76.33450738806228,2.744462009866922,1.1990596381286611,A,586,Correct
2,relearn,41,54,B,58.799847551595484,29.136033303658742,2.9399923775797743,0.45766774090760926,B,1096,Correct
2,relearn,41,55,B,53.33040310994656,28.677303191958924,2.666520155497328,0.45046202516312644,B,935,Correct
2,relearn,41,56,B,84.25229993706293,58.755774885265595,4.212614996853147,0.9229335536776303,A,779,Incorrect
2,relearn,41,57,A,56.459486845558494,76.66729088637209,2.8229743422779245,1.204286989096291,A,417,Correct
2,relearn,41,58,A,19.129235397152144,32.60252139513972,0.9564617698576072,0.512119208517375,A,2720,Correct
2,relearn,41,59,A,39.72668831815492,67.36006374068262,1.9863344159077458,1.0580894069653437,A,710,Correct
2,relearn,41,60,A,21.66320732590518,44.816147936228795,1.083160366295259,0.7039704055932486,A,2432,Correct
2,relearn,41,61,B,59.185057577452,52.17697596610681,2.9592528788726,0.8195940219082618,A,1753,Incorrect
2,relearn,41,62,B,39.67970086111191,17.566194161224903,1.9839850430555956,0.2759291326421804,B,783,Correct
2,relearn,41,63,B,84.63796630588232,61.298623738416026,4.231898315294115,0.9628765300588633,A,1708,Incorrect
2,relearn,41,64,B,37.950712623227595,13.345813309126278,1.8975356311613796,0.20963554524066003,B,960,Correct
2,relearn,41,65,A,45.158202900423596,63.469105643890366,2.25791014502118,0.9969703801038021,A,1379,Correct
2,relearn,41,66,B,47.558024078169275,24.27471792817785,2.3779012039084635,0.38130637755563995,B,811,Correct
2,relearn,41,67,A,23.129208548916274,44.017463982008444,1.1564604274458137,0.6914247073776553,A,2212,Correct
2,relearn,41,68,A,57.71615074178051,66.26075920389655,2.8858075370890255,1.0408215716812184,A,634,Correct
2,relearn,41,69,A,40.873190840432116,69.3302778123656,2.043659542021606,1.089037457233336,A,759,Correct
2,relearn,41,70,B,56.6342473059375,44.443001219818655,2.831712365296875,0.6981090306783224,A,2372,Incorrect
2,relearn,41,71,A,60.0446500187701,85.93030771847924,3.0022325009385047,1.3497901172454234,A,722,Correct
2,relearn,41,72,B,51.631723370126274,35.35956436508027,2.5815861685063135,0.555426738217358,B,974,Correct
2,relearn,41,73,A,17.674273712215093,48.53286175456908,0.8837136856107547,0.7623524097292165,A,1012,Correct
2,relearn,41,74,A,46.749786714618345,53.43972077680184,2.3374893357309174,0.8394291710114525,B,756,Incorrect
2,relearn,41,75,A,59.15236894686334,86.9765880011301,2.957618447343167,1.3662250494932824,A,512,Correct
2,relearn,41,76,A,43.189659991750815,65.5785876036621,2.159482999587541,1.0301060452422977,A,1044,Correct
2,relearn,41,77,A,35.82493309160217,63.52856302788317,1.7912466545801085,0.9979043345075697,A,2582,Correct
2,relearn,41,78,A,25.632514538649712,42.73043917472019,1.2816257269324856,0.6712081689798323,B,1526,Incorrect
2,relearn,41,79,B,40.292271627633326,17.873125890279525,2.0146135813816666,0.28075040496793846,B,1233,Correct
2,relearn,41,80,B,64.5246794096055,55.402265722686536,3.2262339704802745,0.8702567549331082,A,1167,Incorrect
2,relearn,41,81,B,31.16044587386171,11.953916837614571,1.5580222936930854,0.18777168659336635,B,697,Correct
2,relearn,41,82,A,69.6929850186529,87.73490229825421,3.4846492509326454,1.3781366226180682,A,697,Correct
2,relearn,41,83,B,50.43184402959784,36.15858022552489,2.521592201479892,0.5679776500037308,B,882,Correct
2,relearn,41,84,A,50.071394369081176,78.00510047757615,2.503569718454059,1.2253012530144345,A,688,Correct
2,relearn,41,85,B,77.4522006193547,52.09770196418347,3.872610030967735,0.8183487887979467,B,759,Correct
2,relearn,41,86,B,65.02136891116444,46.399320428132945,3.2510684455582224,0.7288388209429064,B,2311,Correct
2,relearn,41,87,A,32.09130209419503,60.09861993419219,1.6045651047097516,0.9440269143807165,A,728,Correct
2,relearn,41,88,B,75.97036238448132,57.4408408055767,3.798518119224066,0.9022786174541029,A,661,Incorrect
2,relearn,41,89,B,64.73292970770208,36.79626660411079,3.236646485385104,0.5779944042150295,B,665,Correct
2,relearn,41,90,A,41.88563843072469,72.18287713845135,2.0942819215362345,1.1338459826656668,A,556,Correct
2,relearn,41,91,A,56.69973686247762,69.81682648046824,2.8349868431238807,1.0966801458399618,A,510,Correct
2,relearn,41,92,A,37.858714073881636,47.32154032555113,1.8929357036940817,0.7433250172165231,B,1009,Incorrect
2,relearn,41,93,B,47.067192812800165,25.16903627167641,2.3533596406400084,0.3953542972451682,B,914,Correct
2,relearn,41,94,A,64.79369201037844,85.18691455811698,3.2396846005189217,1.3381129247888084,A,567,Correct
2,relearn,41,95,B,58.93642796211852,48.90992194940023,2.9468213981059264,0.7682752574194296,B,670,Correct
2,relearn,41,96,A,22.545187980702604,40.82912575855492,1.1272593990351303,0.6413424076778497,B,1099,Incorrect
2,relearn,41,97,A,38.69609645393383,47.396707603831594,1.9348048226966916,0.744505742062704,A,664,Correct
2,relearn,41,98,B,79.72868668614394,49.28537562647061,3.986434334307197,0.7741728699876675,A,704,Incorrect
2,relearn,41,99,A,50.67922026687462,60.656036436549,2.533961013343731,0.9527827923246858,A,1885,Correct
2,relearn,41,100,B,66.3907887056473,45.91136964832703,3.319539435282365,0.7211741080171481,A,1728,Incorrect
2,relearn,41,101,A,12.078721228300783,35.56062599928909,0.6039360614150391,0.558585006982104,A,736,Correct
2,relearn,41,102,B,44.214024339927775,15.624132263738282,2.210701216996389,0.24542329569237722,B,806,Correct
2,relearn,41,103,A,63.020172181026226,83.12291742314609,3.151008609051311,1.3056917336075338,A,667,Correct
2,relearn,41,104,A,51.59750700670148,78.476738920396,2.5798753503350738,1.2327097323500014,A,739,Correct
2,relearn,41,105,B,85.38629605628836,58.350605849770616,4.269314802814418,0.9165691733507647,A,874,Incorrect
2,relearn,41,106,B,54.19873557349608,32.824102573248645,2.709936778674804,0.5155997975239788,B,676,Correct
2,relearn,41,107,A,52.274480749865006,67.47251314816104,2.61372403749325,1.0598557581275174,A,702,Correct
2,relearn,41,108,B,57.2028295737665,27.037902934609882,2.860141478688325,0.4247103861392216,B,832,Correct
2,relearn,41,109,B,86.10560196118801,68.1248444088947,4.305280098059401,1.0701025536096564,A,648,Incorrect
2,relearn,41,110,B,83.14598385871011,64.46434340985923,4.157299192935506,1.0126035383745169,A,767,Incorrect
2,relearn,41,111,A,30.183061317707853,42.98759986425547,1.5091530658853927,0.6752476396450129,A,1102,Correct
2,relearn,41,112,B,40.80376530276789,31.14919945873052,2.0401882651383945,0.4892904809237549,B,871,Correct
2,relearn,41,113,A,57.71667576824888,78.12020299184732,2.8858337884124436,1.2271092790806546,A,603,Correct
2,relearn,41,114,B,74.65762812604015,42.52950033713452,3.7328814063020075,0.6680518290999322,A,992,Incorrect
2,relearn,41,115,B,47.36385974574037,21.729605596638905,2.3681929872870184,0.34132784653902215,B,1759,Correct
2,relearn,41,116,A,17.539755856128487,38.41201439215594,0.8769877928064244,0.6033745111199125,A,841,Correct
2,relearn,41,117,A,49.9965114183707,80.03071155059452,2.499825570918535,1.2571194773445575,A,819,Correct
2,relearn,41,118,A,54.7569497479612,77.05220171919262,2.73784748739806,1.2103331543196718,A,881,Correct
2,relearn,41,119,A,28.06186081633021,45.87920875533022,1.4030930408165105,0.7206689258912898,A,1345,Correct
2,relearn,41,120,A,42.20369535858663,55.73555407023616,2.1101847679293315,0.875492036054053,A,1157,Correct
2,relearn,41,121,B,51.991695785066746,33.31090662844816,2.5995847892533375,0.5232464977417414,A,1662,Incorrect
2,relearn,41,122,A,42.00266504382712,52.00757071179956,2.100133252191356,0.8169330103962058,A,1681,Correct
2,relearn,41,123,A,33.258236016879295,63.71010962480471,1.6629118008439647,1.0007560617834341,A,1335,Correct
2,relearn,41,124,A,47.76074913005897,64.08604542024442,2.3880374565029485,1.0066612474493084,A,1198,Correct
2,relearn,41,125,A,19.608716067512546,45.75527227180779,0.9804358033756273,0.7187221361605606,A,1064,Correct
2,relearn,41,126,B,39.983454812576326,20.940734481442423,1.9991727406288162,0.3289362880383699,B,1059,Correct
2,relearn,41,127,B,49.11153899394019,24.3186878611951,2.4555769496970097,0.38199705564836905,B,614,Correct
2,relearn,41,128,B,79.71523105567688,50.76548358448868,3.985761552783844,0.7974223514248144,A,744,Incorrect
2,relearn,41,129,B,40.3642086753461,14.065306981559829,2.018210433767305,0.22093732541876795,B,650,Correct
2,relearn,41,130,B,89.27079801487119,67.56143374478914,4.463539900743559,1.0612525195931157,A,661,Incorrect
2,relearn,41,131,B,44.952512045597715,37.574601623216715,2.2476256022798857,0.5902204621053038,B,600,Correct
2,relearn,41,132,A,53.831836002384385,75.28007130936642,2.691591800119219,1.1824965949361064,A,514,Correct
2,relearn,41,133,A,10.365064429015018,33.2874322052908,0.5182532214507509,0.5228777623650493,A,684,Correct
2,relearn,41,134,B,72.62382787887577,43.76427527418401,3.6311913939437885,0.6874476284552896,A,2114,Incorrect
2,relearn,41,135,B,49.21071254181167,34.751293904293796,2.460535627090583,0.5458720481623457,B,755,Correct
2,relearn,41,136,A,14.471012809452134,39.05612669580719,0.7235506404726066,0.6134922035261003,A,2134,Correct
2,relearn,41,137,B,71.55352593470006,39.921799855601684,3.577676296735003,0.6270901657222016,A,725,Incorrect
2,relearn,41,138,A,33.082402909092956,62.145967067291025,1.654120145454648,0.9761865679441736,A,1254,Correct
2,relearn,41,139,A,22.634269241811538,53.01491664418981,1.1317134620905769,0.8327563633003098,A,2502,Correct
2,relearn,41,140,A,58.223180434739405,79.62675881492046,2.91115902173697,1.2507742026106021,A,1168,Correct
2,relearn,41,141,B,42.79659588278711,24.93680846437921,2.1398297941393554,0.39170647137834746,B,595,Correct
2,relearn,41,142,B,48.591978293408154,20.007348315872747,2.429598914670408,0.31427469243478967,B,1236,Correct
2,relearn,41,143,B,48.5413837754588,30.667687636322462,2.42706918877294,0.48172691090428593,B,664,Correct
2,relearn,41,144,A,23.568940059591345,35.18306110536953,1.1784470029795673,0.5526542314971485,B,567,Incorrect
2,relearn,41,145,A,58.191259777741465,73.33100539814427,2.9095629888870733,1.1518807391958175,A,629,Correct
2,relearn,41,146,A,62.75718510931651,80.24110038401032,3.1378592554658256,1.2604242574118396,A,808,Correct
2,relearn,41,147,A,46.66373565049692,63.20753595848048,2.333186782524846,0.9928616530933747,A,600,Correct
2,relearn,41,148,A,41.491831043363185,66.6883411026609,2.0745915521681595,1.0475380124410485,A,534,Correct
2,relearn,41,149,B,88.7813774674355,65.7143592632716,4.439068873371776,1.0322387414842722,A,627,Incorrect
2,relearn,41,150,A,30.284619180402544,59.894431970266794,1.5142309590201273,0.9408195373436189,A,1897,Correct
2,relearn,41,151,A,52.69037322832865,66.02840822341375,2.6345186614164326,1.0371718110145227,A,879,Correct
2,relearn,41,152,B,38.12101476442648,14.458391481326561,1.9060507382213239,0.22711188230230384,B,985,Correct
2,relearn,41,153,B,64.70776440766117,31.668411707598516,3.2353882203830584,0.49744624785724245,B,628,Correct
2,relearn,41,154,A,52.58091725911082,68.80712785324448,2.6290458629555413,1.0808198368918325,A,1099,Correct
2,relearn,41,155,A,49.002767957438934,61.12136728300131,2.450138397871947,0.9600921921682024,A,1007,Correct
2,relearn,41,156,B,38.27313319815898,19.76582368982713,1.913656659907949,0.3104808324805601,B,1112,Correct
2,relearn,41,157,A,45.83861644978408,68.56898908609543,2.2919308224892037,1.0770791618847806,A,812,Correct
2,relearn,41,158,A,68.82681696735989,82.66322105505677,3.4413408483679944,1.2984708399431772,A,909,Correct
2,relearn,41,159,B,46.139511524233995,25.119621196950213,2.3069755762116997,0.3945780870664862,B,792,Correct
2,relearn,41,160,A,67.92644455072664,81.55810917593054,3.396322227536332,1.2811117831388883,A,571,Correct
2,relearn,41,161,B,59.9458873263346,47.290705070850365,2.9972943663167304,0.7428406581683255,B,1185,Correct
2,relearn,41,162,A,65.81983005997091,78.69141118678132,3.2909915029985455,1.2360817964250295,A,549,Correct
2,relearn,41,163,B,70.9387992670799,60.565827040368134,3.546939963353995,0.9513657864430529,A,680,Incorrect
2,relearn,41,164,B,37.56498544217165,14.130893038091518,1.8782492721085822,0.2219675487856573,A,914,Incorrect
2,relearn,41,165,B,49.469753390006844,36.096915247035426,2.4734876695003423,0.5670090187866994,B,1297,Correct
2,relearn,41,166,B,69.19807520997858,36.55678606118779,3.4599037604989293,0.5742326526434067,A,1277,Incorrect
2,relearn,41,167,B,74.19015943928956,44.753576862292974,3.709507971964478,0.7029875414622289,B,940,Correct
2,relearn,41,168,A,47.50680080637071,70.26224260738306,2.3753400403185356,1.1036767260004916,A,898,Correct
2,relearn,41,169,A,50.51759872264984,78.06859080924609,2.525879936132492,1.2262985568121758,A,724,Correct
2,relearn,41,170,B,79.78752613216568,49.001865753249774,3.989376306608284,0.7697195073130139,A,577,Incorrect
2,relearn,41,171,A,20.321645777696343,46.16015954256133,1.016082288884817,0.7250820905372174,A,806,Correct
2,relearn,41,172,A,43.06728854244273,71.77910111639241,2.1533644271221366,1.1275034837426867,A,934,Correct
2,relearn,41,173,B,32.54779296279774,19.361112677262337,1.6273896481398873,0.30412364676105785,A,878,Incorrect
2,relearn,41,174,B,40.7941941785124,28.722626005712307,2.0397097089256198,0.45117395425676465,A,711,Incorrect
2,relearn,41,175,B,60.80526757246767,32.85651943501296,3.0402633786233833,0.5161090003978349,B,596,Correct
2,relearn,41,176,A,29.666333446638944,42.14656463126802,1.483316672331947,0.6620366890981951,B,545,Incorrect
2,relearn,41,177,A,40.008497473641754,66.48487812224865,2.0004248736820873,1.0443420234183456,A,3001,Correct
2,relearn,41,178,A,45.36227128929447,61.078984442259284,2.2681135644647235,0.9594264440626351,A,1552,Correct
2,relearn,41,179,A,53.589753963444906,70.72630469487824,2.679487698172245,1.1109661962249138,A,677,Correct
2,relearn,41,180,B,39.91878275842852,14.5681407782333,1.995939137921426,0.22883582022679813,B,862,Correct
2,relearn,41,181,A,59.08131441109741,71.21105887532275,2.954065720554871,1.118580697085321,A,800,Correct
2,relearn,41,182,A,14.655740230719342,34.990043259869026,0.7327870115359671,0.549622314269968,A,913,Correct
2,relearn,41,183,B,44.943612680140596,15.612791677542347,2.2471806340070297,0.2452451581809745,B,1304,Correct
2,relearn,41,184,B,58.12907076646721,36.98339584309515,2.90645353832336,0.5809338234273551,A,1323,Incorrect
2,relearn,41,185,A,21.32587761739461,37.36732762831392,1.0662938808697304,0.5869646098069695,A,803,Correct
2,relearn,41,186,B,67.66994496392641,34.55552532449708,3.3834972481963206,0.5427969225018805,B,1096,Correct
2,relearn,41,187,A,20.17281242159354,33.981293585535134,1.008640621079677,0.5337769114389757,A,919,Correct
2,relearn,41,188,A,48.93425273383221,55.93966495869361,2.4467126366916103,0.878698202392531,B,1405,Incorrect
2,relearn,41,189,B,53.628751320706186,27.553938331870896,2.6814375660353096,0.43281625120435896,B,662,Correct
2,relearn,41,190,A,29.47644157846838,39.78195795757866,1.4738220789234189,0.6248935343247357,A,825,Correct
2,relearn,41,191,B,81.60541928511921,57.93167575806784,4.08027096425596,0.9099886348584592,A,1866,Incorrect
2,relearn,41,192,A,59.61531875244761,75.01664865850873,2.98076593762238,1.1783587616124882,A,691,Correct
2,relearn,41,193,A,53.15834475318165,72.81633782615103,2.657917237659083,1.1437963598797432,A,1288,Correct
2,relearn,41,194,A,27.070499073943168,43.60760763181234,1.3535249536971583,0.6849866988836393,B,923,Incorrect
2,relearn,41,195,B,72.17356702456308,48.72726263961386,3.6086783512281544,0.7654060516907565,B,888,Correct
2,relearn,41,196,A,24.348360078970543,41.1348305755342,1.2174180039485272,0.6461444077137952,A,650,Correct
2,relearn,41,197,A,30.453277496378934,61.54659788552006,1.5226638748189467,0.9667716988529745,A,768,Correct
2,relearn,41,198,B,76.16560444543177,46.899282266472426,3.8082802222715886,0.7366922031349192,B,1361,Correct
2,relearn,41,199,B,66.2996928440505,55.07613034099013,3.3149846422025244,0.8651338323370424,B,1517,Correct
2,relearn,41,200,A,20.041511636127723,42.58664590841529,1.0020755818063862,0.6689494696345366,A,596,Correct
2,relearn,41,201,A,28.910400045462193,57.28291512176927,1.4455200022731096,0.8997979266137901,A,791,Correct
2,relearn,41,202,A,41.58828219757567,50.258310615425174,2.0794141098787837,0.7894556970562682,B,1341,Incorrect
2,relearn,41,203,B,53.85880953778219,32.265666924355045,2.6929404768891096,0.5068279108636449,B,682,Correct
2,relearn,41,204,B,70.15013492587472,57.95100893193942,3.5075067462937364,0.9102923196434868,B,736,Correct
2,relearn,41,205,A,25.925297718273264,39.789226763058174,1.2962648859136632,0.6250077124542098,A,1086,Correct
2,relearn,41,206,B,37.819758990109314,27.82814397289411,1.8909879495054656,0.43712346334141605,A,489,Incorrect
2,relearn,41,207,A,15.506749126000258,32.29527859456079,0.7753374563000129,0.5072930498915393,A,664,Correct
2,relearn,41,208,B,69.32668504132712,59.698978521048936,3.466334252066356,0.937749361742711,B,1269,Correct
2,relearn,41,209,B,68.10029284321466,59.735610166526016,3.405014642160733,0.9383247702843095,B,896,Correct
2,relearn,41,210,B,72.37061379627039,49.15677612834887,3.6185306898135194,0.7721528337948945,B,928,Correct
2,relearn,41,211,B,55.834111041239744,47.40405309506678,2.7917055520619876,0.7446211247692113,B,2116,Correct
2,relearn,41,212,A,51.16421022623,80.60298784886332,2.5582105113115,1.2661087724168816,A,620,Correct
2,relearn,41,213,B,60.036067775864325,28.26314136931822,3.0018033887932165,0.4439563864660994,B,509,Correct
2,relearn,41,214,A,55.45489172701987,65.65394592859799,2.7727445863509934,1.0312897710423248,A,1011,Correct
2,relearn,41,215,B,53.908239947918595,44.00033091677063,2.69541199739593,0.6911555818182323,B,1662,Correct
2,relearn,41,216,A,32.47117123844319,51.33738153803467,1.6235585619221595,0.8064057034721298,A,1591,Correct
2,relearn,41,217,B,37.06083105404139,25.475811747326386,1.8530415527020694,0.40017311514818565,B,1467,Correct
2,relearn,41,218,B,35.08824189136017,20.83417865095723,1.7544120945680084,0.3272625129671228,B,864,Correct
2,relearn,41,219,B,75.12600397924771,64.13369156015634,3.756300198962385,1.0074096712649043,A,1027,Incorrect
2,relearn,41,220,B,58.350694236097446,44.54680592413653,2.9175347118048722,0.699739591160788,B,738,Correct
2,relearn,41,221,A,49.401166002958234,79.13150144735755,2.4700583001479117,1.242994718072743,A,829,Correct
2,relearn,41,222,A,50.123923923350645,78.90663849096865,2.506196196167532,1.2394625790134635,A,746,Correct
2,relearn,41,223,B,82.50074107254281,64.97803867950012,4.125037053627141,1.0206726448009549,A,846,Incorrect
2,relearn,41,224,A,17.5478197813522,41.97982797527004,0.87739098906761,0.6594175958303582,A,754,Correct
2,relearn,41,225,B,67.35912520753378,41.50712638740518,3.367956260376689,0.6519924166514759,B,762,Correct
2,relearn,41,226,B,36.55288590028837,24.653559752468745,1.8276442950144187,0.387257211015964,B,664,Correct
2,relearn,41,227,A,41.60556117851264,55.24323654943203,2.080278058925632,0.8677587305210941,A,870,Correct
2,relearn,41,228,B,50.151968668300654,29.296762409406323,2.5075984334150325,0.4601924677967825,B,761,Correct
2,relearn,41,229,A,57.08591836106261,69.97183146439151,2.854295918053131,1.0991149584337774,A,674,Correct
2,relearn,41,230,A,55.199140020507954,71.51138229616146,2.759957001025398,1.12329816634836,A,1213,Correct
2,relearn,41,231,B,83.5544686050035,56.1515868926003,4.177723430250175,0.8820270643460101,B,814,Correct
2,relearn,41,232,A,60.65104761190171,87.7254131587593,3.0325523805950856,1.3779875675634379,A,647,Correct
2,relearn,41,233,A,14.083509645748503,30.94565288188547,0.7041754822874252,0.48609317877135594,B,731,Incorrect
2,relearn,41,234,B,69.52641490180663,46.817750593208785,3.4763207450903315,0.7354115066061194,B,1244,Correct
2,relearn,41,235,A,45.69921523746907,71.28725598520806,2.2849607618734535,1.119777598488523,A,935,Correct
2,relearn,41,236,B,32.65299262071922,10.554021501949922,1.6326496310359608,0.16578218208177298,A,1203,Incorrect
2,relearn,41,237,B,43.85889644088018,26.83641737616415,2.192944822044009,0.42154545838813384,B,950,Correct
2,relearn,41,238,B,68.1061112869213,38.880891781650334,3.4053055643460652,0.6107396199312624,B,1170,Correct
2,relearn,41,239,B,63.97967715251039,53.51459765211348,3.198983857625519,0.8406053342184666,B,715,Correct
2,relearn,41,240,A,25.83495428173275,56.95611398799879,1.2917477140866374,0.8946645464085993,A,892,Correct
2,relearn,41,241,B,60.83646056478842,49.0894740882911,3.041823028239421,0.7710956558218091,B,787,Correct
2,relearn,41,242,B,89.76958391530268,66.57710061908067,4.488479195765134,1.0457906510110613,A,1091,Incorrect
2,relearn,41,243,B,59.16516747237696,27.257919965687286,2.958258373618848,0.4281664055817086,B,830,Correct
2,relearn,41,244,B,80.90160429737497,62.5417931994034,4.045080214868749,0.9824041902878891,B,509,Correct
2,relearn,41,245,A,30.53668332673771,39.29680468706288,1.5268341663368856,0.6172727645721484,A,926,Correct
2,relearn,41,246,A,34.317911776674926,42.61073536695967,1.7158955888337462,0.6693278659644964,A,827,Correct
2,relearn,41,247,B,48.4044315300759,18.05645830392854,2.4202215765037947,0.28363018378736155,B,1007,Correct
2,relearn,41,248,B,38.42406123564089,27.89989858194272,1.9212030617820446,0.4382505821046576,B,992,Correct
2,relearn,41,249,A,48.807195742449736,60.63011608712866,2.4403597871224867,0.9523756364280986,A,973,Correct
2,relearn,41,250,A,32.97164669080167,64.64321681626942,1.6485823345400834,1.0154132752720209,A,1191,Correct
2,relearn,41,251,B,80.21583229141956,52.401642854360844,4.010791614570978,0.8231230811364806,B,1003,Correct
2,relearn,41,252,B,79.77543857922356,48.55396303536907,3.9887719289611776,0.7626838678729292,A,1087,Incorrect
2,relearn,41,253,A,65.62890425030513,77.93081274505616,3.2814452125152567,1.2241343440407513,A,887,Correct
2,relearn,41,254,B,42.81235002385701,24.580604896235933,2.14061750119285,0.38611123881404047,B,722,Correct
2,relearn,41,255,A,27.516506805721185,56.32000683880925,1.3758253402860592,0.8846725986746503,A,1251,Correct
2,relearn,41,256,A,45.09220945837223,59.522942393426106,2.2546104729186114,0.9349841927161795,B,600,Incorrect
2,relearn,41,257,B,42.58972312711008,18.974069462639495,2.1294861563555036,0.2980439861626534,B,697,Correct
2,relearn,41,258,A,57.29568244829447,78.75366992456681,2.864784122414724,1.2370597543912727,A,640,Correct
2,relearn,41,259,A,69.25417859398107,83.6391515764301,3.4627089296990534,1.3138007207249796,A,1452,Correct
2,relearn,41,260,B,76.4455324974663,54.918665632021835,3.822276624873315,0.8626603824725703,B,695,Correct
2,relearn,41,261,B,50.12052265007688,36.613094860845436,2.5060261325038438,0.5751171492000912,A,687,Incorrect
2,relearn,41,262,A,61.38338302521154,87.45105000092897,3.069169151260577,1.3736778811581605,A,575,Correct
2,relearn,41,263,B,73.5527785773643,50.050042991727416,3.6776389288682143,0.7861842368733207,B,509,Correct
2,relearn,41,264,A,58.55948168198819,74.88559411047808,2.9279740840994095,1.176300161585925,A,705,Correct
2,relearn,41,265,B,78.49177879806061,54.45483808995115,3.9245889399030305,0.8553745964790609,B,690,Correct
2,relearn,41,266,B,78.79020137439959,57.71178596079915,3.9395100687199793,0.9065346139999658,A,718,Incorrect
2,relearn,41,267,A,44.85710884373017,60.565623367779004,2.2428554421865083,0.9513625871615041,A,699,Correct
2,relearn,41,268,B,85.24425990552717,59.9573759821547,4.262212995276359,0.9418082595702916,A,2870,Incorrect
2,relearn,41,269,B,70.45078882588068,47.23093229371116,3.5225394412940343,0.7419017495805996,B,656,Correct
2,relearn,41,270,B,58.670751293235966,46.17038311685357,2.9335375646617985,0.7252426820666671,B,871,Correct
2,relearn,41,271,B,86.43749731659715,63.4967271590953,4.321874865829858,0.9974042578500465,A,987,Incorrect
2,relearn,41,272,A,20.5839153716397,50.055800862254834,1.029195768581985,0.7862746812920671,A,1919,Correct
2,relearn,41,273,A,31.08763084328978,45.56533078615678,1.554381542164489,0.7157385422808947,A,979,Correct
2,relearn,41,274,B,65.51748684682288,51.953624173061655,3.275874342341144,0.8160856201472779,B,1159,Correct
2,relearn,41,275,B,69.03163271701457,37.277063888624944,3.451581635850729,0.5855467502995075,B,501,Correct
2,relearn,41,276,A,64.90546472755221,80.53743990266334,3.245273236377611,1.2650791476856833,A,597,Correct
2,relearn,41,277,A,29.14387693358819,57.870158792643515,1.4571938466794094,0.9090223286252181,A,712,Correct
2,relearn,41,278,B,43.8080114660071,35.74872517522946,2.190400573300355,0.5615396619285069,B,557,Correct
2,relearn,41,279,B,56.267690771366105,24.32555849776126,2.8133845385683056,0.3821049793551777,B,509,Correct
2,relearn,41,280,B,33.06927676071436,10.029236620030122,1.653463838035718,0.15753888043300182,B,1868,Correct
2,relearn,41,281,A,11.429203498425366,31.850612346576433,0.5714601749212683,0.5003082488017043,A,777,Correct
2,relearn,41,282,A,35.06271613966674,66.38768334331272,1.7531358069833372,1.0428152914009836,A,839,Correct
2,relearn,41,283,B,67.2544811429292,41.409487019496716,3.3627240571464596,0.6504587010468639,B,531,Correct
2,relearn,41,284,B,74.65831963146175,64.4878102220245,3.7329159815730875,1.0129721541980248,B,1269,Correct
2,relearn,41,285,A,23.561734173838122,52.6541346541152,1.178086708691906,0.8270892130524803,A,544,Correct
2,relearn,41,286,A,52.62059253935982,80.5461100265531,2.6310296269679907,1.265215337673272,A,821,Correct
2,relearn,41,287,A,55.55977525340762,63.015810027158125,2.777988762670381,0.98985002920665,B,1123,Incorrect
2,relearn,41,288,A,26.253673264700502,36.19660116344751,1.312683663235025,0.5685748815000322,A,1229,Correct
2,relearn,41,289,B,81.24158001914418,54.347591757115254,4.062079000957209,0.8536899750222523,B,1424,Correct
2,relearn,41,290,B,76.11164634084273,47.55220581084824,3.8055823170421363,0.7469483021867537,A,3207,Incorrect
2,relearn,41,291,A,39.11332981628192,55.30439293559454,1.955666490814096,0.8687193727885352,A,848,Correct
2,relearn,41,292,A,30.454243836035708,50.50178857518596,1.5227121918017854,0.7932802399047459,A,935,Correct
2,relearn,41,293,B,66.5631146860071,36.57669856560874,3.328155734300355,0.5745454375314236,B,517,Correct
2,relearn,41,294,B,70.0508775596477,51.315217252318135,3.5025438779823848,0.8060575476862343,B,611,Correct
2,relearn,41,295,A,13.833293139095257,37.059605116263626,0.6916646569547629,0.5821309158909626,A,961,Correct
2,relearn,41,296,B,62.076903501104866,41.61743928084356,3.1038451750552434,0.6537252075295871,A,909,Incorrect
2,relearn,41,297,B,85.78931494201404,62.37431903466573,4.289465747100702,0.9797735122598592,A,846,Incorrect
2,relearn,41,298,A,45.665901636929746,75.93551328187932,2.283295081846487,1.1927922533646114,A,620,Correct
2,relearn,41,299,B,65.2723392865104,38.52966396475389,3.2636169643255197,0.6052225462847709,B,593,Correct
2,relearn,41,300,A,63.26504956897099,86.12123731904353,3.163252478448549,1.3527892323978514,A,848,Correct
2,relearn,41,301,A,49.216301221374806,61.35462042165174,2.4608150610687405,0.963756123902257,B,581,Correct
2,relearn,41,302,B,44.12813233912579,35.760384854801046,2.2064066169562895,0.5617228117469334,B,1255,Incorrect
2,relearn,41,303,A,61.333324031606224,81.69979909572733,3.0666662015803117,1.283337443194495,A,645,Incorrect
2,relearn,41,304,B,76.19355140979695,57.072315483818485,3.8096775704898476,0.8964898352366156,B,994,Incorrect
2,relearn,41,305,A,54.913536159257255,75.48128945773384,2.7456768079628624,1.1856573222195066,A,1125,Incorrect
2,relearn,41,306,B,62.765797750998324,33.78950055240493,3.138289887549916,0.530764233519518,B,774,Correct
2,relearn,41,307,A,45.02637184862405,64.86073343585065,2.2513185924312027,1.0188300183425714,A,656,Incorrect
2,relearn,41,308,A,61.749525158050275,71.49510214393143,3.087476257902514,1.1230424383151343,A,634,Incorrect
2,relearn,41,309,A,42.71441892005685,73.69131241967298,2.135720946002843,1.1575404286551747,A,888,Correct
2,relearn,41,310,B,84.6214172764568,65.02520057765832,4.23107086382284,1.0214134621648707,B,695,Correct
2,relearn,41,311,B,75.28443612008903,48.324376466578215,3.764221806004451,0.7590775304835481,B,527,Incorrect
2,relearn,41,312,A,32.380082316838156,56.179298558773716,1.6190041158419077,0.8824623581803558,A,966,Incorrect
2,relearn,41,313,A,40.628305178170784,54.72932383187516,2.0314152589085395,0.8596862084307789,B,1000,Correct
2,relearn,41,314,A,30.78467069743955,55.96021243012861,1.5392335348719774,0.8790209613190814,B,664,Incorrect
2,relearn,41,315,B,61.667618823551734,34.978776076513824,3.0833809411775865,0.5494453297676911,B,723,Incorrect
2,relearn,41,316,A,42.37678844728988,57.72501571058046,2.118839422364494,0.9067424264235746,A,835,Incorrect
2,relearn,41,317,B,68.85679766904322,43.97586382206283,3.4428398834521605,0.6907712535932886,B,1523,Incorrect
2,relearn,41,318,B,68.6544940485202,51.770364546207375,3.43272470242601,0.8132069846601527,B,2024,Incorrect
2,relearn,41,319,A,44.86065428808914,66.51709625658425,2.243032714404457,1.0448481046890512,A,2226,Correct
2,relearn,41,320,A,55.5232153641927,74.12297868579248,2.776160768209635,1.1643210265073922,A,1538,Incorrect
2,relearn,41,321,A,63.06068282419791,88.59989929019748,3.1530341412098952,1.3917239635943996,A,1082,Incorrect
2,relearn,41,322,B,58.10698734848137,41.493583904910224,2.9053493674240682,0.6517796918338883,A,921,Incorrect
2,relearn,41,323,A,48.775448847076625,67.78538284287093,2.4387724423538315,1.0647703037996745,B,1299,Incorrect
2,relearn,41,324,B,63.891721813299945,39.17011404123766,3.194586090664997,0.6152827125611331,B,824,Incorrect
2,relearn,41,325,A,20.67566067151695,45.97719061975347,1.0337830335758476,0.7222080214185753,A,851,Correct
2,relearn,41,326,A,38.86286098606127,47.83057575470859,1.9431430493030635,0.7513209270398129,B,1275,Incorrect
2,relearn,41,327,B,46.79244392326636,38.64096105505024,2.3396221961633183,0.6069707968909757,B,717,Incorrect
2,relearn,41,328,A,66.02415930373415,83.98792822774254,3.3012079651867077,1.319279291552514,A,631,Correct
2,relearn,41,329,A,14.606470141904133,40.54965755179403,0.7303235070952067,0.63695253135149,A,852,Correct
2,relearn,41,330,B,34.01453279785856,16.939593494634437,1.7007266398929277,0.266086512387705,B,742,Correct
2,relearn,41,331,B,82.26533019552826,59.4763922457853,4.1132665097764125,0.9342529847069201,B,674,Incorrect
2,relearn,41,332,A,34.11223887912782,51.269176017621575,1.7056119439563913,0.8053343336628097,B,1512,Incorrect
2,relearn,41,333,B,41.39930154967021,31.91840408035109,2.0699650774835106,0.5013731188657072,A,1169,Incorrect
2,relearn,41,334,A,66.71643708560741,83.15791222800935,3.3358218542803706,1.3062414307168948,A,861,Incorrect
2,relearn,41,335,B,69.48441584231205,52.68997134229717,3.4742207921156023,0.8276521344340877,B,921,Incorrect
2,relearn,41,336,B,49.92900273817761,38.177884721420675,2.4964501369088805,0.5996968108520659,B,648,Correct
2,relearn,41,337,B,48.12390447338625,21.493160428178086,2.4061952236693123,0.33761377451795566,B,530,Correct
2,relearn,41,338,A,31.874569789589977,46.522574082296956,1.5937284894794987,0.7307748848151552,B,651,Correct
2,relearn,41,339,A,33.24612221286989,43.17302530470631,1.6623061106434946,0.678160295652558,B,554,Incorrect
2,relearn,41,340,A,43.12146611859697,70.64594761916344,2.1560733059298487,1.109703950231266,A,508,Correct
2,relearn,41,341,A,30.14469902529263,49.509678393822725,1.5072349512646315,0.7776962096181339,B,716,Incorrect
2,relearn,41,342,B,48.611967596152375,40.37174399783642,2.4305983798076185,0.6341578717810535,B,649,Correct
2,relearn,41,343,B,84.03964229301246,60.55704898669536,4.201982114650622,0.9512279010983968,B,1490,Incorrect
2,relearn,41,344,A,22.881653557983356,44.56928049029436,1.1440826778991677,0.7000926208204583,A,1103,Incorrect
2,relearn,41,345,A,36.362951165907404,48.55158044911497,1.8181475582953703,0.7626464422955672,100,1975,Incorrect
2,relearn,41,346,B,75.47762883089976,63.518536781019996,3.7738814415449884,0.9977468425901274,B,639,Correct
2,relearn,41,347,A,42.60958971793426,59.64284331852772,2.130479485896713,0.9368675920434687,A,799,Incorrect
2,relearn,41,348,B,32.42579061228193,15.752444523235287,1.6212895306140964,0.24743881995138375,B,648,Correct
2,relearn,41,349,A,31.58084116733839,62.78075010755665,1.5790420583669198,0.9861577166237828,A,1487,Incorrect
2,relearn,41,350,A,31.920115064872256,49.07305563476514,1.5960057532436127,0.7708377553569068,B,587,Incorrect
2,relearn,41,351,A,35.96028891012187,56.997168553792136,1.7980144455060936,0.8953094300200628,B,657,Incorrect
2,relearn,41,352,A,31.475690823633066,48.78509606637348,1.5737845411816533,0.766314497033956,A,389,Correct
2,relearn,41,353,A,50.85632423076973,72.12424286088408,2.5428162115384865,1.1329249575873976,A,1269,Correct
2,relearn,41,354,B,59.017910139710985,31.612188111779943,2.9508955069855496,0.4965630896793324,B,1064,Correct
2,relearn,41,355,A,41.40266248149592,53.15075949373464,2.070133124074796,0.8348901777911735,B,722,Correct
2,relearn,41,356,B,65.00643356364922,50.12291244840739,3.2503216781824613,0.7873288676222052,A,658,Correct
2,relearn,41,357,B,62.52436709234296,41.14654976518079,3.126218354617148,0.6463284923142939,B,1232,Correct
2,relearn,41,358,B,66.62249548272986,53.051402305708635,3.3311247741364927,0.8333294787312542,A,1064,Incorrect
2,relearn,41,359,A,59.12724160285765,69.06368931481721,2.956362080142883,1.0848498949061882,A,1194,Correct
2,relearn,41,360,B,66.65175782582291,50.406016010472726,3.332587891291146,0.7917758479761531,B,1539,Correct
2,relearn,41,361,B,73.3206554340031,50.38809170398049,3.6660327717001553,0.7914942936281697,B,2850,Correct
2,relearn,41,362,A,44.89086879392373,51.99380355143821,2.2445434396961867,0.816716756346946,B,3409,Correct
2,relearn,41,363,B,83.25124035217658,53.115030198201936,4.162562017608829,0.8343289433293561,B,907,Correct
2,relearn,41,364,A,50.14272019221542,57.421095651453314,2.507136009610771,0.9019684612984128,B,880,Correct
2,relearn,41,365,B,66.60985378749233,46.6853766720204,3.3304926893746165,0.733332181914458,B,1528,Correct
2,relearn,41,366,A,15.75686125450012,44.43365893060931,0.787843062725006,0.6979622823425836,A,822,Incorrect
2,relearn,41,367,B,45.942311738394785,16.696320318039604,2.2971155869197393,0.26226518626567613,B,418,Incorrect
2,relearn,41,368,B,58.914119106538344,30.045894263831613,2.945705955326917,0.4719598034489455,B,821,Correct
2,relearn,41,369,B,53.9386895280666,21.849073501862534,2.69693447640333,0.3432044440059737,B,636,Correct
2,relearn,41,370,A,29.362164372111476,40.89001019305799,1.4681082186055738,0.6422987781386137,A,878,Incorrect
2,relearn,41,371,A,35.57712038876948,57.713372416641704,1.7788560194384742,0.906559533990067,B,578,Correct
2,relearn,41,372,A,38.78290547625398,61.509463971733055,1.9391452738126989,0.9661884006992131,B,495,Correct
2,relearn,41,373,B,52.674009564238055,43.22206213584001,2.6337004782119027,0.6789305643947827,B,472,Incorrect
2,relearn,41,374,B,43.300567157948386,35.47022772064265,2.165028357897419,0.5571650341416399,B,826,Correct
2,relearn,41,375,A,27.519933191703153,59.40953342561282,1.3759966595851578,0.9332027688155123,A,594,Correct
2,relearn,41,376,A,21.948780167625035,40.21836195804191,1.0974390083812517,0.6317485523339984,B,586,Correct
2,relearn,41,377,B,73.9580343584454,59.796961842243434,3.69790171792227,0.9392884801529058,B,1570,Incorrect
2,relearn,41,378,B,50.501747376780614,36.87757371849834,2.5250873688390305,0.579271573381252,B,1162,Incorrect
2,relearn,41,379,B,84.4529166923725,63.20304908542129,4.222645834618625,0.9927911734561731,A,721,Incorrect
2,relearn,41,380,B,54.52460638402365,46.025117423382135,2.7262303192011825,0.7229608538895246,B,468,Incorrect
2,relearn,41,381,B,59.54814682556315,35.62279796852421,2.9774073412781576,0.5595616019911452,A,1220,Incorrect
2,relearn,41,382,A,33.64306290875619,66.13517073607186,1.6821531454378096,1.0388488326417502,B,536,Correct
2,relearn,41,383,B,39.40114363065797,12.154487817271981,1.9700571815328984,0.1909222481744415,B,910,Incorrect
2,relearn,41,384,A,53.255067628447044,70.10206839817718,2.6627533814223523,1.1011607154058132,A,753,Correct
2,relearn,41,385,A,37.528590691739254,66.63308315625976,1.8764295345869626,1.0466700226487171,B,622,Incorrect
2,relearn,41,386,B,37.424877419350246,13.500373978641818,1.8712438709675123,0.21206337856007973,B,624,Correct
2,relearn,41,387,B,66.27734844981597,47.68557215956773,3.313867422490799,0.7490432158936198,A,871,Incorrect
2,relearn,41,388,A,52.727923507514035,68.06090597225618,2.636396175375702,1.0690982109955285,B,582,Correct
2,relearn,41,389,A,50.17620685115439,75.03565061313383,2.5088103425577195,1.1786572436177585,B,518,Incorrect
2,relearn,41,390,B,48.70505367108018,30.171604740243893,2.435252683554009,0.47393445899482595,107,680,Incorrect
2,relearn,41,391,A,17.273322034267533,31.77702805649182,0.8636661017133767,0.49915238947595714,B,330,Correct
2,relearn,41,392,B,87.4458003564917,69.18229775026256,4.372290017824585,1.0867129918534326,B,1106,Incorrect
2,relearn,41,393,B,74.88070340152123,45.77533028061259,3.744035170076062,0.7190372066260947,B,665,Correct
2,relearn,41,394,A,41.51382369133782,58.30781305944202,2.075691184566891,0.9158969857721502,A,1016,Incorrect
2,relearn,41,395,A,14.64136393161656,43.265369043844665,0.7320681965808279,0.6796108277149683,B,376,Correct
2,relearn,41,396,A,29.820732524808342,58.032206037459105,1.491036626240417,0.9115677607944538,B,430,Correct
2,relearn,41,397,B,68.60769700706987,43.59135222679698,3.4303848503534935,0.6847313595787523,B,465,Correct
2,relearn,41,398,A,34.55326068811833,51.02047815248922,1.7276630344059163,0.8014277967324932,B,551,Incorrect
2,relearn,41,399,B,76.46619222821614,49.283237486299896,3.823309611410807,0.7741392841604042,B,512,Incorrect
2,relearn,41,400,B,77.50388798181183,47.58900257668062,3.8751943990905913,0.7475263044328279,B,504,Correct
2,relearn,41,401,B,64.38451997562017,32.7800021785731,3.219225998781008,0.5149070701443133,B,819,Incorrect
2,relearn,41,402,A,41.099396874764366,66.38533490322448,2.0549698437382182,1.0427784021903403,A,1173,Correct
2,relearn,41,403,B,48.93558724365587,28.134186976551035,2.4467793621827933,0.44193077560127175,B,607,Correct
2,relearn,41,404,A,13.12716952772335,35.06344253916343,0.6563584763861675,0.5507752674530184,A,835,Incorrect
2,relearn,41,405,B,57.798259912880624,30.114846743549226,2.889912995644031,0.4730429064675838,B,604,Incorrect
2,relearn,41,406,A,50.271639448943574,70.33157793322707,2.5135819724471786,1.1047658427520208,B,773,Correct
2,relearn,41,407,A,52.44436491492116,71.42937004425866,2.6222182457460583,1.122009920907949,B,2425,Incorrect
2,relearn,41,408,B,50.57930140041243,30.35366509653302,2.5289650700206217,0.4767942563839653,B,884,Correct
2,relearn,41,409,A,31.341157905418292,52.69012015702736,1.5670578952709147,0.8276544720104032,A,812,Correct
2,relearn,41,410,A,18.78117657062093,32.34346893798375,0.9390588285310464,0.5080500220358971,A,807,Incorrect
2,relearn,41,411,B,35.46339432248129,21.342808777222295,1.7731697161240647,0.3352520563074666,B,1015,Incorrect
2,relearn,41,412,B,39.8514324367376,23.920609315783125,1.9925716218368803,0.3757440524792792,B,537,Correct
2,relearn,41,413,B,46.6403209190583,21.575310731487836,2.3320160459529147,0.3389041884647961,B,614,Correct
2,relearn,41,414,B,41.32876778812126,26.323625664414138,2.066438389406063,0.41349054501585597,B,642,Correct
2,relearn,41,415,A,40.600805299229634,65.2175231948577,2.0300402649614817,1.0244344587714345,A,647,Incorrect
2,relearn,41,416,A,22.52587568568667,34.99707447478118,1.1262937842843335,0.5497327603355372,B,491,Incorrect
2,relearn,41,417,B,80.2956679727256,52.410370307481344,4.01478339863628,0.8232601716495201,B,612,Incorrect
2,relearn,41,418,A,51.606784912226765,58.53386170283082,2.580339245611338,0.919447749559271,B,602,Correct
2,relearn,41,419,B,57.02022740513165,48.97213601989353,2.8510113702565825,0.7692525137534881,B,1232,Incorrect
2,relearn,41,420,A,37.34241389069031,60.14264228005526,1.8671206945345153,0.9447184157725025,B,478,Correct
2,relearn,41,421,B,56.35142337866277,37.42129623523828,2.8175711689331386,0.5878123467021599,B,698,Correct
2,relearn,41,422,A,29.554315388327197,60.41423756093518,1.47771576941636,0.9489846244683124,A,1397,Correct
2,relearn,41,423,A,44.65745940113061,65.54622832806695,2.2328729700565306,1.0295977469298714,A,520,Incorrect
2,relearn,41,424,A,23.063346231503605,54.34017874703332,1.1531673115751802,0.8535735317321805,A,769,Correct
2,relearn,41,425,A,63.474910274193476,87.93901250112964,3.1737455137096737,1.3813427781874492,B,1000,Incorrect
2,relearn,41,426,B,56.370944521747084,32.86893145035427,2.8185472260873543,0.5163039678788974,B,1243,Incorrect
2,relearn,41,427,A,41.88397918340403,52.08438508335807,2.0941989591702015,0.8181396077230976,B,604,Correct
2,relearn,41,428,B,67.10523398091124,57.57628734609863,3.355261699045562,0.9044062067373922,B,584,Correct
2,relearn,41,429,A,42.748655867668994,65.92065626498828,2.1374327933834496,1.0354792472095258,B,572,Incorrect
2,relearn,41,430,B,60.587699035615564,51.84220073676227,3.029384951780778,0.8143353849026986,B,504,Correct
2,relearn,41,431,A,11.473572802288057,38.31325104146252,0.573678640114403,0.6018231400350007,A,1625,Correct
2,relearn,41,432,A,23.49412627742668,46.49586112502264,1.174706313871334,0.730355278663512,B,831,Incorrect
2,relearn,41,433,A,39.647556147690665,71.15292641711976,1.9823778073845333,1.1176675545671928,B,780,Incorrect
2,relearn,41,434,B,46.558749093880905,25.17581522364776,2.3279374546940454,0.39546078077372937,A,585,Correct
2,relearn,41,435,A,58.93462243062675,83.36221495881918,2.9467311215313376,1.3094506105079975,A,755,Correct
2,relearn,41,436,A,54.967852279681736,77.83765807464552,2.7483926139840866,1.222671073899703,A,588,Incorrect
2,relearn,41,437,A,23.957692059703454,53.81508629167651,1.1978846029851726,0.8453253987311585,B,488,Correct
2,relearn,41,438,B,66.20740538712242,41.10712828343076,3.310370269356121,0.6457092611269963,B,554,Correct
2,relearn,41,439,B,52.20449188609035,35.94094442566343,2.6102245943045177,0.5645590348537163,B,706,Correct
2,relearn,41,440,A,28.20680728754875,45.81126471599103,1.4103403643774373,0.7196016634170737,B,771,Correct
2,relearn,41,441,B,68.0530529811739,57.010270675477486,3.402652649058695,0.8955152376662283,B,575,Correct
2,relearn,41,442,B,73.42637213439623,41.917424024352684,3.6713186067198116,0.6584373568615735,B,669,Correct
2,relearn,41,443,B,73.30383290401804,49.20290231732359,3.6651916452009017,0.7728773822770001,B,574,Correct
2,relearn,41,444,A,57.01279773250471,82.72582196666714,2.8506398866252356,1.2994541727632931,A,1016,Incorrect
2,relearn,41,445,A,62.07678879402145,80.03978938597741,3.1038394397010722,1.2572620716493046,B,337,Incorrect
2,relearn,41,446,A,38.3977184366562,64.58033023130064,1.91988592183281,1.0144254551052847,B,516,Correct
2,relearn,41,447,A,60.01704517163897,70.92255639197931,3.000852258581949,1.1140489106742502,B,663,Correct
2,relearn,41,448,A,22.26057812115143,52.76763284349009,1.1130289060575713,0.8288720384421597,B,381,Incorrect
2,relearn,41,449,A,39.63760239791529,53.9106131245303,1.9818801198957643,0.8468259307127293,A,757,Correct
2,relearn,41,450,B,54.398150522539055,22.114407316701882,2.7199075261269523,0.34737229782321505,B,757,Incorrect
2,relearn,41,451,B,65.8672471667122,57.660520725092454,3.29336235833561,0.9057293415605623,B,630,Correct
2,relearn,41,452,A,14.974435881559398,42.65226640524324,0.7487217940779699,0.6699802339883344,B,591,Incorrect
2,relearn,41,453,A,15.831507161746028,32.506053340895676,0.7915753580873015,0.5106038918647791,B,596,Correct
2,relearn,41,454,B,77.6967371937258,58.36608529796176,3.8848368596862897,0.9168123239543594,B,443,Correct
2,relearn,41,455,B,38.54695344163832,25.85484969982368,1.927347672081916,0.40612702938317174,B,564,Incorrect
2,relearn,41,456,A,23.867631127691798,37.08424596795429,1.1933815563845898,0.5825179734842104,A,1626,Incorrect
2,relearn,41,457,A,39.747889985251916,60.40573785969246,1.9873944992625956,0.9488511114734032,B,598,Correct
2,relearn,41,458,B,72.99810657871448,40.84503617956524,3.6499053289357244,0.6415923279866573,B,658,Correct
2,relearn,41,459,B,45.18275447490522,30.371675246308442,2.2591377237452606,0.4770771591550878,B,468,Correct
2,relearn,41,460,A,51.18491022318695,73.60008018538252,2.559245511159347,1.1561073560700872,A,2543,Correct
2,relearn,41,461,B,86.40442879426013,68.478543340574,4.3202214397130065,1.0756584434363878,B,604,Correct
2,relearn,41,462,B,57.51404632485349,39.05989921056383,2.8757023162426743,0.6135514620493254,B,603,Correct
2,relearn,41,463,B,45.0621587668077,36.53800329356265,2.253107938340385,0.5739376136194805,B,573,Correct
2,relearn,41,464,A,39.23904483760988,71.38868752490791,1.961952241880494,1.1213708813883398,B,383,Correct
2,relearn,41,465,A,24.579887320172624,35.483232151674116,1.228994366008631,0.5573693072666028,B,689,Incorrect
2,relearn,41,466,B,38.23621516093118,27.704924768032,1.911810758046559,0.4351879405975362,B,765,Correct
2,relearn,41,467,B,41.97862096495027,23.20584786409469,2.0989310482475134,0.3645166058508114,B,586,Incorrect
2,relearn,41,468,B,74.37556975289198,41.92553965870645,3.718778487644599,0.6585648369478985,B,839,Correct
2,relearn,41,469,B,88.33746374721753,61.886092940652425,4.416873187360876,0.9721044747086439,B,692,Correct
2,relearn,41,470,A,57.8369536288191,71.93950550985372,2.8918476814409555,1.1300231100631943,B,707,Incorrect
2,relearn,41,471,B,68.65374987886499,58.501338796105465,3.432687493943249,0.9189368809350624,B,894,Correct
2,relearn,41,472,B,34.76757316040001,12.544658150089873,1.7383786580200007,0.19705102943058833,B,1731,Incorrect
2,relearn,41,473,B,58.86609860443998,42.43761751055695,2.943304930221999,0.6666085370350964,B,563,Incorrect
2,relearn,41,474,A,46.1661387575571,75.32856202117662,2.308306937877855,1.1832582852560578,A,1129,Correct
2,relearn,41,475,A,20.634813579984396,40.056966558876105,1.0317406789992198,0.629213359332286,B,650,Incorrect
2,relearn,41,476,B,83.96878396324571,53.99327114923894,4.198439198162285,0.8481243199286539,B,459,Incorrect
2,relearn,41,477,B,53.27998071738129,26.576615179504635,2.6639990358690646,0.4174644950260737,B,463,Correct
2,relearn,41,478,B,59.39670433694476,39.82033225238361,2.9698352168472377,0.6254963163379652,B,379,Correct
2,relearn,41,479,A,44.99114479859687,75.82977111462999,2.249557239929844,1.1911312592855856,A,687,Incorrect
2,relearn,41,480,B,37.8858005115661,26.254906734867262,1.8942900255783053,0.41241111059472085,B,329,Correct
2,relearn,41,481,A,28.32383581302768,42.372773824013834,1.4161917906513841,0.6655899747887186,B,429,Incorrect
2,relearn,41,482,A,20.95288050126932,33.71822216665746,1.047644025063466,0.529644595254398,B,607,Incorrect
2,relearn,41,483,B,35.20264651797116,21.859847162062405,1.7601323258985582,0.34337367626465465,B,1220,Correct
2,relearn,41,484,B,71.3477723433583,48.91859679730825,3.567388617167915,0.7684115216117239,B,978,Correct
2,relearn,41,485,A,43.67907006183922,71.28595587973601,2.183953503091961,1.1197571764795238,B,733,Incorrect
2,relearn,41,486,B,50.17425448701535,24.24575305766116,2.508712724350767,0.38085139843350285,B,459,Correct
2,relearn,41,487,A,14.276814613056146,31.886695489899573,0.7138407306528073,0.5008750414916164,B,521,Correct
2,relearn,41,488,A,45.109968767382114,54.423958716470565,2.2554984383691057,0.8548895444146906,B,1287,Correct
2,relearn,41,489,B,77.14985104323733,47.85277271420118,3.8574925521618666,0.7516695960641827,B,1039,Incorrect
2,relearn,41,490,B,74.23234411461081,45.16475968644315,3.71161720573054,0.7094463861603912,B,608,Correct
2,relearn,41,491,B,79.54996300380782,64.15232723003659,3.977498150190391,1.0077023996828571,B,567,Incorrect
2,relearn,41,492,B,46.32547592967299,22.426947217992357,2.3162737964836495,0.3522816631124542,B,534,Correct
2,relearn,41,493,A,52.825134007107266,67.5130137451996,2.6412567003553638,1.0604919400181292,B,1085,Correct
2,relearn,41,494,B,39.738049061711365,25.34265442963771,1.9869024530855683,0.3980814848930733,B,1201,Incorrect
2,relearn,41,495,A,48.43132344804168,62.03202213870049,2.421566172402084,0.9743967251913044,A,525,Correct
2,relearn,41,496,A,45.16225789950417,57.37532267849331,2.2581128949752083,0.9012494611204922,B,547,Correct
2,relearn,41,497,A,63.15695444935575,82.97522914844522,3.157847722467787,1.3033718516134258,B,471,Incorrect
2,relearn,41,498,A,31.826186530582014,51.57127523552017,1.5913093265291007,0.810079697080837,A,319,Incorrect
2,relearn,41,499,B,40.57486885158558,28.96521679631203,2.0287434425792785,0.4549845614846478,B,522,Correct
2,relearn,41,500,A,13.183474187259193,35.708402440783914,0.6591737093629597,0.5609062738969729,B,481,Incorrect
2,relearn,41,501,A,22.761092823054202,46.149029009648316,1.1380546411527102,0.7249072525350669,B,814,Incorrect
2,relearn,41,502,B,79.65441484369546,64.51836345963073,3.9827207421847732,1.0134520833320602,B,1144,Correct
2,relearn,41,503,A,46.37101249324224,70.17810712425072,2.318550624662112,1.1023551289219178,A,719,Incorrect
2,relearn,41,504,A,28.059659082410988,48.8105114917972,1.4029829541205492,0.7667137216029511,B,752,Incorrect
2,relearn,41,505,A,23.503438087950638,48.31913879070938,1.175171904397532,0.758995257263391,B,634,Correct
2,relearn,41,506,A,42.51982486184367,62.56276335767839,2.1259912430921832,0.9827335887637958,B,817,Correct
2,relearn,41,507,B,46.80001545782322,29.11014334365511,2.340000772891161,0.45726106236686354,B,873,Incorrect
2,relearn,41,508,B,66.74189412866163,45.04327368195159,3.3370947064330814,0.7075380884642679,B,864,Incorrect
2,relearn,41,509,B,66.85016140820832,57.31220114524746,3.342508070410416,0.9002579503948496,B,667,Correct
2,relearn,41,510,B,65.37232481928652,56.61588626106625,3.268616240964326,0.8893202617712053,B,639,Correct
2,relearn,41,511,A,47.81757029122663,66.84717526950749,2.390878514561331,1.0500329736995702,B,707,Correct
2,relearn,41,512,B,35.660000696107204,24.43918763778313,1.7830000348053603,0.38388986171280987,A,578,Incorrect
2,relearn,41,513,B,54.261942663881484,30.295175447128344,2.7130971331940743,0.4758755031195614,B,586,Incorrect
2,relearn,41,514,A,60.08422935575311,71.24202402139952,3.0042114677876555,1.1190670964624816,B,864,Incorrect
2,relearn,41,515,A,30.062281372917013,40.53284878906017,1.5031140686458508,0.6366884999238869,A,1237,Incorrect
2,relearn,41,516,B,64.62789031813344,31.506218372657884,3.231394515906672,0.4948985209096889,B,433,Incorrect
2,relearn,41,517,B,54.063526366146625,32.43713811103922,2.7031763183073316,0.5095213739655915,B,626,Incorrect
2,relearn,41,518,B,55.215893221460334,38.40817573986042,2.7607946610730165,0.6033142137106561,B,711,Correct
2,relearn,41,519,A,20.084803048564517,51.74078308940081,1.0042401524282258,0.8127423202232229,B,649,Incorrect
2,relearn,41,520,B,40.81457828313165,32.671130487210746,2.0407289141565825,0.513196917615474,B,337,Incorrect
2,relearn,41,521,B,58.31405358766894,47.63037539699454,2.915702679383447,0.7481761871746104,B,497,Correct
2,relearn,41,522,A,45.41139366270836,64.74314126338402,2.270569683135418,1.0169828848168672,B,776,Incorrect
2,relearn,41,523,A,59.28419645729697,82.11796197970432,2.9642098228648486,1.2899059304160252,B,383,Incorrect
2,relearn,41,524,B,40.84264606184031,26.354634940790284,2.0421323030920155,0.41397763759013817,B,773,Correct
2,relearn,41,525,B,66.15036396325432,46.05915205763302,3.3075181981627164,0.7234954686741756,B,415,Incorrect
2,relearn,41,526,B,49.31861895567384,20.618388429059564,2.465930947783692,0.32387288808797166,B,388,Correct
2,relearn,41,527,B,49.097973491086535,34.631653323129626,2.4548986745543266,0.5439927383080629,B,376,Incorrect
2,relearn,41,528,A,49.541355886318854,72.28571659138792,2.4770677943159427,1.1354613810148906,B,370,Incorrect
2,relearn,41,529,A,27.846326657009087,44.458839218321444,1.3923163328504544,0.6983578133770422,B,569,Incorrect
2,relearn,41,530,A,14.90285218475286,41.377704181944935,0.745142609237643,0.6499594574020494,B,380,Incorrect
2,relearn,41,531,A,20.395468243255355,44.68835809335589,1.0197734121627677,0.7019630874353842,B,474,Correct
2,relearn,41,532,B,40.72580111451396,31.024612898999326,2.036290055725698,0.48733347981981706,B,509,Correct
2,relearn,41,533,B,77.50885211584773,50.48526620335417,3.8754426057923865,0.7930207070949127,B,475,Incorrect
2,relearn,41,534,A,45.22855125428842,55.68234377120387,2.261427562714421,0.8746562106313771,B,551,Correct
2,relearn,41,535,A,21.7748645035208,43.0589150589408,1.08874322517604,0.6763678561035766,B,447,Incorrect
2,relearn,41,536,A,23.32378613479825,52.16992422552792,1.1661893067399125,0.8194832534262735,B,570,Incorrect
2,relearn,41,537,B,75.97951082364399,43.452168623074,3.7989755411821995,0.6825450686439709,B,525,Incorrect
2,relearn,41,538,A,68.68073299189581,86.40917543018467,3.4340366495947903,1.3573121536710993,A,403,Correct
2,relearn,41,539,B,69.50832913488583,39.916718122599384,3.475416456744291,0.627010342046864,A,1033,Incorrect
2,relearn,41,540,B,46.590043241825526,38.24285462487042,2.329502162091276,0.6007173557089768,B,278,Correct
2,relearn,41,541,B,46.90002432949568,39.46393792279788,2.345001216474784,0.6198980872999275,B,356,Correct
2,relearn,41,542,B,47.3534412767305,23.998284997424975,2.367672063836525,0.37696417923332226,B,686,Incorrect
2,relearn,41,543,A,32.72464691015818,45.2450737938486,1.636232345507909,0.7107079572094142,B,624,Incorrect
2,relearn,41,544,A,34.97892039499971,52.78333302117889,1.7489460197499855,0.8291186562565956,B,504,Incorrect
2,relearn,41,545,B,60.369616318051904,51.6685730641446,3.0184808159025955,0.8116080477989208,B,389,Correct
2,relearn,41,546,B,33.46166842393586,12.27783933464993,1.673083421196793,0.19285984927846003,B,572,Incorrect
2,relearn,41,547,B,40.51206397342525,31.56441338277442,2.0256031986712624,0.4958126459909774,B,422,Incorrect
2,relearn,41,548,B,64.99439841728541,52.400004283040886,3.249719920864271,0.8230973425183749,B,636,Correct
2,relearn,41,549,B,68.77719346614663,38.95376373677186,3.4388596733073316,0.6118842899255748,B,645,Correct
2,relearn,41,550,B,53.81185760507559,43.51656143407196,2.6905928802537797,0.6835565485538468,B,433,Correct
2,relearn,41,551,B,67.56140361027694,44.97418041377581,3.378070180513847,0.7064527739457002,B,481,Correct
2,relearn,41,552,A,23.153486174266106,41.296984428960194,1.1576743087133052,0.648691514487167,B,487,Incorrect
2,relearn,41,553,A,57.056879751829285,64.94471649427474,2.852843987591464,1.020149221139427,B,1541,Correct
2,relearn,41,554,B,61.57699942105646,29.604325523467534,3.078849971052823,0.4650236578950321,B,541,Correct
2,relearn,41,555,B,55.85057124712323,41.17775398761526,2.7925285623561615,0.6468186470940996,B,617,Correct
2,relearn,41,556,B,67.16692905133043,47.477157360462776,3.3583464525665216,0.7457694438847821,B,327,Incorrect
2,relearn,41,557,A,31.99983430119351,57.31433928656472,1.5999917150596756,0.9002915362401228,A,463,Incorrect
2,relearn,41,558,A,56.20676136542788,66.18168372021758,2.810338068271394,1.0395794568881938,B,548,Correct
2,relearn,41,559,B,39.45940433151803,29.224777994734033,1.9729702165759015,0.4590617392552454,B,387,Correct
2,relearn,41,560,B,57.767635032625826,50.35008906860852,2.8883817516312913,0.7908973496276612,B,305,Incorrect
2,relearn,41,561,A,51.32394798522894,76.76354384343979,2.566197399261447,1.2057989270103422,B,429,Incorrect
2,relearn,41,562,A,40.74854066197914,71.31010102730235,2.037427033098957,1.1201364475705953,B,475,Incorrect
2,relearn,41,563,B,61.43372351674071,33.20269696952739,3.0716861758370357,0.5215467443941767,B,571,Correct
2,relearn,41,564,A,20.841200148724816,52.25197733313207,1.042060007436241,0.8207721406265405,A,1057,Correct
2,relearn,41,565,B,57.01239261249196,50.122869571385806,2.850619630624598,0.787328194111525,B,880,Incorrect
2,relearn,41,566,B,50.94561221773367,34.69741207544372,2.5472806108866832,0.5450256743739589,B,780,Correct
2,relearn,41,567,B,82.51637965058544,60.165026486734426,4.125818982529272,0.945070026068801,B,717,Correct
2,relearn,41,568,A,40.48008798807688,60.042263555196435,2.0240043994038444,0.9431416704495366,B,662,Incorrect
2,relearn,41,569,A,62.42775615937044,76.71024845324459,3.1213878079685218,1.204961764978805,B,601,Incorrect
2,relearn,41,570,B,67.70688916722551,54.24620402162826,3.385344458361276,0.8520973801974021,B,1100,Incorrect
2,relearn,41,571,A,65.3508131295635,76.07010744832752,3.2675406564781753,1.1949064535872598,A,551,Correct
2,relearn,41,572,B,45.4116449986288,24.251559736428355,2.27058224993144,0.38094260953028675,B,398,Incorrect
2,relearn,41,573,A,26.336851940062417,57.74031074698078,1.3168425970031208,0.906982680293533,A,645,Incorrect
2,relearn,41,574,B,34.11856189170454,11.002110836979682,1.7059280945852269,0.1728207528971801,B,378,Correct
2,relearn,41,575,A,50.36517543569759,71.19989209296972,2.5182587717848794,1.1184052896782983,A,822,Incorrect
2,relearn,41,576,B,41.77014665740879,15.791000596342617,2.0885073328704395,0.24804445733151007,B,352,Correct
2,relearn,41,577,B,52.13301316789889,37.19787887849649,2.6066506583949445,0.5843029150690375,B,373,Correct
2,relearn,41,578,A,26.912611908453677,52.73682377028793,1.3456305954226837,0.8283880906519807,A,1008,Incorrect
2,relearn,41,579,B,48.562853382987264,19.5841710968339,2.4281426691493633,0.30762744022229466,B,417,Incorrect
2,relearn,41,580,A,64.69211197697786,89.51736915963585,3.234605598848893,1.4061355466029875,A,944,Correct
2,relearn,41,581,B,50.87595078439322,23.08195645857169,2.543797539219661,0.3625705242036415,B,660,Correct
2,relearn,41,582,A,20.242978428437436,48.83422392630819,1.0121489214218717,0.7670861956532435,A,621,Correct
2,relearn,41,583,A,21.85692983075983,38.355151896787945,1.0928464915379916,0.6024813171313481,B,620,Correct
2,relearn,41,584,A,37.87048277262983,65.4096645869335,1.8935241386314914,1.0274526087004137,B,724,Incorrect
2,relearn,41,585,A,26.788615160945398,50.635756482438914,1.33943075804727,0.7953846028709591,B,277,Incorrect
2,relearn,41,586,A,42.183479788145036,61.4586652687384,2.109173989407252,0.9653904565385136,A,386,Correct
2,relearn,41,587,B,79.21900020953083,65.59140374281063,3.9609500104765414,1.0303073606852797,B,561,Correct
2,relearn,41,588,B,82.52951051788398,60.94075765904217,4.1264755258941985,0.9572551828292141,B,495,Correct
2,relearn,41,589,B,50.51968747511362,38.99770720292713,2.525984373755681,0.6125745522778081,A,1581,Incorrect
2,relearn,41,590,A,55.03481845315276,81.6107572496885,2.751740922657638,1.2819387771476067,B,2667,Incorrect
2,relearn,41,591,B,31.329606390088824,14.030026703381406,1.566480319504441,0.22038314410505824,B,631,Correct
2,relearn,41,592,A,19.236430301594293,39.67870697182421,0.9618215150797147,0.6232716716331252,A,597,Incorrect
2,relearn,41,593,B,37.06448186997829,11.191546356059781,1.8532240934989144,0.17579639907253514,B,580,Correct
2,relearn,41,594,A,32.77658877240456,53.03248343935594,1.6388294386202278,0.833032301873515,A,717,Incorrect
2,relearn,41,595,A,18.42283619592435,38.95186061491519,0.9211418097962175,0.6118543957573559,B,384,Incorrect
2,relearn,41,596,A,24.868255892562253,38.35643089610298,1.2434127946281126,0.6025014076056083,B,825,Incorrect
2,relearn,41,597,A,65.00305599368492,78.1845187775055,3.2501527996842463,1.2281195490793226,B,614,Correct
2,relearn,41,598,A,55.50200656598187,63.999587943318126,2.775100328299094,1.0053031765775107,B,1012,Incorrect
2,relearn,41,599,B,71.41263813232898,51.77993672558764,3.570631906616449,0.8133573441022521,B,442,Incorrect
2,relearn,41,600,A,49.92949124422407,73.57032783438365,2.4964745622112035,1.1556400072334616,A,1604,Correct
2,relearn,41,601,B,84.25529011657557,56.933634905814216,4.212764505828778,0.8943114458113467,B,971,Correct
2,relearn,41,602,A,28.91743512828652,48.56086658765001,1.445871756414326,0.7627923086185766,B,2211,Incorrect
2,relearn,41,603,B,53.055753413935086,26.846216611604124,2.6527876706967546,0.4216993844184789,B,525,Correct
2,relearn,41,604,B,45.03580368240628,28.86856764657186,2.2517901841203143,0.45346640019065065,B,461,Correct
2,relearn,41,605,A,25.917688627637606,47.390721614853945,1.2958844313818805,0.744411714367721,A,548,Correct
2,relearn,41,606,A,10.569472762354799,32.27720164033831,0.52847363811774,0.5070090977586164,A,1025,Correct
2,relearn,41,607,B,73.90936894816657,41.590893342533306,3.6954684474083286,0.6533082249056963,B,451,Correct
2,relearn,41,608,A,46.08817132452071,54.3005057555354,2.3044085662260354,0.8529503498390014,A,487,Correct
2,relearn,41,609,A,52.54786264530476,59.65512322180049,2.627393132265238,0.9370604843130115,A,834,Correct
2,relearn,41,610,B,40.470766407811816,22.76196452329603,2.023538320390591,0.35754410263829156,B,492,Correct
2,relearn,41,611,B,32.659780932724296,12.583456081415804,1.6329890466362147,0.19766046591072847,B,510,Correct
2,relearn,41,612,B,82.56852668965715,54.23397276125799,4.128426334482857,0.8519052520087851,B,1070,Correct
2,relearn,41,613,A,36.03759564054944,58.95352363660546,1.8018797820274721,0.9260397837999595,A,580,Correct
2,relearn,41,614,A,49.252099409034344,64.07585897634156,2.462604970451717,1.0065012391626513,A,872,Correct
2,relearn,41,615,A,33.211781660900016,64.13044975312995,1.6605890830450007,1.007358749079212,A,516,Correct
2,relearn,41,616,A,41.15874298657032,50.66080024918501,2.0579371493285157,0.7957779894390979,A,550,Correct
2,relearn,41,617,A,37.70309795980177,65.07686462517765,1.8851548979900883,1.0222249991255778,A,504,Correct
2,relearn,41,618,A,19.889083571427246,38.62229325220345,0.9944541785713623,0.6066775637295649,B,703,Incorrect
2,relearn,41,619,B,74.43277015687181,64.44975003165627,3.7216385078435907,1.0123743061257493,B,914,Correct
2,relearn,41,620,B,56.288288929110685,30.785536165536072,2.814414446455534,0.4835780712723551,B,573,Correct
2,relearn,41,621,B,50.8486216725842,34.780741839707744,2.5424310836292103,0.5463346152501449,B,610,Correct
2,relearn,41,622,B,48.50881419650894,19.059574637236004,2.4254407098254473,0.29938709830443483,B,643,Correct
2,relearn,41,623,B,33.34134853402433,10.947586398489726,1.6670674267012162,0.17196428502017433,B,450,Correct
2,relearn,41,624,B,80.85833910295919,67.26904850297817,4.04291695514796,1.0566597429546585,B,772,Correct
2,relearn,41,625,A,60.23386559799241,70.48265618139612,3.011693279899621,1.1071389743248465,B,810,Incorrect
2,relearn,41,626,B,71.81207425219901,52.5150631942266,3.5906037126099504,0.82490468366893,B,802,Correct
2,relearn,41,627,B,65.02178798936905,33.4267885098606,3.2510893994684524,0.5250667660783889,B,668,Correct
2,relearn,41,628,A,54.460717771866484,79.7061206944019,2.723035888593324,1.252020816098372,A,675,Correct
2,relearn,41,629,B,56.20797530531512,41.660388706226044,2.810398765265756,0.6543998555258745,B,808,Correct
2,relearn,41,630,B,66.28530729779322,53.693224167247585,3.3142653648896614,0.8434111929568748,B,600,Correct
2,relearn,41,631,A,32.82407114475046,51.0832579955035,1.6412035572375232,0.8024139402005293,A,808,Correct
2,relearn,41,632,B,44.98034852867988,28.234362956848436,2.249017426433994,0.4435043362201142,B,720,Correct
2,relearn,41,633,B,36.6449820143463,15.875538681150612,1.8322491007173147,0.24937237846241678,B,418,Correct
2,relearn,41,634,A,65.32781546653285,88.52878855311832,3.2663907733266426,1.3906069587484033,A,632,Correct
2,relearn,41,635,B,86.3192658675397,62.81585116317028,4.315963293376985,0.9867090827160281,B,1033,Correct
2,relearn,41,636,B,63.40357176791935,53.444040800018726,3.170178588395968,0.83949702977746,B,741,Correct
2,relearn,41,637,B,79.15941147274164,59.15088309210623,3.957970573637082,0.9291398988775481,B,545,Correct
2,relearn,41,638,B,81.43002948926733,53.68265626658174,4.071501474463366,0.8432451927613963,B,548,Correct
2,relearn,41,639,B,48.95273053302181,25.104520444069536,2.44763652665109,0.3943408849949181,B,645,Correct
2,relearn,41,640,A,55.517333023519974,63.24651402831465,2.7758666511759986,0.9934739191825853,A,813,Correct
2,relearn,41,641,B,55.942586891365536,39.414658029509376,2.7971293445682766,0.619124000546303,B,521,Correct
2,relearn,41,642,B,53.52121088801778,46.049086284568595,2.676060544400889,0.723337355880616,B,704,Correct
2,relearn,41,643,A,46.41133178001665,70.82904180184636,2.320566589000833,1.1125799869274242,A,566,Correct
2,relearn,41,644,B,72.13080770341327,42.86536533208622,3.606540385170663,0.6733275841036234,B,624,Correct
2,relearn,41,645,A,45.53836889159127,66.59111187692766,2.276918444579563,1.0460107393346598,A,517,Correct
2,relearn,41,646,B,79.98958098777655,56.595651952259026,3.9994790493888273,0.889002421991709,B,486,Correct
2,relearn,41,647,B,68.9566846844256,56.725154016194125,3.4478342342212795,0.8910366356551253,A,387,Incorrect
2,relearn,41,648,B,73.30845540818666,59.3538576489571,3.665422770409333,0.93232821576089,B,959,Correct
2,relearn,41,649,B,76.18516629642598,44.80297463902868,3.8092583148212986,0.7037634799247116,B,488,Correct
2,relearn,41,650,A,23.93904717792783,36.08201407164999,1.1969523588963915,0.5667749516710958,A,952,Correct
2,relearn,41,651,B,55.31025741385273,28.890906112427693,2.7655128706926364,0.4538172919917765,B,496,Correct
2,relearn,41,652,B,67.09857793502198,55.72071240759798,3.354928896751099,0.8752589037624972,B,509,Correct
2,relearn,41,653,B,71.00658740812933,57.96504515845975,3.550329370406467,0.9105128001740888,B,556,Correct
2,relearn,41,654,A,36.3137383570911,68.24628761284843,1.815686917854555,1.0720101789965037,A,1154,Correct
2,relearn,41,655,A,21.285925293129722,48.46351713718389,1.0642962646564862,0.7612631470264998,A,656,Correct
2,relearn,41,656,B,59.341749912995525,47.424981465653765,2.967087495649776,0.7449498668456499,B,698,Correct
2,relearn,41,657,A,36.30182796178584,59.777787092104546,1.815091398089292,0.938987283882052,B,743,Incorrect
2,relearn,41,658,A,54.09696333356304,73.7763039502623,2.7048481666781523,1.1588754724957584,B,1171,Incorrect
2,relearn,41,659,B,45.19033990643879,21.519070548577275,2.2595169953219396,0.3380207697374542,B,679,Correct
2,relearn,41,660,A,22.704203986607904,50.88020936768447,1.1352101993303954,0.7992244598131405,A,554,Correct
2,relearn,41,661,B,60.96384386384569,34.910456309042154,3.0481921931922846,0.5483721653697713,B,731,Correct
2,relearn,41,662,B,38.1360352290196,19.524313153517724,1.9068017614509798,0.3066871938473893,B,1768,Correct
2,relearn,41,663,B,52.106775622914085,23.710353640994487,2.6053387811457043,0.37244136406282147,B,1294,Correct
2,relearn,41,664,A,18.412152460094838,33.98490771829032,0.9206076230047419,0.5338336821035397,A,1509,Correct
2,relearn,41,665,A,65.92068030079,87.66739648235104,3.2960340150394996,1.3770762437414885,B,378,Incorrect
2,relearn,41,666,B,73.52807341442204,47.81354580418591,3.676403670721102,0.7510534212025476,B,607,Correct
2,relearn,41,667,B,72.59030870347001,39.80923660823642,3.6295154351735004,0.6253220263672669,B,672,Correct
2,relearn,41,668,B,67.22767102109775,51.00226246285978,3.3613835510548875,0.8011416653488938,B,542,Correct
2,relearn,41,669,A,67.99260387562467,87.33383138646477,3.3996301937812334,1.371836615467837,A,828,Correct
2,relearn,41,670,B,54.757697955830835,35.33358641794774,2.7378848977915418,0.5550186775780236,B,469,Correct
2,relearn,41,671,A,50.035299478594766,66.21606528914992,2.5017649739297383,1.0401195213100773,A,587,Correct
2,relearn,41,672,B,79.12904786984232,49.36015668453184,3.9564523934921163,0.7753475281008317,B,442,Correct
2,relearn,41,673,A,18.68002022005014,33.52496064025856,0.934001011002507,0.5266088502966164,A,923,Correct
2,relearn,41,674,B,78.45942581629674,48.17520597555787,3.922971290814837,0.7567343658899386,B,772,Correct
2,relearn,41,675,A,31.996952826544163,41.256123497905605,1.599847641327208,0.6480496724830674,A,1219,Correct
2,relearn,41,676,A,52.891283143808735,75.31295265572003,2.6445641571904366,1.1830130939168297,A,647,Correct
2,relearn,41,677,A,28.093774087923535,43.32438478380135,1.4046887043961767,0.6805378447904387,B,472,Incorrect
2,relearn,41,678,A,47.6409018507966,67.88129915128593,2.38204509253983,1.0662769536490546,A,781,Correct
2,relearn,41,679,B,80.55162311634672,58.49049920266782,4.027581155817336,0.9187666129995044,A,950,Incorrect
2,relearn,41,680,A,30.087945148201875,40.87332956441969,1.5043972574100937,0.642036759436677,B,511,Incorrect
2,relearn,41,681,B,47.20548340454895,29.0734987430817,2.3602741702274472,0.45668545032708774,B,596,Correct
2,relearn,41,682,B,52.410673084803214,32.758247295759276,2.6205336542401607,0.5145653452441752,B,847,Correct
2,relearn,41,683,A,58.743023131564016,76.93575938265981,2.937151156578201,1.2085040823745803,A,567,Correct
2,relearn,41,684,B,82.51533587743793,67.93490034693811,4.125766793871897,1.0671189192614772,B,1578,Correct
2,relearn,41,685,B,33.70642503650265,19.702963781267346,1.6853212518251326,0.30949343134587637,B,950,Correct
2,relearn,41,686,A,65.97383902388202,89.28329429960971,3.298691951194101,1.4024587072997465,A,682,Correct
2,relearn,41,687,B,42.85612629534168,28.298876047657657,2.142806314767084,0.4445177054808473,B,667,Correct
2,relearn,41,688,A,50.32026564857153,64.21683815278405,2.5160132824285766,1.0087157348877556,A,702,Correct
2,relearn,41,689,A,30.112938330639825,50.989607304414854,1.5056469165319912,0.8009428785848908,A,1290,Correct
2,relearn,41,690,B,55.088296558856335,32.93505349356894,2.7544148279428167,0.5173426105049151,B,618,Correct
2,relearn,41,691,B,35.425456903997144,25.24290382063214,1.7712728451998572,0.3965146059908583,B,735,Correct
2,relearn,41,692,B,39.582984440882534,22.60998335636812,1.9791492220441267,0.35515678805076784,B,768,Correct
2,relearn,41,693,A,60.044927693312886,79.78281631851267,3.0022463846656446,1.2532255481447163,A,730,Correct
2,relearn,41,694,A,52.80947241632207,82.58840635914743,2.6404736208161035,1.2972956534479303,A,683,Correct
2,relearn,41,695,B,42.30378992655254,24.06781594713548,2.115189496327627,0.37805636883736043,B,658,Correct
2,relearn,41,696,B,57.56563386163212,45.398397306123314,2.878281693081606,0.7131163573083382,B,1015,Correct
2,relearn,41,697,B,64.33208065643883,53.213007743568156,3.216604032821942,0.8358679710130523,A,659,Incorrect
2,relearn,41,698,B,54.728999124246414,27.011606204640117,2.7364499562123203,0.4242973180707893,B,385,Correct
2,relearn,41,699,B,51.4511290350774,25.711899027551716,2.5725564517538704,0.40388156547399506,B,489,Correct
2,relearn,41,700,B,69.44200152187584,55.8386675845413,3.472100076093792,0.8771117393491873,A,663,Incorrect
2,relearn,41,701,B,73.27941508703928,60.93223970016008,3.6639707543519644,0.9571213830439763,A,629,Incorrect
2,relearn,41,702,B,32.33709744867056,11.894818852622084,1.616854872433528,0.1868433776158946,B,766,Correct
2,relearn,41,703,A,28.06583462868108,41.99388692959715,1.403291731434054,0.6596384333685142,A,794,Correct
2,relearn,41,704,A,49.512502075358505,70.23936774797306,2.4756251037679253,1.1033174085491202,A,881,Correct
2,relearn,41,705,A,64.9150375724366,81.81295556069621,3.2457518786218302,1.2851149007897573,A,839,Correct
2,relearn,41,706,A,67.7635433256848,87.35890790185577,3.3881771662842395,1.372230516450487,A,1405,Correct
2,relearn,41,707,B,74.56788040418407,52.33116266995102,3.728394020209203,0.8220159809886526,B,624,Correct
2,relearn,41,708,A,60.15050620938764,79.36687360201722,3.007525310469382,1.246691935232435,B,672,Incorrect
2,relearn,41,709,B,64.93003349836128,39.3415328818346,3.2465016749180644,0.6179753534126644,B,1694,Correct
2,relearn,41,710,A,15.756355885343876,44.74329870608522,0.7878177942671938,0.7028260925620551,A,626,Correct
2,relearn,41,711,A,35.6570873636419,47.6837930994273,1.782854368182095,0.7490152704822823,B,675,Incorrect
2,relearn,41,712,B,40.007469265059214,28.636806145360183,2.000373463252961,0.44982589904269293,B,498,Correct
2,relearn,41,713,A,62.50456146840729,74.04683886245297,3.125228073420365,1.1631250249591472,A,694,Correct
2,relearn,41,714,B,33.57425248097255,15.250869865296085,1.6787126240486274,0.23956010364834068,B,515,Correct
2,relearn,41,715,B,63.76842059781055,49.59789319267192,3.188421029890527,0.7790818844381465,A,638,Incorrect
2,relearn,41,716,A,51.52962668317635,80.59563212167595,2.5764813341588177,1.2659932289244133,A,696,Correct
2,relearn,41,717,B,52.15911667109951,33.804100936682275,2.6079558335549757,0.5309935758194444,B,437,Correct
2,relearn,41,718,A,17.169237712449853,38.631237037762716,0.8584618856224927,0.6068180523846063,100,981,Incorrect
2,relearn,41,719,B,63.29851331107468,31.328903085487273,3.164925665553734,0.4921132588919671,B,450,Correct
2,relearn,41,720,B,79.89216665720046,63.954626216290535,3.994608332860023,1.0045969194208977,B,518,Correct
2,relearn,41,721,B,53.03647260837847,38.442568475663926,2.6518236304189235,0.6038544535413418,B,525,Correct
2,relearn,41,722,B,32.44583390457763,17.95090595151644,1.6222916952288815,0.28197217131282676,B,464,Correct
2,relearn,41,723,B,69.95448604942713,46.62371555569704,3.4977243024713567,0.7323636113641899,B,768,Correct
2,relearn,41,724,B,88.14110376732629,62.06744200708271,4.407055188366314,0.9749530991828078,B,459,Correct
2,relearn,41,725,B,65.93311550189657,49.27719998943263,3.296655775094828,0.774044447381383,B,433,Correct
2,relearn,41,726,A,62.842862898950784,76.28454591276203,3.142143144947539,1.1982748451098324,B,507,Incorrect
2,relearn,41,727,B,33.45418599451074,11.649300909019768,1.6727092997255368,0.182986790776167,B,598,Correct
2,relearn,41,728,B,65.13555435686435,50.926753338764726,3.2567777178432173,0.7999555708012137,A,682,Incorrect
2,relearn,41,729,B,58.00056488555487,37.61218416863187,2.9000282442777436,0.590810807348201,B,499,Correct
2,relearn,41,730,A,52.49890405586143,80.27946852122402,2.6249452027930715,1.261026942701852,A,769,Correct
2,relearn,41,731,A,36.48736195821425,55.327753251701225,1.8243680979107126,0.8690863157758669,B,732,Incorrect
2,relearn,41,732,B,82.08785547429824,55.06279730659221,4.1043927737149115,0.8649243975224695,B,561,Correct
2,relearn,41,733,B,37.30012946215856,24.6656520710171,1.865006473107928,0.38744715671154595,B,865,Correct
2,relearn,41,734,B,40.77885555200361,26.44643143163998,2.0389427776001807,0.4154195734965318,B,626,Correct
2,relearn,41,735,B,71.56393569628924,47.532457209458435,3.578196784814462,0.7466380918815291,B,767,Correct
2,relearn,41,736,A,36.078676425153084,61.445405363634926,1.8039338212576541,0.9651821704362118,A,567,Correct
2,relearn,41,737,B,52.83388119078023,33.059546324413475,2.6416940595390117,0.5192981393189442,A,679,Incorrect
2,relearn,41,738,A,62.57086160707364,76.82254485642974,3.128543080353682,1.2067257127551603,A,647,Correct
2,relearn,41,739,B,68.83556201766686,36.39093212520553,3.441778100883343,0.5716274251091525,B,1173,Correct
2,relearn,41,740,A,17.714300860071486,47.24244389848189,0.8857150430035743,0.7420825734454932,A,704,Correct
2,relearn,41,741,A,65.75250254304898,76.70023998948948,3.287625127152449,1.204804552397771,A,855,Correct
2,relearn,41,742,B,66.00000754071388,54.58966986306737,3.3000003770356945,0.857492529018523,B,540,Correct
2,relearn,41,743,A,56.57107524829079,66.71386762902978,2.8285537624145394,1.0479389821796092,A,898,Correct
2,relearn,41,744,B,43.81259707625455,16.65113727908008,2.1906298538127276,0.26155545274936554,B,989,Correct
2,relearn,41,745,A,55.571489561755506,82.6290057160457,2.778574478087775,1.2979333866547909,A,805,Correct
2,relearn,41,746,B,57.40749749431735,28.04754136041253,2.8703748747158677,0.44056974944563937,B,578,Correct
2,relearn,41,747,B,80.4791746672387,50.274628725977394,4.023958733361934,0.7897120213374248,B,595,Correct
2,relearn,41,748,A,58.23528760515292,71.7059541028782,2.9117643802576456,1.126354493141245,A,675,Correct
2,relearn,41,749,B,68.43720842417794,52.94684062345058,3.4218604212088968,0.8316870276671098,B,418,Correct
2,relearn,41,750,B,57.72575893910919,28.75977688325318,2.886287946955459,0.4517575188765488,B,604,Correct
2,relearn,41,751,B,87.58287638569038,62.07206143070712,4.379143819284519,0.9750256609194191,B,543,Correct
2,relearn,41,752,A,45.384918563565435,68.96336440375846,2.2692459281782718,1.0832739948884171,B,466,Incorrect
2,relearn,41,753,A,64.85766175243319,85.4423411115043,3.242883087621659,1.3421251557070755,A,745,Correct
2,relearn,41,754,A,26.55128224034606,47.01464286026604,1.3275641120173032,0.7385042831047981,B,582,Incorrect
2,relearn,41,755,A,48.78224847358658,60.95368446888458,2.4391124236793287,0.9574582366833904,B,537,Incorrect
2,relearn,41,756,B,53.8380193955258,29.175009649371617,2.69190096977629,0.45827997991438596,B,502,Correct
2,relearn,41,757,A,48.69974630658136,75.07895507490045,2.4349873153290678,1.1793374685125266,A,567,Correct
2,relearn,41,758,A,23.099367321459933,55.0485232880483,1.1549683660729968,0.864700181763496,A,1259,Correct
2,relearn,41,759,B,48.07291722505201,29.163480954861893,2.4036458612526004,0.4580988876044998,B,727,Correct
2,relearn,41,760,A,55.01065584260469,66.25951095141949,2.750532792130235,1.0408019641771595,A,637,Correct
2,relearn,41,761,B,45.631147006656406,27.753578838143248,2.2815573503328204,0.4359521969436798,B,653,Correct
2,relearn,41,762,B,33.558109692008365,13.102728724211246,1.6779054846004184,0.20581718150981004,B,657,Correct
2,relearn,41,763,A,15.031218317499619,32.58073098536852,0.751560915874981,0.5117769255610954,A,1360,Correct
2,relearn,41,764,B,87.94471416669302,64.08389093142401,4.397235708334651,1.0066274048180561,A,706,Incorrect
2,relearn,41,765,B,68.94617844650098,39.59918459594408,3.4473089223250493,0.6220225370738202,B,593,Correct
2,relearn,41,766,B,52.7057948153529,33.432245258250276,2.6352897407676448,0.5251524804816563,B,473,Correct
2,relearn,41,767,A,17.886415977504807,48.48435652304384,0.8943207988752404,0.7615904913341145,A,648,Correct
2,relearn,41,768,A,54.901906738525014,71.49023627696315,2.7450953369262505,1.1229660054555297,A,1525,Correct
2,relearn,41,769,A,39.689712650325404,62.45786716697121,1.9844856325162703,0.9810858832532195,A,801,Correct
2,relearn,41,770,A,22.550558556243672,49.47233319653658,1.1275279278121837,0.7771095926309289,A,1728,Correct
2,relearn,41,771,B,42.917057472379284,21.452020839288796,2.145852873618964,0.33696755536682416,B,733,Correct
2,relearn,41,772,A,56.349376633702796,77.69318598982353,2.8174688316851397,1.2204017116980752,A,726,Correct
2,relearn,41,773,A,57.35810704930026,84.99678495145875,2.867905352465013,1.3351263759112715,A,1156,Correct
2,relearn,41,774,A,14.589432739909878,30.928457658559832,0.7294716369954939,0.4858230768349728,A,862,Correct
2,relearn,41,775,A,63.7786754013221,83.52539048935058,3.1889337700661047,1.3120137657478128,A,536,Correct
2,relearn,41,776,A,23.83773721016895,35.46605033792174,1.1918868605084476,0.5570994159673037,A,1609,Correct
2,relearn,41,777,A,64.19547514418775,89.18026575022769,3.209773757209388,1.400840338630504,A,1263,Correct
2,relearn,41,778,B,60.30600094140537,45.797764100093744,3.015300047070269,0.7193895962384644,B,1353,Correct
2,relearn,41,779,A,19.219570716519396,39.18259464266281,0.9609785358259698,0.6154787573898813,A,1160,Correct
2,relearn,41,780,B,49.3580137842655,35.085638760650475,2.467900689213275,0.5511239248848241,B,741,Correct
2,relearn,41,781,A,28.098424021264094,39.84495195024901,1.4049212010632046,0.6258830416477029,A,2382,Correct
2,relearn,41,782,B,53.25342975039051,36.87814231487249,2.6626714875195256,0.5792805048722116,B,545,Correct
2,relearn,41,783,A,38.05866614652654,55.90989324692353,1.902933307326327,0.8782305494376227,A,987,Correct
2,relearn,41,784,B,49.614556112464776,23.981243509290014,2.4807278056232387,0.37669649216366713,B,548,Correct
2,relearn,41,785,A,23.571280451043396,55.68875406899614,1.1785640225521699,0.8747569033536348,A,814,Correct
2,relearn,41,786,B,88.64397736805567,65.83246603668005,4.432198868402784,1.034093958342668,A,1600,Incorrect
2,relearn,41,787,B,53.92430801269584,45.10831713757504,2.696215400634792,0.7085597886760215,B,2088,Correct
2,relearn,41,788,B,66.19722600474022,47.70592510146655,3.309861300237011,0.749362919157361,B,979,Correct
2,relearn,41,789,A,62.333458989474835,88.15872950552463,3.1166729494737417,1.3847940848218296,A,704,Correct
2,relearn,41,790,A,52.67502841293199,78.74224761465588,2.6337514206465995,1.2368803331667568,A,930,Correct
2,relearn,41,791,B,84.79155157508066,55.55525649870929,4.239577578754034,0.8726599284232086,B,690,Correct
2,relearn,41,792,B,47.05067314176613,24.503260966450753,2.3525336570883066,0.3848963232059761,B,611,Correct
2,relearn,41,793,B,66.99959606340005,36.19057757429146,3.3499798031700028,0.5684802631828277,B,780,Correct
2,relearn,41,794,A,44.17404061804645,68.61317392995774,2.208702030902322,1.0777732157891697,A,639,Correct
2,relearn,41,795,A,24.85055821014192,51.86286338817832,1.2425279105070959,0.8146599530721602,B,845,Incorrect
2,relearn,41,796,B,64.96201791548171,35.588600102643284,3.2481008957740856,0.5590244231700455,B,569,Correct
2,relearn,41,797,B,51.09392436566242,22.380439597868016,2.5546962182831208,0.35155112312386133,B,903,Correct
2,relearn,41,798,A,60.353627905464776,73.41941761237595,3.017681395273239,1.1532695150094068,A,920,Correct
2,relearn,41,799,B,48.3562398358615,19.70141945548671,2.417811991793075,0.30946917313324035,B,732,Correct
2,relearn,41,800,A,24.615802523540633,44.42422209003267,1.2307901261770318,0.6978140487974401,A,618,Correct
2,relearn,41,801,A,27.282230649234293,42.52159638867525,1.3641115324617146,0.6679276741678623,A,823,Correct
2,relearn,41,802,A,59.08365295979231,78.2143208913023,2.9541826479896156,1.2285876795881499,A,708,Correct
2,relearn,41,803,A,27.62212831558628,52.826796677449636,1.381106415779314,0.8298013817727873,A,889,Correct
2,relearn,41,804,B,73.12862241844131,42.82627163535497,3.6564311209220652,0.6727135017513606,A,634,Incorrect
2,relearn,41,805,B,50.01816087283355,25.74322742956952,2.5009080436416777,0.40437367086213427,A,779,Incorrect
2,relearn,41,806,B,53.94936925869185,29.662171640937416,2.6974684629345926,0.4659323025834425,B,540,Correct
2,relearn,41,807,B,60.75130541607128,31.243911018330948,3.0375652708035643,0.4907782066230085,B,629,Correct
2,relearn,41,808,A,55.80450581174692,71.97417745991045,2.790225290587346,1.1305677357811137,A,809,Correct
2,relearn,41,809,A,63.226635356179756,75.06383997298083,3.161331767808988,1.1791000410467822,A,775,Correct
2,relearn,41,810,B,41.51609091435906,21.87661751792838,2.0758045457179533,0.34363710439858786,B,673,Correct
2,relearn,41,811,B,86.91930018735867,69.85690024411954,4.345965009367934,1.0973096230474049,A,965,Incorrect
2,relearn,41,812,A,67.01672329520686,84.60417453876322,3.3508361647603433,1.3289592659700356,A,698,Correct
2,relearn,41,813,B,50.334761292654264,23.796025086185534,2.516738064632713,0.37378708797699456,B,403,Correct
2,relearn,41,814,A,47.782879048242194,72.64165268191546,2.38914395241211,1.1410524120506345,A,1006,Correct
2,relearn,41,815,A,52.119000662202886,73.89759808521154,2.605950033110144,1.1607807563121588,A,862,Correct
2,relearn,41,816,A,52.40865781420837,60.98639030266707,2.6204328907104184,0.9579719787190935,B,478,Incorrect
2,relearn,41,817,A,32.4295924767379,58.584428485526495,1.621479623836895,0.9202420507244333,A,745,Correct
2,relearn,41,818,A,50.17943818157552,77.05526279250101,2.5089719090787757,1.2103812375467604,A,1031,Correct
2,relearn,41,819,B,62.0814670038167,40.48903099773548,3.1040733501908346,0.636000211667276,B,484,Correct
2,relearn,41,820,A,20.324170410446914,37.05792187163483,1.0162085205223457,0.5821044755461625,A,1075,Correct
2,relearn,41,821,A,36.1567243230642,49.247255134969635,1.80783621615321,0.773574074707414,B,736,Incorrect
2,relearn,41,822,A,56.47299629256439,68.51616498048777,2.8236498146282196,1.076249402774233,A,801,Correct
2,relearn,41,823,A,23.671037448549036,52.062155407080944,1.1835518724274519,0.817790424784678,B,698,Incorrect
2,relearn,41,824,B,77.60376615221635,58.82237201183368,3.8801883076108172,0.9239796588955127,A,692,Incorrect
2,relearn,41,825,A,60.73683875479086,72.94971748746352,3.036841937739543,1.1458914827003313,A,2157,Correct
2,relearn,41,826,A,52.84600028479377,76.91663777296925,2.642300014239688,1.208203720831937,A,499,Correct
2,relearn,41,827,B,40.58100877349207,32.312238026317345,2.0290504386746036,0.5075594480226167,B,567,Correct
2,relearn,41,828,A,39.872362285299516,64.42732282780793,1.9936181142649758,1.0120220204314967,A,609,Correct
2,relearn,41,829,A,39.19296820860892,53.96109449461026,1.959648410430446,0.8476188902196611,B,589,Incorrect
2,relearn,41,830,A,45.695223772061006,60.39581732280226,2.2847611886030506,0.9486952800443337,B,842,Incorrect
2,relearn,41,831,A,22.118399397834114,40.3137887172626,1.1059199698917057,0.6332475123626163,A,590,Correct
2,relearn,41,832,B,61.72825203182829,50.47399666987671,3.086412601591414,0.7928436856770018,A,713,Incorrect
2,relearn,41,833,A,52.71940158360293,66.67582441820694,2.6359700791801464,1.0473414008214095,A,1250,Correct
2,relearn,41,834,A,19.298299446508256,46.07337152696558,0.9649149723254128,0.723718827576141,A,844,Correct
2,relearn,41,835,A,63.70309985517662,77.02878444022475,3.185154992758831,1.2099653165618094,A,994,Correct
2,relearn,41,836,A,50.26208300259144,65.71424650608863,2.513104150129572,1.0322369702985839,A,576,Correct
2,relearn,41,837,A,17.72077156386886,45.037903695457686,0.8860385781934429,0.7074537369136723,A,689,Correct
2,relearn,41,838,A,15.811528887788537,36.478592569817906,0.7905764443894269,0.5730043921531757,B,837,Incorrect
2,relearn,41,839,B,45.593302729631006,25.657232811780062,2.27966513648155,0.4030228705646562,B,508,Correct
2,relearn,41,840,A,42.48499865712389,55.33331186665289,2.1242499328561943,0.8691736302953482,A,941,Correct
2,relearn,41,841,B,51.77085372485011,27.21102171372721,2.5885426862425054,0.4274297295625887,A,594,Incorrect
2,relearn,41,842,B,74.15947249764427,52.799546591923125,3.707973624882214,0.8293733384302884,A,680,Incorrect
2,relearn,41,843,A,20.18441154258337,36.42159261691045,1.0092205771291685,0.5721090389866307,A,603,Correct
2,relearn,41,844,B,70.68740801048482,57.15620061637652,3.534370400524241,0.8978074998175645,A,681,Incorrect
2,relearn,41,845,B,62.37496931660725,53.570175476275686,3.1187484658303624,0.8414783486389189,A,740,Incorrect
2,relearn,41,846,A,54.61150530101385,77.42397254597371,2.7305752650506925,1.2161729168108442,A,687,Correct
2,relearn,41,847,A,31.027669591524244,54.015358733052366,1.5513834795762123,0.848471270883873,B,869,Incorrect
2,relearn,41,848,B,41.22313075648747,28.00143276565322,2.0611565378243735,0.4398454773328234,B,788,Correct
2,relearn,41,849,B,59.639086005416374,42.488504520560355,2.981954300270819,0.6674078683190457,B,791,Correct
2,relearn,41,850,A,35.451805635456004,46.29952393255095,1.7725902817728,0.7272712212560342,A,699,Correct
2,relearn,41,851,A,42.00193884893119,59.08098771335776,2.1000969424465596,0.9280419848355679,A,594,Correct
2,relearn,41,852,A,23.11497116954403,46.88001878382276,1.1557485584772016,0.7363896130570455,A,572,Correct
2,relearn,41,853,A,23.947091333073807,49.16653093661121,1.1973545666536904,0.7723060619647655,A,714,Correct
2,relearn,41,854,B,51.55916188379358,33.10362965228378,2.577958094189679,0.5199905986138599,B,582,Correct
2,relearn,41,855,A,31.715137492244168,61.23924051354714,1.5857568746122084,0.9619437405438906,A,681,Correct
2,relearn,41,856,B,60.58941257648244,50.32787556656078,3.029470628824122,0.790548420753443,B,1026,Correct
2,relearn,41,857,B,77.91977410604633,52.303489971088275,3.895988705302317,0.8215812992513917,B,947,Correct
2,relearn,41,858,B,51.65272381446215,21.733314302503903,2.5826361907231075,0.34138610275452125,B,556,Correct
2,relearn,41,859,A,36.199530898030446,65.39552660638687,1.8099765449015224,1.0272305298213043,A,701,Correct
2,relearn,41,860,B,58.120703790315595,37.36662639350679,2.90603518951578,0.586953594836377,B,578,Correct
2,relearn,41,861,B,57.89149366808443,34.4419873506935,2.8945746834042216,0.5410134721798564,B,778,Correct
2,relearn,41,862,B,44.13643173338046,34.68227729341465,2.206821586669023,0.5447879377737779,B,519,Correct
2,relearn,41,863,A,19.956860161557803,49.474232142035724,0.9978430080778901,0.7771394211970772,A,713,Correct
2,relearn,41,864,A,21.97659534819816,41.42276458992477,1.098829767409908,0.6506672646354353,A,599,Correct
2,relearn,41,865,A,15.386463812329783,42.423542416994465,0.7693231906164891,0.6663874459824239,B,549,Incorrect
2,relearn,41,866,B,54.225761979999774,34.84429839040972,2.711288098999989,0.5473329592140092,B,542,Correct
2,relearn,41,867,B,66.4439237922812,57.94676985087594,3.32219618961406,0.9102257323138518,B,2408,Correct
2,relearn,41,868,B,42.310496377826134,34.28933768312122,2.1155248188913065,0.5386156568087663,B,955,Correct
2,relearn,41,869,A,34.31851469244773,48.76996298297556,1.7159257346223864,0.7660767871158108,B,3008,Incorrect
2,relearn,41,870,B,46.90296517374453,16.68150611838532,2.3451482586872263,0.26203248536166257,B,684,Correct
2,relearn,41,871,B,60.69701349490736,45.04003558760632,3.0348506747453676,0.7074872245972343,B,538,Correct
2,relearn,41,872,B,47.48045304983679,31.106216429185963,2.3740226524918397,0.4886153050745237,B,683,Correct
2,relearn,41,873,A,47.04081115799744,71.93855047699758,2.3520405578998718,1.1300081084421705,A,788,Correct
2,relearn,41,874,A,30.263008197007252,57.205811483796836,1.5131504098503625,0.8985867855006939,B,547,Incorrect
2,relearn,41,875,A,65.68313428407917,77.9716342093282,3.284156714203959,1.2247755661020805,B,776,Incorrect
2,relearn,41,876,B,35.16390916828047,12.632851515783582,1.7581954584140234,0.19843636757938193,B,725,Correct
2,relearn,41,877,A,50.730490286907745,61.62818729484219,2.536524514345387,0.9680533022976604,A,745,Correct
2,relearn,41,878,B,47.2447339780604,19.454185024880296,2.36223669890302,0.30558562377870246,B,664,Correct
2,relearn,41,879,B,85.90919734016055,57.292711187518904,4.295459867008027,0.8999518028547557,B,623,Correct
2,relearn,41,880,A,17.537561518258112,31.562501395734433,0.8768780759129057,0.4957826125687844,A,742,Correct
2,relearn,41,881,B,35.7836579357183,15.999916427332309,1.7891828967859151,0.25132609953078916,B,630,Correct
2,relearn,41,882,B,49.87417311084435,30.188393678677084,2.4937086555422177,0.47419817902304234,B,1654,Correct
2,relearn,41,883,A,34.50611319005079,50.734904141931736,1.7253056595025396,0.7969420106643756,A,925,Correct
2,relearn,41,884,A,40.59009449805657,53.55612291260405,2.0295047249028286,0.8412576114849444,B,373,Incorrect
2,relearn,41,885,A,29.05279838674582,52.64623892081922,1.452639919337291,0.8269651871638934,A,3576,Correct
2,relearn,41,886,B,47.528556092290515,28.11675222590962,2.3764278046145257,0.4416569111786107,B,256,Correct
2,relearn,41,887,B,62.92847923451776,36.72407205889539,3.1464239617258882,0.5768603749506398,B,621,Correct
2,relearn,41,888,A,45.35346762158922,64.3450466973518,2.267673381079461,1.010729629996463,A,836,Correct
2,relearn,41,889,B,81.67843124411704,53.55106962833397,4.083921562205852,0.8411782346812474,B,368,Correct
2,relearn,41,890,A,42.60217962488987,57.83946948217855,2.1301089812444935,0.9085402620637157,B,480,Incorrect
2,relearn,41,891,B,38.14583984791877,16.44195171480621,1.9072919923959386,0.2582695735895664,B,592,Correct
2,relearn,41,892,B,42.31209135028881,30.136104030545997,2.1156045675144406,0.4733768151509053,B,544,Correct
2,relearn,41,893,A,55.506487421516795,80.86570051448089,2.7753243710758397,1.2702354533184275,A,595,Correct
2,relearn,41,894,A,31.510308495045024,58.45771721944494,1.5755154247522511,0.9182516748111887,B,669,Incorrect
2,relearn,41,895,B,36.34769518993876,25.093189489461295,1.817384759496938,0.39416289877614114,B,671,Correct
2,relearn,41,896,A,37.45001019392811,57.81904442366147,1.8725005096964054,0.9082194259947839,A,711,Correct
2,relearn,41,897,A,54.75520215182416,76.99991888064142,2.7377601075912077,1.2095118974121652,A,782,Correct
2,relearn,41,898,B,68.34169396418491,41.78714044334489,3.4170846982092455,0.6563908671566862,B,526,Correct
