experiment,condition,subject,trial,cat,x,y,xt,yt,resp,rt,fb
1,new_learn,36,0,B,48.73067758817752,36.850601866157916,2.436533879408876,0.5788479005154201,A,3051,Incorrect
1,new_learn,36,1,B,78.04873903542115,59.67785509084563,3.9024369517710573,0.9374175556769845,B,4005,Correct
1,new_learn,36,2,A,21.694500892472778,53.03168186715708,1.084725044623639,0.8330197108068588,B,3419,Incorrect
1,new_learn,36,3,B,61.19905785005046,43.48792774046162,3.059952892502523,0.6831067715463901,B,4819,Correct
1,new_learn,36,4,B,82.226891957438,56.51761098914827,4.1113445978719,0.8877765574097699,A,1603,Incorrect
1,new_learn,36,5,A,42.82314673356842,60.98206591978005,2.141157336678421,0.9579040514715476,A,1327,Correct
1,new_learn,36,6,A,29.1240518876512,55.68727429223169,1.45620259438256,0.8747336590745741,A,1145,Correct
1,new_learn,36,7,B,66.13951085878931,46.39301168503667,3.3069755429394654,0.7287397234380831,B,887,Correct
1,new_learn,36,8,A,51.92259639369007,80.00265266352264,2.5961298196845037,1.2566787293770931,B,2594,Incorrect
1,new_learn,36,9,B,60.244139853408484,37.55913807077973,3.012206992670424,0.5899775611916316,B,1013,Correct
1,new_learn,36,10,B,78.5130499081094,59.90208619318099,3.92565249540547,0.9409397695959999,A,1697,Incorrect
1,new_learn,36,11,B,47.1301311801852,24.82628994856541,2.35650655900926,0.389970450591516,A,2281,Incorrect
1,new_learn,36,12,A,37.32896451996971,55.00928361819545,1.8664482259984854,0.8640838064708009,A,1034,Correct
1,new_learn,36,13,A,26.12452485560619,55.17006115966509,1.3062262427803093,0.8666092941865172,B,2818,Incorrect
1,new_learn,36,14,B,82.97155604041225,68.55383292849216,4.148577802020612,1.076841089517865,A,1387,Incorrect
1,new_learn,36,15,B,65.48880731990403,38.488415793342405,3.2744403659952015,0.6045746215233693,A,1205,Incorrect
1,new_learn,36,16,A,46.31028804772065,68.31284429251485,2.3155144023860323,1.0730556488759404,A,537,Correct
1,new_learn,36,17,B,58.069460828344546,50.300047959525756,2.903473041417227,0.790111305724302,B,789,Correct
1,new_learn,36,18,A,37.35672921428133,45.217149347459646,1.8678364607140665,0.7102693210312586,A,1608,Correct
1,new_learn,36,19,B,73.44358829582583,54.33222620009194,3.672179414791292,0.8534486134169386,B,952,Correct
1,new_learn,36,20,B,50.50549152397864,33.165163202462075,2.525274576198932,0.520957165359807,A,766,Incorrect
1,new_learn,36,21,A,21.994867418110044,51.678666445439156,1.0997433709055022,0.8117665942615448,A,1295,Correct
1,new_learn,36,22,A,61.498088720410664,79.26146823565242,3.0749044360205335,1.245036231609332,B,918,Incorrect
1,new_learn,36,23,B,54.06885277051233,46.26468351862231,2.7034426385256167,0.7267239493138032,A,1383,Incorrect
1,new_learn,36,24,B,89.37796641637102,64.78744410284982,4.468898320818551,1.0176787921918617,A,772,Incorrect
1,new_learn,36,25,B,52.74978575211682,23.51707665104403,2.6374892876058413,0.36940537620413993,A,790,Incorrect
1,new_learn,36,26,A,45.11461204074123,57.78265864662947,2.2557306020370613,0.9076478795456895,A,438,Correct
1,new_learn,36,27,A,45.96022476197186,67.88337950551643,2.298011238098593,1.0663096317768919,B,530,Incorrect
1,new_learn,36,28,A,47.98661085644251,58.796328256810554,2.3993305428221254,0.9235705645482502,A,853,Correct
1,new_learn,36,29,A,29.072628114529717,46.62026468753915,1.4536314057264859,0.7323094052539233,B,1464,Incorrect
1,new_learn,36,30,B,56.817843029013275,32.36105302234673,2.8408921514506638,0.5083262321871713,B,1109,Correct
1,new_learn,36,31,B,73.0506786171464,42.91662126816637,3.65253393085732,0.6741327104648347,A,1083,Incorrect
1,new_learn,36,32,A,49.03613483548199,65.16480354456229,2.4518067417740994,1.0236063404410949,A,759,Correct
1,new_learn,36,33,B,67.57329958838459,43.85089845050693,3.3786649794192294,0.6888083021271231,B,1033,Correct
1,new_learn,36,34,B,89.57037848897673,66.51891358700378,4.478518924448837,1.0448766512485268,A,1429,Incorrect
1,new_learn,36,35,A,50.90972870890971,67.32235729820462,2.5454864354454854,1.0574971155519342,A,1060,Correct
1,new_learn,36,36,A,22.995307305893103,54.215991781118525,1.1497653652946551,0.8516228074332327,B,909,Incorrect
1,new_learn,36,37,A,62.26350691133283,74.75768565550291,3.1131753455666415,1.174290980273515,B,881,Incorrect
1,new_learn,36,38,B,40.13764113230059,15.429287140452434,2.006882056615029,0.24236267565286418,A,633,Incorrect
1,new_learn,36,39,B,56.15933807395439,37.21840200517624,2.8079669036977193,0.5846252915890665,A,531,Incorrect
1,new_learn,36,40,A,22.552324334974823,40.487941059335,1.1276162167487411,0.6359830909549169,A,726,Correct
1,new_learn,36,41,A,51.65522855430058,58.751737772358766,2.5827614277150293,0.9228701388563813,B,816,Incorrect
1,new_learn,36,42,A,50.53239587486523,65.7472370808582,2.5266197937432615,1.0327551850352528,A,568,Correct
1,new_learn,36,43,B,52.5157776447236,43.24006512804721,2.6257888822361797,0.6792133547350866,A,890,Incorrect
1,new_learn,36,44,B,62.486100260520764,34.07095588199161,3.124305013026038,0.535185323498234,A,524,Incorrect
1,new_learn,36,45,B,61.042155113061455,31.56390720902649,3.0521077556530725,0.49580469503233765,B,369,Correct
1,new_learn,36,46,A,33.45557260542124,46.013040471045564,1.672778630271062,0.7227711495658329,B,907,Incorrect
1,new_learn,36,47,A,34.31083204034057,49.0995081597808,1.7155416020170287,0.7712532706481974,A,700,Correct
1,new_learn,36,48,A,23.18075704618696,35.85355582641807,1.159037852309348,0.5631863379467326,A,929,Correct
1,new_learn,36,49,A,60.44908753441566,77.05487977311802,3.022454376720783,1.2103752210923615,B,1192,Incorrect
1,new_learn,36,50,A,43.984598604360826,56.18656247512921,2.199229930218041,0.8825764595116493,B,676,Incorrect
1,new_learn,36,51,A,47.141493075574225,78.0783039517303,2.3570746537787115,1.226451130497534,A,911,Correct
1,new_learn,36,52,A,68.24023219721036,81.93008885500927,3.412011609860518,1.2869548262742805,A,4053,Correct
1,new_learn,36,53,A,47.95006075932731,55.43139185094452,2.397503037966365,0.870714267085922,A,1185,Correct
1,new_learn,36,54,B,43.638801599234895,20.392212155228314,2.1819400799617448,0.32032011948654876,B,3901,Correct
1,new_learn,36,55,A,36.625918701875676,62.92693473113697,1.8312959350937836,0.9884539793213214,B,3813,Incorrect
1,new_learn,36,56,B,47.28862586779959,33.52630586729913,2.3644312933899796,0.5266299810735565,A,1187,Incorrect
1,new_learn,36,57,B,57.78220023386076,35.953695024207164,2.889110011693038,0.5647593207872856,A,577,Incorrect
1,new_learn,36,58,A,29.917390278611528,49.52968865095584,1.4958695139305762,0.7780105300021631,B,971,Incorrect
1,new_learn,36,59,A,52.72765035015139,65.90775494429307,2.63638251750757,1.0352765937379373,B,384,Incorrect
1,new_learn,36,60,A,58.081474629698505,73.48076604127716,2.9040737314849254,1.1542331738771334,B,577,Incorrect
1,new_learn,36,61,A,59.27224988224518,82.75793559908143,2.963612494112259,1.2999586125216573,A,772,Correct
1,new_learn,36,62,B,80.61136840627293,51.546793661746015,4.030568420313647,0.8096951414192509,B,1990,Correct
1,new_learn,36,63,A,38.27527505838434,54.20946541435973,1.913763752919217,0.8515202915039124,A,1996,Correct
1,new_learn,36,64,B,33.20298852868901,17.994492381989595,1.6601494264344507,0.28265682536168,B,861,Correct
1,new_learn,36,65,B,58.60714554915897,49.993335626130374,2.930357277457949,0.7852934796575002,A,910,Incorrect
1,new_learn,36,66,A,45.83786113395533,71.98485917278991,2.2918930566977664,1.1307355237346628,A,532,Correct
1,new_learn,36,67,B,64.77977862012018,41.16720071570229,3.238988931006009,0.646652876686534,B,482,Correct
1,new_learn,36,68,B,47.71130708711546,29.694477552019947,2.385565354355773,0.46643976264806447,B,583,Correct
1,new_learn,36,69,A,48.42918662937326,76.39817256783061,2.4214593314686628,1.2000596884339094,A,410,Correct
1,new_learn,36,70,A,62.67068572563791,79.85394313577675,3.133534286281895,1.2543428055776666,B,690,Incorrect
1,new_learn,36,71,B,66.64991647311956,47.90449506325287,3.332495823655978,0.7524820488232187,A,322,Incorrect
1,new_learn,36,72,B,44.82632679020741,31.690306731661778,2.241316339510371,0.4977901740909791,A,409,Incorrect
1,new_learn,36,73,A,36.243462477548135,57.67346920677518,1.8121731238774066,0.9059327358352104,A,214,Correct
1,new_learn,36,74,B,51.66151613475332,35.85572730937719,2.583075806737666,0.5632204475212914,B,983,Correct
1,new_learn,36,75,B,64.27230798059766,53.9627283483233,3.213615399029883,0.8476445547337708,B,1197,Correct
1,new_learn,36,76,B,61.93708279737696,36.99587873347957,3.0968541398688476,0.5811299042109914,A,960,Incorrect
1,new_learn,36,77,B,70.09711210121422,50.69937433562183,3.5048556050607114,0.7963839097719423,B,938,Correct
1,new_learn,36,78,B,47.24156870830862,36.898859725506405,2.362078435415431,0.579605933197456,A,742,Incorrect
1,new_learn,36,79,B,53.4113420607247,34.9380593730754,2.6705671030362352,0.5488057532856885,B,217,Correct
1,new_learn,36,80,B,79.54439546969813,52.39854361220415,3.9772197734849066,0.8230743983545247,B,771,Correct
1,new_learn,36,81,B,51.48055888277114,32.23221233551139,2.574027944138557,0.5063024074109445,A,1129,Incorrect
1,new_learn,36,82,A,45.03686147324935,62.25687822792615,2.2518430736624677,0.9779287563814356,B,394,Incorrect
1,new_learn,36,83,A,63.92478105758673,86.74913309994258,3.1962390528793367,1.362652196260314,B,483,Incorrect
1,new_learn,36,84,B,76.75495709982076,59.1244796376217,3.837747854991038,0.9287251543843581,A,859,Incorrect
1,new_learn,36,85,A,57.68103134182489,68.5231856854972,2.8840515670912446,1.0763596837506364,A,598,Correct
1,new_learn,36,86,A,26.160420610401268,38.42178435943551,1.3080210305200635,0.6035279774070691,B,948,Incorrect
1,new_learn,36,87,A,64.19914951895372,83.95785808594422,3.209957475947686,1.3188069508696838,B,994,Incorrect
1,new_learn,36,88,A,57.627079904532934,78.28194280568705,2.8813539952266467,1.229649882135414,A,562,Correct
1,new_learn,36,89,A,67.46888704122219,86.46715880675866,3.3734443520611093,1.358222954420475,A,894,Correct
1,new_learn,36,90,B,57.96671624552492,45.530016427035115,2.898335812276246,0.7151838256249805,B,868,Correct
1,new_learn,36,91,B,57.97867712822053,47.79342457904723,2.8989338564110265,0.7507373577371632,B,940,Correct
1,new_learn,36,92,A,42.33984802653337,58.96389042780369,2.116992401326668,0.926202624975308,A,1331,Correct
1,new_learn,36,93,A,55.79524988784092,81.64377727271338,2.789762494392046,1.2824574544563883,B,928,Incorrect
1,new_learn,36,94,A,40.135607937347444,66.74413950072392,2.0067803968673723,1.048414491628233,B,734,Incorrect
1,new_learn,36,95,A,56.51813526355336,75.94275349092241,2.825906763177668,1.1929059823023125,B,3848,Incorrect
1,new_learn,36,96,A,18.390348364794434,32.1526057572577,0.9195174182397217,0.5050519502038484,A,1046,Correct
1,new_learn,36,97,A,62.12125334551271,71.57094150739078,3.1060626672756357,1.1242337202506183,A,1526,Correct
1,new_learn,36,98,A,11.430831364531834,31.787099240189,0.5715415682265916,0.49931058725953725,A,672,Correct
1,new_learn,36,99,B,56.66752157553617,43.30475825235658,2.8333760787768085,0.6802295519554269,B,711,Correct
1,new_learn,36,100,A,11.013703082783714,32.10435885903305,0.5506851541391857,0.5042940896987431,A,798,Correct
1,new_learn,36,101,B,53.773226886670436,43.20218513134855,2.6886613443335214,0.678618337138354,B,685,Correct
1,new_learn,36,102,A,25.563630417284152,45.94468369192251,1.2781815208642076,0.7216974037902528,B,562,Incorrect
1,new_learn,36,103,B,66.66718565816203,50.783687273834765,3.333359282908101,0.7977082943084037,B,436,Correct
1,new_learn,36,104,A,58.53124890084288,72.32343173457218,2.9265624450421446,1.1360538090986745,B,754,Incorrect
1,new_learn,36,105,A,33.07959744220935,42.21149230271595,1.6539798721104675,0.6630565705763726,A,767,Correct
1,new_learn,36,106,B,79.28122282565371,63.14820269945402,3.9640611412826856,0.9919296484400195,B,690,Correct
1,new_learn,36,107,B,60.04828504226687,48.01399794211762,3.0024142521133435,0.7542021160221608,A,1100,Incorrect
1,new_learn,36,108,A,18.174283805792008,39.65833939047786,0.9087141902896004,0.6229517384134798,A,529,Correct
1,new_learn,36,109,B,55.82657046729174,28.21830644672346,2.7913285233645873,0.44325212114885965,B,725,Correct
1,new_learn,36,110,B,41.68187438728954,22.68257665502806,2.084093719364477,0.35629708091961754,B,753,Correct
1,new_learn,36,111,B,67.66297826935015,50.796660497018664,3.3831489134675077,0.7979120772216435,A,577,Incorrect
1,new_learn,36,112,A,19.400139898144868,33.36830044925797,0.9700069949072434,0.5241480377708292,B,560,Incorrect
1,new_learn,36,113,B,43.31776073595187,22.72868017017563,2.1658880367975937,0.35702127324207883,A,537,Incorrect
1,new_learn,36,114,B,69.977732755156,53.552067893041816,3.4988866377578,0.84119391538661,A,296,Incorrect
1,new_learn,36,115,B,84.01861402462926,63.0576393676442,4.200930701231463,0.9905070829505277,A,18,Incorrect
1,new_learn,36,116,B,52.99147866497928,36.93410070173826,2.6495739332489645,0.5801594971576327,A,327,Incorrect
1,new_learn,36,117,A,19.06283752916995,40.49279225402664,0.9531418764584976,0.6360592933429389,A,481,Correct
1,new_learn,36,118,B,67.42625541016324,55.63318534633403,3.3713127705081614,0.8738840318992116,B,606,Correct
1,new_learn,36,119,B,65.7620159115254,47.10455789066472,3.2881007955762698,0.7399166650995369,B,443,Correct
1,new_learn,36,120,A,54.356825205884576,83.35379685157012,2.7178412602942283,1.3093183791885437,A,819,Correct
1,new_learn,36,121,B,56.99297724397899,28.54044925342042,2.8496488621989493,0.44831232852348946,B,1308,Correct
1,new_learn,36,122,B,55.05066345784617,36.32754253572656,2.752533172892308,0.5706317037660464,A,904,Incorrect
1,new_learn,36,123,A,55.13926469824757,81.33151383551822,2.7569632349123787,1.2775524318550033,A,3062,Correct
1,new_learn,36,124,B,59.734717962913656,33.592754512923776,2.986735898145683,0.5276737539582335,A,5963,Incorrect
1,new_learn,36,125,A,60.8310462162504,86.68322302348554,3.04155231081252,1.3616168832003388,B,1181,Incorrect
1,new_learn,36,126,B,81.06632944122171,55.66885859646156,4.053316472061085,0.8744443860018631,B,1158,Correct
1,new_learn,36,127,A,30.408962729150943,53.19991221740139,1.520448136457547,0.8356622669690504,A,914,Correct
1,new_learn,36,128,A,36.657723195428886,53.78023113146103,1.8328861597714445,0.8447778951547952,A,698,Correct
1,new_learn,36,129,B,41.43814389129663,33.162165519816156,2.0719071945648317,0.5209100778709159,A,560,Incorrect
1,new_learn,36,130,B,84.1557582302222,55.42212385714936,4.20778791151111,0.8705686857798202,B,884,Correct
1,new_learn,36,131,A,14.006174828603267,41.10871950797544,0.7003087414301633,0.6457342560236952,A,1322,Correct
1,new_learn,36,132,B,59.411894842925854,44.677113082304786,2.970594742146293,0.7017864512148458,A,1020,Incorrect
1,new_learn,36,133,A,29.30254262774988,53.76639670901079,1.465127131387494,0.8445605845551136,B,1644,Incorrect
1,new_learn,36,134,B,39.809736762134996,27.17881658800595,1.99048683810675,0.4269238526307195,A,783,Incorrect
1,new_learn,36,135,B,61.85887739898044,41.8447654942357,3.092943869949022,0.6572960393393927,B,1480,Correct
1,new_learn,36,136,A,62.649871911768045,78.02870621942714,3.1324935955884023,1.2256720511403425,A,958,Correct
1,new_learn,36,137,A,30.5555585610133,44.56224467485202,1.527777928050665,0.6999821024899299,B,1410,Incorrect
1,new_learn,36,138,A,47.04724181726999,54.995951997360876,2.3523620908634997,0.8638743938604291,B,903,Incorrect
1,new_learn,36,139,A,51.048497918397686,63.20687059040654,2.5524248959198843,0.9928512015161097,B,451,Incorrect
1,new_learn,36,140,A,52.01820078886995,67.25363494063126,2.600910039443497,1.0564176272834849,B,356,Incorrect
1,new_learn,36,141,A,49.267410186054065,59.85213574567038,2.4633705093027034,0.9401551498012857,A,477,Correct
1,new_learn,36,142,A,27.71516365484666,44.429159789313786,1.3857581827423329,0.6978916099963761,A,883,Correct
1,new_learn,36,143,A,48.5405362451895,77.21446798243112,2.4270268122594754,1.2128820268222493,A,894,Correct
1,new_learn,36,144,B,61.256085103657504,34.56416866232451,3.062804255182875,0.5429326917349862,B,834,Correct
1,new_learn,36,145,B,53.09066591866872,39.90017142223029,2.654533295933436,0.6267504270852604,B,789,Correct
1,new_learn,36,146,A,24.811524121176753,42.3756271894757,1.2405762060588374,0.6656347953485837,A,617,Correct
1,new_learn,36,147,A,13.755823475234713,40.89221927260579,0.6877911737617356,0.6423334782790067,A,929,Correct
1,new_learn,36,148,B,50.9598844030528,24.626624967393553,2.5479942201526398,0.3868341204013728,B,1234,Correct
1,new_learn,36,149,B,44.424541124511876,24.57981430148991,2.221227056225594,0.3860988201808102,B,736,Correct
1,new_learn,36,150,B,58.88012288411567,27.515515150909458,2.944006144205783,0.432212701289179,B,742,Correct
1,new_learn,36,151,B,48.928749792724915,18.295871818153238,2.4464374896362457,0.2873908824746537,B,649,Correct
1,new_learn,36,152,A,34.68044287201918,64.17537653648853,1.7340221436009589,1.0080644573419557,A,982,Correct
1,new_learn,36,153,B,77.78405114221731,64.86374981353836,3.8892025571108655,1.0188773994924922,A,788,Incorrect
1,new_learn,36,154,B,74.97786029206014,42.22823841141958,3.748893014603007,0.6633196178367704,B,431,Correct
1,new_learn,36,155,A,16.4261545036046,45.568897102368766,0.8213077251802301,0.7157945618449547,A,755,Correct
1,new_learn,36,156,B,38.60287660243364,21.513791611933364,1.930143830121682,0.3379378483945578,A,924,Incorrect
1,new_learn,36,157,A,35.17428209559714,45.133039273207814,1.7587141047798571,0.7089481230744465,B,693,Incorrect
1,new_learn,36,158,B,86.8784900290646,58.98544774095373,4.3439245014532295,0.9265412464584246,B,297,Correct
1,new_learn,36,159,B,53.090752813188715,26.744013430480557,2.6545376406594356,0.42009398060352243,A,1112,Incorrect
1,new_learn,36,160,A,45.52413690937727,53.25864522720249,2.2762068454688635,0.8365848429296223,B,668,Incorrect
1,new_learn,36,161,A,38.88834445819618,48.966438102633184,1.944417222909809,0.7691630110784586,A,557,Correct
1,new_learn,36,162,B,84.59472581954802,58.22583732242903,4.2297362909774,0.9146093139062872,B,837,Correct
1,new_learn,36,163,B,80.88918985911144,63.11460518472043,4.044459492955571,0.99140189991269,B,990,Correct
1,new_learn,36,164,A,55.84079011829964,78.8864621410663,2.792039505914982,1.2391456496503161,A,1137,Correct
1,new_learn,36,165,B,64.47035993984822,55.979878226319464,3.223517996992411,0.8793298709232823,A,872,Incorrect
1,new_learn,36,166,A,50.572236454185344,73.40536907533712,2.528611822709267,1.1530488411056323,A,780,Correct
1,new_learn,36,167,B,67.75103370190645,40.64500600219214,3.387551685095323,0.6384502613079994,B,1287,Correct
1,new_learn,36,168,B,35.36757828567538,13.55077786031573,1.7683789142837691,0.21285512088197553,B,966,Correct
1,new_learn,36,169,B,66.87516884561396,39.83338174719259,3.343758442280698,0.62570129732309,B,556,Correct
1,new_learn,36,170,A,23.836597064354226,55.0322591893973,1.1918298532177112,0.8644447058992997,A,703,Correct
1,new_learn,36,171,A,17.22384895119478,35.869354836380026,0.861192447559739,0.563434508214885,A,550,Correct
1,new_learn,36,172,B,71.23506960552103,41.59387110148158,3.5617534802760518,0.6533549994338766,B,814,Correct
1,new_learn,36,173,A,32.67999040679101,63.62611838548092,1.6339995203395505,0.9994367304813067,A,643,Correct
1,new_learn,36,174,B,59.40510177023739,42.739894515104204,2.9702550885118693,0.6713566931192703,B,582,Correct
1,new_learn,36,175,A,19.073918277979445,42.52722493236287,0.9536959138989722,0.6680160871253593,A,707,Correct
1,new_learn,36,176,B,54.39273717007819,38.46518728464047,2.7196368585039097,0.6042097489619102,B,522,Correct
1,new_learn,36,177,B,70.76382956574245,45.65631727214265,3.538191478287123,0.7171677546606406,A,450,Incorrect
1,new_learn,36,178,A,25.41601223960511,58.29217433331994,1.2708006119802555,0.9156513332366671,A,498,Correct
1,new_learn,36,179,B,76.73604825385746,50.529950200948164,3.8368024126928733,0.7937226016877842,B,1224,Correct
1,new_learn,36,180,A,49.28828824461207,76.17144123087013,2.4644144122306035,1.1964982009212413,B,978,Incorrect
1,new_learn,36,181,A,23.299193972786338,40.399233476356855,1.164959698639317,0.6345896754999077,A,633,Correct
1,new_learn,36,182,B,48.92356012344509,21.225680844123353,2.446178006172255,0.3334122150366976,B,911,Correct
1,new_learn,36,183,B,80.77162884592106,65.59272254122125,4.038581442296053,1.0303280763222715,B,903,Correct
1,new_learn,36,184,B,46.09027497953413,19.36589712395011,2.3045137489767065,0.3041988006738868,A,1855,Incorrect
1,new_learn,36,185,B,39.3947276263223,20.908976291421034,1.9697363813161148,0.3284374315560574,B,947,Correct
1,new_learn,36,186,A,65.43810063693097,81.13991249584072,3.271905031846549,1.2745427650492591,B,904,Incorrect
1,new_learn,36,187,B,64.92191328288165,38.57495161411891,3.2460956641440823,0.6059339230174885,A,691,Incorrect
1,new_learn,36,188,A,56.31343811859557,70.50229850755483,2.8156719059297783,1.1074475152626444,A,573,Correct
1,new_learn,36,189,A,55.53741170356599,70.74641197633082,2.7768705851782998,1.1112820406633892,A,870,Correct
1,new_learn,36,190,A,52.61863059763622,82.69083115239387,2.630931529881811,1.2989045383379731,A,666,Correct
1,new_learn,36,191,B,36.01035519223085,11.94996464172932,1.8005177596115425,0.1877096056455731,B,1126,Correct
1,new_learn,36,192,A,29.268944457627114,55.960456723505146,1.4634472228813558,0.8790247986704666,A,906,Correct
1,new_learn,36,193,A,66.50372579433927,82.0038871395725,3.3251862897169637,1.2881140470174375,A,1219,Correct
1,new_learn,36,194,B,69.2406643628037,42.03129350012673,3.4620332181401854,0.6602260144043727,A,770,Incorrect
1,new_learn,36,195,B,51.32831273217738,25.262525121035296,2.566415636608869,0.3968228166568605,B,692,Correct
1,new_learn,36,196,A,40.78066581282489,55.02285219418667,2.0390332906412447,0.8642969411640694,A,1733,Correct
1,new_learn,36,197,A,29.283603236712384,48.95655976179356,1.4641801618356192,0.7690078424634016,A,801,Correct
1,new_learn,36,198,A,53.436066859150344,78.01598461904871,2.671803342957517,1.2254722207088886,B,613,Incorrect
1,new_learn,36,199,B,67.31478412956913,39.71827100198419,3.365739206478457,0.6238931419656103,B,757,Correct
1,new_learn,36,200,A,63.14811867356073,84.33011291024745,3.1574059336780365,1.324654315976156,A,963,Correct
1,new_learn,36,201,A,52.47272147553429,62.28808388150033,2.623636073776715,0.9784189336415312,B,5299,Incorrect
1,new_learn,36,202,A,16.49291581530587,34.62699499034365,0.8246457907652937,0.5439195653877709,A,610,Correct
1,new_learn,36,203,B,69.9919831428023,53.21935532644656,3.4995991571401146,0.8359676786117466,A,968,Incorrect
1,new_learn,36,204,B,65.24343171846171,52.78261982180408,3.262171585923085,0.8291074533470134,B,570,Correct
1,new_learn,36,205,B,74.54302254383425,55.73414417277894,3.7271511271917124,0.8754698894365833,B,891,Correct
1,new_learn,36,206,A,35.06631723416525,42.97885679176329,1.7533158617082623,0.6751103037834566,A,842,Correct
1,new_learn,36,207,A,65.00612379520433,86.86611858942706,3.250306189760216,1.3644898000320191,A,1569,Correct
1,new_learn,36,208,B,43.678588196263206,27.01578494386637,2.1839294098131603,0.4243629575530617,B,1181,Correct
1,new_learn,36,209,B,78.56928854617863,64.20403715181396,3.9284644273089318,1.0085146572347246,A,795,Incorrect
1,new_learn,36,210,A,23.83259550265202,54.671267194837334,1.191629775132601,0.8587742569087281,A,422,Correct
1,new_learn,36,211,B,60.510606146312725,44.873289794907905,3.0255303073156363,0.7048679878104426,A,619,Incorrect
1,new_learn,36,212,A,25.95764813375825,48.29536724003647,1.2978824066879124,0.7586218546185987,A,793,Correct
1,new_learn,36,213,A,47.460014444548214,68.70126334547805,2.373000722227411,1.079156921092458,B,556,Incorrect
1,new_learn,36,214,B,66.41464435679585,43.26638116448794,3.3207322178397924,0.6796267260688555,A,586,Incorrect
1,new_learn,36,215,A,40.9309630463985,50.84007411316635,2.046548152319925,0.7985940167094201,A,1070,Correct
1,new_learn,36,216,A,26.217926160471528,50.61173762639524,1.3108963080235765,0.795007315562487,A,1238,Correct
1,new_learn,36,217,B,36.56247412255958,18.911504400228228,1.8281237061279791,0.29706121646044026,A,929,Incorrect
1,new_learn,36,218,B,73.10964223831331,56.9767362079849,3.6554821119156657,0.8949884794826447,A,679,Incorrect
1,new_learn,36,219,A,25.557496867872935,39.953556386683346,1.2778748433936469,0.6275889961459498,A,597,Correct
1,new_learn,36,220,A,62.5233941032445,71.71602487049654,3.126169705162225,1.126512684389074,B,857,Incorrect
1,new_learn,36,221,B,74.34805516088127,58.63837812387827,3.7174027580440634,0.9210894896619821,A,1043,Incorrect
1,new_learn,36,222,A,24.240374465247097,48.2933097924458,1.212018723262355,0.7585895363074188,A,519,Correct
1,new_learn,36,223,A,63.61663635293543,80.16066120436355,3.180831817646771,1.2591607217326444,A,2173,Correct
1,new_learn,36,224,A,59.510477517621496,79.01135989387481,2.9755238758810747,1.2411075389636816,A,1324,Correct
1,new_learn,36,225,B,32.527350725613346,12.885862184575753,1.6263675362806673,0.20241064987116855,B,1225,Correct
1,new_learn,36,226,A,41.62362316618994,61.51503644359839,2.0811811583094966,0.9662759328825855,B,1143,Incorrect
1,new_learn,36,227,A,27.089000971703655,59.269133256474795,1.3544500485851827,0.9309973681158785,A,2929,Correct
1,new_learn,36,228,A,27.48224235076585,57.456460444538514,1.3741121175382927,0.9025239701691737,B,4355,Incorrect
1,new_learn,36,229,A,39.36867016809457,65.96275729898537,1.9684335084047284,1.0361405687050946,A,958,Correct
1,new_learn,36,230,A,40.7722940017363,67.56336264582701,2.038614700086815,1.061282818699766,A,981,Correct
1,new_learn,36,231,B,42.50147521671963,30.6520862503774,2.1250737608359818,0.4814818449069317,B,997,Correct
1,new_learn,36,232,A,50.5683522567172,68.36287104223004,2.52841761283586,1.0738414672228815,A,687,Correct
1,new_learn,36,233,B,62.587819580007846,45.58399926355071,3.129390979000392,0.7160317860380673,B,1075,Correct
1,new_learn,36,234,B,59.581257189363285,45.09687116013363,2.979062859468164,0.7083799956828062,B,534,Correct
1,new_learn,36,235,B,48.46158878247712,40.695811566884416,2.423079439123856,0.639248313251993,B,748,Correct
1,new_learn,36,236,A,42.21973218408239,56.77617716399116,2.110986609204119,0.8918381053865361,B,800,Incorrect
1,new_learn,36,237,A,18.02465020557185,41.531325027620326,0.9012325102785924,0.6523725280031096,A,484,Correct
1,new_learn,36,238,B,38.46435446071489,21.960245380670823,1.9232177230357446,0.34495072779472324,A,754,Incorrect
1,new_learn,36,239,B,65.38096830841859,50.40883974632122,3.2690484154209294,0.7918202031151396,B,822,Correct
1,new_learn,36,240,A,23.79865453278584,51.23008690008713,1.1899327266392918,0.804720323240402,A,898,Correct
1,new_learn,36,241,A,69.25331542231925,85.22513037440663,3.4626657711159625,1.338713217427341,A,1921,Correct
1,new_learn,36,242,B,86.06205612994631,65.71548872986872,4.303102806497316,1.0322564831040921,A,837,Incorrect
1,new_learn,36,243,A,36.66157302760815,53.000850939325886,1.8330786513804074,0.8325354197249695,A,918,Correct
1,new_learn,36,244,B,82.77231503593202,58.55558303094294,4.138615751796602,0.9197889473833876,A,1164,Incorrect
1,new_learn,36,245,A,30.975160932402652,47.8409674850263,1.5487580466201325,0.7514841599579339,A,816,Correct
1,new_learn,36,246,B,36.08460569013842,23.6077348516564,1.8042302845069207,0.3708294318892973,A,681,Incorrect
1,new_learn,36,247,A,28.972537367114732,52.58130489142269,1.4486268683557366,0.825945205815293,A,787,Correct
1,new_learn,36,248,B,50.777230991504155,37.01992001830462,2.538861549575208,0.5815075438299375,B,976,Correct
1,new_learn,36,249,A,38.90650842952346,69.95366730864136,1.945325421476173,1.0988296365424608,B,1043,Incorrect
1,new_learn,36,250,B,56.02405806368221,37.8229053607689,2.8012029031841106,0.594120808094068,A,862,Incorrect
1,new_learn,36,251,A,31.550608806170523,63.48303590321571,1.577530440308526,0.9971891961055976,B,1480,Incorrect
1,new_learn,36,252,A,35.54201753763935,62.20431282079999,1.7771008768819678,0.9771030608971332,B,470,Incorrect
1,new_learn,36,253,A,66.11523091739053,84.15420452866667,3.305761545869527,1.3218911535797606,B,551,Incorrect
1,new_learn,36,254,A,44.10350793772545,75.87825086357797,2.205175396886273,1.1918927774012997,B,761,Incorrect
1,new_learn,36,255,B,60.154644321286455,34.64597814291613,3.0077322160643227,0.5442177520510892,A,682,Incorrect
1,new_learn,36,256,B,73.26174466402571,43.90214794338049,3.663087233201286,0.689613327278682,B,583,Correct
1,new_learn,36,257,A,15.462952889174549,30.586991133367587,0.7731476444587274,0.4804593332000187,A,751,Correct
1,new_learn,36,258,B,53.30987782717117,43.54733864871393,2.6654938913585586,0.6840399959109328,A,1055,Incorrect
1,new_learn,36,259,B,80.2242706782716,54.37312037554594,4.01121353391358,0.854090977622843,A,1207,Incorrect
1,new_learn,36,260,A,24.149232406429526,40.16870284460647,1.2074616203214763,0.6309685088042356,A,567,Correct
1,new_learn,36,261,B,42.27249030755263,28.87997124695988,2.1136245153776314,0.4536455275266681,B,1361,Correct
1,new_learn,36,262,A,25.28502592993605,44.70660053113691,1.2642512964968027,0.7022496389779663,A,969,Correct
1,new_learn,36,263,A,44.42670127944632,74.50445327914453,2.221335063972316,1.170313215407422,A,929,Correct
1,new_learn,36,264,B,52.359789612852126,40.294255734593115,2.6179894806426063,0.6329406889883306,A,1281,Incorrect
1,new_learn,36,265,A,25.797491149403474,56.62349578384946,1.2898745574701738,0.8894397918755703,A,831,Correct
1,new_learn,36,266,A,12.345546763402044,35.42026198945905,0.6172773381701022,0.5563801742715516,A,927,Correct
1,new_learn,36,267,B,40.323879895183396,22.094654688364507,2.0161939947591696,0.34706202426284605,B,1000,Correct
1,new_learn,36,268,B,72.30872899650407,45.74785257454064,3.615436449825204,0.7186055878284289,A,924,Incorrect
1,new_learn,36,269,A,20.39046013170664,49.89503779401363,1.019523006585332,0.7837494209212914,A,889,Correct
1,new_learn,36,270,A,25.503136106131848,46.02698158845253,1.2751568053065925,0.7229901361259757,A,907,Correct
1,new_learn,36,271,A,39.36817932392429,47.61634263763344,1.9684089661962145,0.7479557611060181,B,1027,Incorrect
1,new_learn,36,272,A,54.572950218341695,68.01271130140145,2.7286475109170847,1.0683411708760315,A,1298,Correct
1,new_learn,36,273,A,27.90624290912467,55.69161069671179,1.3953121454562336,0.8748017751568626,A,1004,Correct
1,new_learn,36,274,B,44.06993433046315,31.94137505114683,2.2034967165231576,0.5017339460311959,A,931,Incorrect
1,new_learn,36,275,A,52.863882850986236,66.42571469622749,2.6431941425493117,1.043412686495599,B,2178,Incorrect
1,new_learn,36,276,B,61.37137171091263,33.58444445130715,3.068568585545632,0.5275432198156053,B,363,Correct
1,new_learn,36,277,A,31.581752675289422,60.170727830264134,1.579087633764471,0.9451595825635435,A,1005,Correct
1,new_learn,36,278,B,67.58620180011181,44.63608377317067,3.3793100900055904,0.7011419643340577,B,836,Correct
1,new_learn,36,279,B,51.32015937810359,38.78273430661273,2.566007968905179,0.609197765918897,A,610,Incorrect
1,new_learn,36,280,B,55.81326787117402,33.27693741576071,2.790663393558701,0.5227129105966059,A,439,Incorrect
1,new_learn,36,281,B,63.62400934981319,36.684453953243256,3.18120046749066,0.5762380552023103,A,531,Incorrect
1,new_learn,36,282,A,18.19275661827367,46.02200339388736,0.9096378309136836,0.7229119388286053,A,573,Correct
1,new_learn,36,283,B,57.56945580006032,27.6464011902086,2.878472790003016,0.43426865438677725,B,947,Correct
1,new_learn,36,284,B,61.051586436177395,42.480135686736226,3.05257932180887,0.6672764109847407,B,4137,Correct
1,new_learn,36,285,A,36.42094567843807,53.51601160841092,1.8210472839219036,0.8406275445920491,B,3294,Incorrect
1,new_learn,36,286,B,82.01168922316361,56.84399197037705,4.1005844611581805,0.8929033378742688,A,478,Incorrect
1,new_learn,36,287,B,65.14368018196804,52.07811373444966,3.2571840090984017,0.8180410976048039,B,1288,Correct
1,new_learn,36,288,A,28.795328719279503,50.789280375541,1.439766435963975,0.7977961505445592,B,899,Incorrect
1,new_learn,36,289,B,57.62161436084911,40.31423583803413,2.881080718042455,0.6332545357192719,B,629,Correct
1,new_learn,36,290,B,60.48207431428634,27.831938540439488,3.024103715714317,0.43718306826903663,A,1420,Incorrect
1,new_learn,36,291,B,63.370611767099604,54.57625145828534,3.1685305883549804,0.8572817532090925,B,773,Correct
1,new_learn,36,292,A,38.480618529186664,57.399688413167276,1.9240309264593334,0.9016321971857473,B,661,Incorrect
1,new_learn,36,293,A,66.85480590929811,79.56954748059779,3.342740295464905,1.2498755290725514,A,478,Correct
1,new_learn,36,294,B,64.31642306981517,40.08491829797537,3.215821153490759,0.6296524242233326,A,982,Incorrect
1,new_learn,36,295,B,69.48320671172712,47.96732059299191,3.474160335586356,0.7534689099366488,A,583,Incorrect
1,new_learn,36,296,B,82.19709587077159,67.3532822108813,4.109854793538579,1.057982882944324,A,442,Incorrect
1,new_learn,36,297,A,40.38471050042808,51.0468675081907,2.019235525021404,0.8018423197625171,A,325,Correct
1,new_learn,36,298,B,53.86702093909567,41.360767721079156,2.693351046954783,0.6496934200968807,B,1033,Correct
1,new_learn,36,299,A,22.85859929268056,49.33833655548434,1.142929964634028,0.7750047783152516,A,864,Correct
1,new_learn,36,300,B,79.54129664507035,60.89171802501442,3.9770648322535176,0.9564848700592323,B,839,Incorrect
1,new_learn,36,301,B,83.5582331377544,60.36167872757079,4.17791165688772,0.9481590322444183,A,295,Correct
1,new_learn,36,302,B,33.54471110918128,22.02742920664451,1.6772355554590639,0.34600604886531816,B,1700,Correct
1,new_learn,36,303,A,27.643653717664343,47.56216460877752,1.3821826858832171,0.7471047346188195,A,1267,Correct
1,new_learn,36,304,A,27.290189268766664,38.47278159193766,1.3645094634383332,0.60432904006198,A,1061,Correct
1,new_learn,36,305,A,21.695751427210418,47.34903910880666,1.0847875713605208,0.743756967093814,A,770,Incorrect
1,new_learn,36,306,A,49.821454439559844,68.22896870061835,2.491072721977992,1.0717381341593528,B,1629,Incorrect
1,new_learn,36,307,A,44.806857041855125,64.58395855044846,2.2403428520927564,1.014482448609183,B,440,Correct
1,new_learn,36,308,A,13.617501065408408,33.35314198541856,0.6808750532704204,0.5239099291776411,A,688,Incorrect
1,new_learn,36,309,A,25.991273721042635,38.73171749924316,1.2995636860521318,0.6083963957826877,B,913,Correct
1,new_learn,36,310,A,44.641058993345524,66.81507113519613,2.2320529496672763,1.049528683137058,B,1051,Incorrect
1,new_learn,36,311,A,15.012660258930218,30.791202280543388,0.750633012946511,0.48366707439876194,A,2400,Correct
1,new_learn,36,312,B,65.70843138281887,38.21281260126656,3.285421569140943,0.6002454567057126,B,726,Incorrect
1,new_learn,36,313,B,51.00797585063085,42.831731711599765,2.5503987925315426,0.6727992684284541,A,533,Incorrect
1,new_learn,36,314,B,64.21359060920359,34.80080346245524,3.2106795304601796,0.5466497424833582,A,593,Incorrect
1,new_learn,36,315,A,54.261892750031365,83.88455976924658,2.7130946375015683,1.3176555836033947,A,322,Correct
1,new_learn,36,316,B,76.55823409749101,64.64093435588477,3.82791170487455,1.0153774224681382,B,472,Incorrect
1,new_learn,36,317,A,13.754552990222209,33.00230951480849,0.6877276495111104,0.5183990656160945,A,713,Correct
1,new_learn,36,318,A,46.53610672501328,66.12948935114392,2.326805336250664,1.038759589655991,B,740,Correct
1,new_learn,36,319,B,75.27008280171741,61.40555170345756,3.7635041400858706,0.9645561506060525,A,899,Incorrect
1,new_learn,36,320,B,62.2858822671938,53.95543996580883,3.11429411335969,0.8475300690889507,A,990,Incorrect
1,new_learn,36,321,A,46.40112525318005,77.80842358188018,2.3200562626590027,1.2222118595611877,A,704,Incorrect
1,new_learn,36,322,B,68.63443654939896,48.25629425539067,3.431721827469948,0.7580080976110133,A,536,Correct
1,new_learn,36,323,B,42.278697786541684,34.13334167471717,2.113934889327084,0.536165277238809,B,1122,Correct
1,new_learn,36,324,B,82.14440382397314,58.63290672004034,4.107220191198657,0.9210035450514718,B,796,Incorrect
1,new_learn,36,325,A,18.759844440709124,45.41649776430641,0.9379922220354561,0.7134006786406115,A,421,Correct
1,new_learn,36,326,A,59.34663007698039,71.04504390801839,2.967331503849019,1.1159729400769742,B,1987,Incorrect
1,new_learn,36,327,A,45.668071418612485,67.96221445838766,2.2834035709306244,1.0675479683208235,A,576,Incorrect
1,new_learn,36,328,B,53.60278839707521,31.084099319630496,2.6801394198537607,0.4882678903300333,A,1094,Incorrect
1,new_learn,36,329,A,45.48365950015769,63.201643717933756,2.274182975007885,0.9927690979953009,B,4519,Correct
1,new_learn,36,330,A,45.68943357285771,70.0718640118845,2.2844716786428854,1.1006862660153967,A,745,Incorrect
1,new_learn,36,331,B,39.62586967994267,22.374490510689462,1.9812934839971335,0.35145767508098275,B,744,Incorrect
1,new_learn,36,332,B,51.50168078064119,43.96609300029812,2.5750840390320593,0.690617773883911,A,1283,Incorrect
1,new_learn,36,333,B,50.1493961680013,35.26192203238334,2.5074698084000655,0.5538929760419579,A,284,Incorrect
1,new_learn,36,334,B,80.76558101481262,60.81217069918998,4.0382790507406305,0.9552353435871185,A,361,Incorrect
1,new_learn,36,335,B,68.28111012487125,40.84985728788735,3.4140555062435625,0.641668057779092,B,2997,Correct
1,new_learn,36,336,A,60.91393297789287,78.78069175772177,3.0456966488946433,1.2374842123539034,B,458,Correct
1,new_learn,36,337,A,19.212119091980178,32.60011475676098,0.960605954599009,0.5120814051301226,A,799,Incorrect
1,new_learn,36,338,B,38.76665969844817,15.326035614300913,1.9383329849224085,0.24074080447271637,A,1339,Incorrect
1,new_learn,36,339,A,29.717746117715322,48.046076849929406,1.485887305885766,0.7547060103277442,A,564,Correct
1,new_learn,36,340,B,71.99688967717728,41.44298965214304,3.5998444838588637,0.650984959169852,B,818,Correct
1,new_learn,36,341,B,43.04321632841901,20.77817800329767,2.1521608164209507,0.32638285685070495,B,909,Incorrect
1,new_learn,36,342,B,52.34920772810981,44.26263573014484,2.6174603864054906,0.6952758561917206,A,674,Incorrect
1,new_learn,36,343,B,79.16796264496602,64.66758018681944,3.958398132248301,1.015795974201704,A,554,Correct
1,new_learn,36,344,B,49.82275656512946,33.32507001184578,2.491137828256473,0.5234689756479011,A,905,Correct
1,new_learn,36,345,B,60.00056112016701,31.74814272559515,3.0000280560083508,0.4986986597592498,A,642,Correct
1,new_learn,36,346,B,36.69899897427783,24.916944712909306,1.8349499487138914,0.39139445229989445,B,950,Incorrect
1,new_learn,36,347,B,84.07992621284296,62.484289007865925,4.2039963106421485,0.9815009165594654,A,420,Correct
1,new_learn,36,348,A,31.468639497855843,45.664709407802434,1.5734319748927923,0.7172995780193242,A,747,Correct
1,new_learn,36,349,A,37.417293488937815,45.690903282376354,1.8708646744468909,0.7177110304389768,A,837,Correct
1,new_learn,36,350,B,46.12947531021722,17.18166383712312,2.306473765510861,0.2698889444357771,A,568,Correct
1,new_learn,36,351,B,54.370986333467584,27.282124134903768,2.7185493166733794,0.4285466037826924,A,756,Correct
1,new_learn,36,352,B,59.59756008018217,49.681075140124705,2.9798780040091084,0.7803885034132914,A,382,Correct
1,new_learn,36,353,B,88.67698471990406,63.66424249491561,4.433849235995202,1.0000355825919303,B,1215,Incorrect
1,new_learn,36,354,A,53.35578403438306,77.42198709468632,2.6677892017191533,1.2161417294149515,A,491,Correct
1,new_learn,36,355,B,75.1096984685696,56.75287377013215,3.7554849234284804,0.8914720565317802,A,372,Incorrect
1,new_learn,36,356,A,35.67692972056256,50.32326554469605,1.783846486028128,0.7904760066993273,B,357,Incorrect
1,new_learn,36,357,A,42.8986785604639,59.006485757883205,2.144933928023195,0.9268717108555832,B,312,Incorrect
1,new_learn,36,358,A,55.86315523031777,85.0894983424989,2.7931577615158885,1.3365827144521771,A,264,Correct
1,new_learn,36,359,A,48.24688114245622,66.5110714693381,2.412344057122811,1.0447534675522914,A,303,Correct
1,new_learn,36,360,A,15.924224988989327,42.65560036256605,0.7962112494494663,0.6700326036674981,A,298,Incorrect
1,new_learn,36,361,A,57.73960339362085,75.58181773402094,2.8869801696810424,1.1872364166908147,A,691,Correct
1,new_learn,36,362,B,44.408208458952224,25.866452145954234,2.2204104229476114,0.40630928018080886,B,372,Incorrect
1,new_learn,36,363,B,47.70745910983318,25.190481830792198,2.385372955491659,0.3956911633000197,B,323,Incorrect
1,new_learn,36,364,B,50.90191346454508,36.08419822170379,2.5450956732272543,0.5668092602199125,A,345,Incorrect
1,new_learn,36,365,B,37.06080241403384,22.65261721872303,1.853040120701692,0.35582647919460964,A,269,Correct
1,new_learn,36,366,A,36.786519846629076,67.92484633191644,1.8393259923314538,1.0669609911628215,B,722,Incorrect
1,new_learn,36,367,A,42.528483004943624,52.859527591160415,2.126424150247181,0.8303155177630827,B,389,Correct
1,new_learn,36,368,A,39.63294169034179,57.51224626256475,1.9816470845170895,0.9034002517496024,B,750,Correct
1,new_learn,36,369,B,75.19909203995518,64.83220814832018,3.7599546019977588,1.018381944173835,B,641,Correct
1,new_learn,36,370,B,80.92102490416096,58.25200598064296,4.046051245208048,0.9150203702282831,B,687,Correct
1,new_learn,36,371,B,61.34880827584194,49.7097442960293,3.067440413792097,0.7808388374611639,B,530,Correct
1,new_learn,36,372,B,35.33640573680417,16.83181375631828,1.7668202868402085,0.26439351221720564,A,1018,Correct
1,new_learn,36,373,B,50.075924521739836,37.87546818960898,2.5037962260869917,0.5949464630787473,B,722,Incorrect
1,new_learn,36,374,B,66.8538063777358,40.972481856789,3.3426903188867896,0.6435942400031471,A,813,Correct
1,new_learn,36,375,B,54.82298034763872,36.02055986247019,2.7411490173819355,0.5658096312106387,A,915,Correct
1,new_learn,36,376,A,51.56612596090347,82.34183738452833,2.5783062980451734,1.2934225570515978,A,429,Correct
1,new_learn,36,377,A,56.845892483894275,79.43655675838826,2.8422946241947136,1.247786515693106,A,1036,Correct
1,new_learn,36,378,B,56.09434315238466,30.07965574938699,2.804717157619233,0.4724901276239207,A,600,Correct
1,new_learn,36,379,A,37.64827202880142,50.353715151901824,1.882413601440071,0.7909543080108392,A,1502,Correct
1,new_learn,36,380,B,82.71655360106989,55.31942776031225,4.135827680053494,0.8689555392629412,A,560,Correct
1,new_learn,36,381,A,34.44012262988714,55.547228718013095,1.7220061314943569,0.8725338283389097,A,1642,Correct
1,new_learn,36,382,A,67.95753836577654,83.59601516195102,3.3978769182888273,1.3131231355108315,A,1550,Correct
1,new_learn,36,383,B,48.595213259837195,32.891556242930136,2.4297606629918596,0.5166593572896241,A,697,Incorrect
1,new_learn,36,384,A,56.202810157858096,75.65935652045482,2.8101405078929047,1.1884543930999594,A,359,Correct
1,new_learn,36,385,B,49.29217894996688,30.55247408416635,2.464608947498344,0.47991714065904767,B,434,Correct
1,new_learn,36,386,A,46.77896708736608,63.130908153072816,2.338948354368304,0.9916579863407277,A,1013,Incorrect
1,new_learn,36,387,A,52.626601584351974,66.12795224947884,2.631330079217599,1.0387354449194968,A,660,Correct
1,new_learn,36,388,B,56.746833124805896,40.52752089948122,2.8373416562402944,0.636604809630085,B,1842,Correct
1,new_learn,36,389,A,41.98458044098155,61.545778191316586,2.0992290220490775,0.9667588231265356,B,503,Correct
1,new_learn,36,390,B,61.95588288385776,29.336461138443546,3.097794144192888,0.4608160539742835,B,897,Incorrect
1,new_learn,36,391,A,30.729463618537807,44.726771269234575,1.5364731809268903,0.7025664801910918,A,2261,Correct
1,new_learn,36,392,B,63.090564476745946,33.58111906704426,3.154528223837297,0.5274909848017519,A,731,Correct
1,new_learn,36,393,A,31.01269105898838,46.70376364237483,1.550634552949419,0.7336210037693943,B,915,Incorrect
1,new_learn,36,394,B,72.87455032760089,42.93284132408538,3.6437275163800447,0.6743874945074146,B,520,Correct
1,new_learn,36,395,B,44.36962182457006,20.23832860324178,2.218481091228503,0.31790292230440276,A,592,Incorrect
1,new_learn,36,396,A,33.62180369200374,66.99545847314481,1.6810901846001869,1.0523622008155589,B,554,Incorrect
1,new_learn,36,397,A,50.43568997551421,77.57949604871862,2.5217844987757103,1.2186158742792643,A,311,Correct
1,new_learn,36,398,B,69.98863385262908,44.00542716404015,3.4994316926314535,0.6912356334831463,A,581,Correct
1,new_learn,36,399,A,18.100889333821886,33.799109172661005,0.9050444666910943,0.530915165373556,B,322,Correct
1,new_learn,36,400,B,55.740335389358535,36.84370013910886,2.7870167694679266,0.5787394884404482,A,502,Correct
1,new_learn,36,401,B,39.986873079710506,14.830726659339991,1.9993436539855254,0.23296050960190406,B,496,Incorrect
1,new_learn,36,402,B,35.78135996722012,25.8881576632646,1.7890679983610058,0.40665022964943187,B,202,Incorrect
1,new_learn,36,403,A,30.05618139640842,48.038201048854944,1.502809069820421,0.7545822975337609,A,272,Correct
1,new_learn,36,404,B,86.40732390051852,62.629927292576106,4.320366195025926,0.9837885973860998,A,437,Incorrect
1,new_learn,36,405,A,43.912466023820905,69.21737866006877,2.1956233011910453,1.087264041496075,A,156,Correct
1,new_learn,36,406,A,43.95543306957965,68.1442671113496,2.1977716534789824,1.0704076447063824,B,376,Incorrect
1,new_learn,36,407,A,37.069044215172106,48.96188057170921,1.8534522107586053,0.7690914215501122,A,335,Incorrect
1,new_learn,36,408,B,60.205639315573926,52.48112948784773,3.010281965778696,0.8243716542555855,A,575,Correct
1,new_learn,36,409,B,44.011466134879434,23.35580180754593,2.200573306743972,0.3668720768864275,A,741,Incorrect
1,new_learn,36,410,B,44.78473380506949,15.365852660537914,2.239236690253475,0.24136624917244545,A,647,Incorrect
1,new_learn,36,411,A,39.536773316208496,58.506063743593906,1.9768386658104249,0.9190111002366539,B,747,Correct
1,new_learn,36,412,A,66.41623718074112,81.11340672863155,3.320811859037056,1.2741264134315489,B,1395,Correct
1,new_learn,36,413,B,50.50099750912375,38.817441637506406,2.5250498754561876,0.6097429473977034,B,712,Incorrect
1,new_learn,36,414,B,68.39416471833792,49.51329703285082,3.419708235916896,0.7777530510670673,B,339,Correct
1,new_learn,36,415,A,21.253530232243037,51.10355370830315,1.062676511612152,0.8027327445116831,A,774,Incorrect
1,new_learn,36,416,A,42.16007099740901,51.17491942608639,2.1080035498704506,0.803853754585213,A,664,Incorrect
1,new_learn,36,417,B,77.10966562916221,44.88352449557439,3.8554832814581106,0.7050287541125702,B,447,Correct
1,new_learn,36,418,A,10.79361540774277,33.435955830649824,0.5396807703871385,0.5252107660166114,A,1889,Correct
1,new_learn,36,419,A,66.76015175031532,83.16031406738769,3.338007587515766,1.3062791587216256,B,752,Correct
1,new_learn,36,420,B,47.972999858117866,30.09701799954081,2.3986499929058933,0.4727628532115859,A,777,Correct
1,new_learn,36,421,B,88.04026968473181,68.15282759206025,4.402013484236591,1.070542112422941,B,599,Incorrect
1,new_learn,36,422,A,43.1795840582197,52.30362707678753,2.158979202910985,0.8215834529026794,A,507,Correct
1,new_learn,36,423,A,33.95316428194418,43.47838945997282,1.697658214097209,0.6829569445868324,A,766,Correct
1,new_learn,36,424,B,67.5747650289273,54.61321051581024,3.378738251446365,0.8578623047271114,A,1440,Incorrect
1,new_learn,36,425,B,71.21158940844883,58.13478929304528,3.5605794704224416,0.9131791348051082,A,531,Correct
1,new_learn,36,426,A,54.637552452104075,77.42825487953412,2.7318776226052033,1.2162401835491123,B,681,Correct
1,new_learn,36,427,A,44.32532247347995,60.992371192226756,2.216266123673998,0.9580659263126066,B,594,Correct
1,new_learn,36,428,A,54.39755212227308,66.12531271662671,2.719877606113654,1.038693983234411,B,447,Correct
1,new_learn,36,429,A,23.512169599544364,36.08730295048702,1.1756084799772182,0.5668580291855965,A,979,Incorrect
1,new_learn,36,430,B,55.36155486226034,25.089412644066556,2.7680777431130172,0.39410357222741177,A,443,Incorrect
1,new_learn,36,431,A,45.42514247889288,58.96105412583018,2.271257123944644,0.9261580724480912,A,564,Incorrect
1,new_learn,36,432,B,79.57290971322065,66.66847420480802,3.978645485661033,1.0472259439393274,B,841,Correct
1,new_learn,36,433,B,64.47350856957404,55.98109977975815,3.223675428478702,0.8793490590398272,B,638,Incorrect
1,new_learn,36,434,B,45.14974492980279,34.94086951619323,2.2574872464901397,0.548849894910561,A,494,Incorrect
1,new_learn,36,435,B,82.4045909940986,52.363039614551894,4.12022954970493,0.8225167028635376,A,553,Incorrect
1,new_learn,36,436,B,46.877844918202996,31.894980581493428,2.3438922459101494,0.5010051834060443,B,820,Correct
1,new_learn,36,437,B,69.98088239802098,58.26502122500132,3.499044119901049,0.9152248132085876,B,903,Correct
1,new_learn,36,438,A,21.165833471081758,35.98944304384416,1.058291673554088,0.5653208493666455,B,2026,Correct
1,new_learn,36,439,A,39.527962516545664,46.640719196054725,1.9763981258272834,0.7326307039223499,B,442,Incorrect
1,new_learn,36,440,B,76.70576653700451,52.72724846795177,3.835288326850225,0.8282376821546047,A,356,Incorrect
1,new_learn,36,441,B,41.677878310837585,17.176697246993836,2.083893915541879,0.2698109294204593,B,1311,Correct
1,new_learn,36,442,A,31.763103370994507,57.795398462500515,1.5881551685497255,0.9078479961054321,B,3111,Correct
1,new_learn,36,443,A,16.866754759521,37.06382601292162,0.84333773797605,0.5821972175806243,B,2111,Incorrect
1,new_learn,36,444,A,30.68341984867595,40.515291168521465,1.5341709924337974,0.6364127054653923,A,733,Incorrect
1,new_learn,36,445,A,46.19230305885529,69.14624566715361,2.309615152942764,1.0861466870562242,A,252,Incorrect
1,new_learn,36,446,B,78.62046983424871,51.92829181081655,3.9310234917124354,0.8156877003316416,B,952,Correct
1,new_learn,36,447,B,83.87121203053069,58.20331659976723,4.193560601526534,0.9142555592219479,B,956,Incorrect
1,new_learn,36,448,A,15.860656072201834,39.08401580908216,0.7930328036100918,0.6139302846929992,A,795,Incorrect
1,new_learn,36,449,A,13.887697182472433,38.072777708330676,0.6943848591236217,0.5980457937512444,B,280,Correct
1,new_learn,36,450,A,48.65168313244148,67.16889331872603,2.432584156622074,1.0550865089993313,B,670,Incorrect
1,new_learn,36,451,A,51.36080724510205,72.53668565330821,2.5680403622551022,1.139403593820926,A,796,Incorrect
1,new_learn,36,452,A,49.575775494382306,73.02191434598302,2.4787887747191153,1.1470255483020169,A,1034,Incorrect
1,new_learn,36,453,A,64.12912216156329,76.0079839270055,3.206456108078164,1.1939306195962576,B,2758,Incorrect
1,new_learn,36,454,B,54.78937745230082,46.390082540720044,2.739468872615041,0.728693712546751,B,467,Correct
1,new_learn,36,455,A,38.11464951962348,46.67888529858408,1.9057324759811738,0.7332302156589618,B,704,Correct
1,new_learn,36,456,B,61.8373335669407,48.25325362904945,3.091866678347035,0.7579603355641339,B,962,Correct
1,new_learn,36,457,B,46.43238099165159,37.60795378309748,2.3216190495825795,0.5907443566076175,B,581,Correct
1,new_learn,36,458,A,57.86174273922836,73.74165086332243,2.893087136961418,1.158331143078986,B,611,Correct
1,new_learn,36,459,B,59.74478404977348,49.06195777194803,2.987239202488674,0.770663430535423,B,656,Correct
1,new_learn,36,460,B,48.41952091767653,26.307114096563662,2.4209760458838265,0.41323118191456437,B,512,Correct
1,new_learn,36,461,B,42.37253747635707,25.80477620710434,2.1186268738178535,0.40534047679883844,B,866,Correct
1,new_learn,36,462,B,82.50941487946257,58.741568206378496,4.125470743973128,0.9227103956875121,B,882,Incorrect
1,new_learn,36,463,B,61.47279861458779,32.82235114760022,3.073639930729389,0.5155722861942269,B,1048,Correct
1,new_learn,36,464,B,70.94622983347001,38.98904066499225,3.5473114916735007,0.6124384186182668,A,891,Incorrect
1,new_learn,36,465,A,54.397735989907495,67.35020128045905,2.7198867994953746,1.0579344878024202,A,741,Incorrect
1,new_learn,36,466,B,49.62947708766864,19.002086408582333,2.4814738543834323,0.29848407532040355,B,942,Incorrect
1,new_learn,36,467,A,45.48044785320434,54.032988467561836,2.2740223926602168,0.8487481981059715,A,5110,Correct
1,new_learn,36,468,A,35.89370202983127,58.304022766812224,1.7946851014915635,0.9158374479947465,B,739,Correct
1,new_learn,36,469,B,73.73028306248642,57.51024158061587,3.686514153124321,0.9033687622791855,A,1706,Correct
1,new_learn,36,470,A,33.20147007571731,45.53777818496959,1.6600735037858656,0.7153057470335099,B,2026,Correct
1,new_learn,36,471,A,53.950110883241194,77.89176054027865,2.69750554416206,1.2235209134425737,B,503,Correct
1,new_learn,36,472,A,42.6677556651766,63.623153508203586,2.13338778325883,0.9993901582979403,B,398,Correct
1,new_learn,36,473,A,11.622517099891503,30.767514055244142,0.5811258549945751,0.4832949806258785,A,897,Incorrect
1,new_learn,36,474,A,68.03550350845805,87.69620941518383,3.4017751754229026,1.377528836232068,B,539,Correct
1,new_learn,36,475,A,59.177175797608236,67.82292536126658,2.9588587898804115,1.0653600202996198,B,1575,Incorrect
1,new_learn,36,476,B,62.00621266514393,33.22742144942262,3.1003106332571964,0.5219351156161901,A,605,Correct
1,new_learn,36,477,A,44.93557530442281,52.1036657951285,2.2467787652211406,0.8184424684353675,A,907,Correct
1,new_learn,36,478,B,62.07690372756242,43.62095821658801,3.103845186378121,0.685196409378901,A,556,Correct
1,new_learn,36,479,A,52.48586098471806,72.2927716967968,2.6242930492359027,1.135572202351505,A,377,Correct
1,new_learn,36,480,B,38.17651565358157,19.990111458089444,1.9088257826790782,0.31400393650587477,A,864,Correct
1,new_learn,36,481,B,50.3069223499635,21.636594377881266,2.515346117498175,0.33986682973127,A,836,Incorrect
1,new_learn,36,482,B,50.90490031262236,37.92646032370664,2.545245015631118,0.5957474456481079,B,725,Correct
1,new_learn,36,483,B,65.95270859966705,46.917623650453194,3.2976354299833526,0.7369803089207725,B,1751,Correct
1,new_learn,36,484,A,18.817223210908658,49.394337837869706,0.9408611605454328,0.7758844444019191,B,800,Incorrect
1,new_learn,36,485,A,38.98591555377338,59.0957850142531,1.9492957776886692,0.9282744202944967,A,1142,Incorrect
1,new_learn,36,486,A,63.71856149468507,76.42023670804907,3.1859280747342535,1.2004062711380001,A,457,Incorrect
1,new_learn,36,487,A,46.40503869209987,57.093241714530244,2.3202519346049937,0.8968185436999728,A,367,Correct
1,new_learn,36,488,A,57.361947658904874,76.23618491874856,2.8680973829452436,1.1975151923922676,A,443,Correct
1,new_learn,36,489,B,69.61359132613208,51.50972352443764,3.480679566306604,0.8091128450640732,A,525,Incorrect
1,new_learn,36,490,B,64.522122253887,34.49336228169703,3.2261061126943504,0.5418204677089533,A,310,Correct
1,new_learn,36,491,A,57.52325676216234,73.20760147354098,2.876162838108117,1.1499423148810284,B,740,Incorrect
1,new_learn,36,492,B,67.38090914414938,40.560893804700626,3.369045457207469,0.6371290299994162,A,394,Correct
1,new_learn,36,493,A,40.63686843312793,66.98932523157515,2.0318434216563963,1.0522658600822694,A,672,Correct
1,new_learn,36,494,A,55.71358701213527,82.66833461380809,2.7856793506067636,1.2985511635362115,A,866,Incorrect
1,new_learn,36,495,A,67.07929810894368,89.56871513389522,3.353964905447184,1.4069420872806109,A,445,Incorrect
1,new_learn,36,496,B,58.28653330987356,42.92628305508021,2.914326665493678,0.6742844774587802,A,289,Incorrect
1,new_learn,36,497,B,61.11834558557978,42.81557066626277,3.055917279278989,0.6725454113219289,B,684,Incorrect
1,new_learn,36,498,A,24.675318101336522,55.66503069136009,1.2337659050668262,0.8743842574091362,B,780,Incorrect
1,new_learn,36,499,B,60.01316896713323,35.84354881671999,3.0006584483566616,0.5630291482059732,B,346,Incorrect
1,new_learn,36,500,A,56.76619670879807,78.40994014438492,2.8383098354399032,1.2316604596300753,A,2981,Incorrect
1,new_learn,36,501,B,75.16526919128815,42.69189015208037,3.7582634595644073,0.6706026423481907,A,311,Incorrect
1,new_learn,36,502,B,37.92066731057644,20.33481255629136,1.8960333655288222,0.3194184886948521,A,620,Incorrect
1,new_learn,36,503,B,70.61571578138741,46.882371312486626,3.53078578906937,0.7364265664908841,B,338,Correct
1,new_learn,36,504,A,48.03874461325592,63.058857132953186,2.401937230662796,0.9905262115632703,B,300,Incorrect
1,new_learn,36,505,B,57.56260816230977,29.366827114470595,2.878130408115488,0.46129304161031187,A,1062,Incorrect
1,new_learn,36,506,A,56.06791326002957,75.66342796358836,2.8033956630014787,1.1885183471791485,A,393,Incorrect
1,new_learn,36,507,B,79.31420250451635,57.66115702391992,3.9657101252258173,0.9057393365191716,B,437,Incorrect
1,new_learn,36,508,B,37.26692604633134,26.650185542451908,1.8633463023165673,0.41862013558485905,A,2935,Incorrect
1,new_learn,36,509,A,45.848404075303606,66.69166186012325,2.2924202037651806,1.0475901747772889,B,668,Incorrect
1,new_learn,36,510,A,25.51761767539048,38.35658203131095,1.275880883769524,0.6025037816319038,B,223,Correct
1,new_learn,36,511,B,37.43528545078529,15.788457643638434,1.8717642725392643,0.2480045127238406,B,403,Correct
1,new_learn,36,512,B,48.80815727897547,26.76091591202718,2.4404078639487734,0.42035948416279395,A,1000,Incorrect
1,new_learn,36,513,A,16.68071152571529,45.284059475387934,0.8340355762857644,0.7113203428630099,A,1082,Incorrect
1,new_learn,36,514,B,72.99960358641684,42.173711863218315,3.6499801793208415,0.6624631168204967,B,494,Incorrect
1,new_learn,36,515,B,75.71376797857582,50.82608389952587,3.7856883989287904,0.7983742589474445,B,511,Correct
1,new_learn,36,516,A,32.35506033225154,46.96109459323577,1.6177530166125769,0.7376631488932243,B,965,Correct
1,new_learn,36,517,A,57.0538478790873,68.67277126052173,2.852692393954365,1.0787093684685367,A,633,Incorrect
1,new_learn,36,518,B,71.03806866167778,44.126155054575236,3.5519034330838894,0.6931320227530884,B,1505,Incorrect
1,new_learn,36,519,B,73.7769299905233,59.585274456971334,3.6888464995261647,0.9359633024807635,A,484,Incorrect
1,new_learn,36,520,A,53.27864707501709,63.48865138934238,2.6639323537508544,0.9972774039554072,A,599,Incorrect
1,new_learn,36,521,A,54.343884721524496,77.76391824217588,2.717194236076225,1.2215127713198852,B,514,Correct
1,new_learn,36,522,A,65.89805573002677,80.95970047168711,3.2949027865013387,1.2717120011934115,B,421,Correct
1,new_learn,36,523,A,35.04879889241991,57.90445159449274,1.7524399446209955,0.9095609986970208,B,644,Correct
1,new_learn,36,524,A,13.324766085665953,33.12738266126313,0.6662383042832977,0.5203637100064107,B,1027,Correct
1,new_learn,36,525,A,25.91770381430468,38.63268268881522,1.295885190715234,0.6068407606182374,B,663,Correct
1,new_learn,36,526,A,13.8566581070748,35.94655125768127,0.69283290535374,0.5646471067651021,B,842,Incorrect
1,new_learn,36,527,A,50.41621506087219,66.61580805281305,2.5208107530436097,1.0463986659583264,B,920,Incorrect
1,new_learn,36,528,B,76.62660919766806,61.52053936507211,3.8313304598834033,0.9663623725709611,B,2935,Correct
1,new_learn,36,529,A,22.844871307704103,51.79429913399326,1.142243565385205,0.8135829482859271,B,4888,Correct
1,new_learn,36,530,B,34.20363657973755,10.565624412000538,1.7101818289868773,0.16596444016664932,A,2150,Incorrect
1,new_learn,36,531,B,65.6333381596234,39.74245754340143,3.2816669079811702,0.624273063269771,B,1226,Correct
1,new_learn,36,532,A,66.39025412853722,81.08998724739426,3.319512706426861,1.2737585410805192,B,478,Incorrect
1,new_learn,36,533,A,55.39572614432102,76.54703968367376,2.769786307216051,1.2023980876213793,A,667,Incorrect
1,new_learn,36,534,A,26.293194736123077,45.6151063680408,1.3146597368061537,0.7165204152927699,B,1033,Incorrect
1,new_learn,36,535,A,17.122627061916674,46.13007707828851,0.8561313530958337,0.7246095562934105,B,623,Incorrect
1,new_learn,36,536,B,51.20387796197539,39.10481135040598,2.5601938980987695,0.614256940292251,B,24267,Incorrect
1,new_learn,36,537,B,67.55725218306844,55.623223816377205,3.3778626091534223,0.8737275565525571,A,539,Incorrect
1,new_learn,36,538,A,25.658929475045227,53.107871876984106,1.2829464737522613,0.8342165006826063,A,548,Correct
1,new_learn,36,539,A,43.359456503471904,58.1408112176145,2.167972825173595,0.9132737269750436,B,713,Correct
1,new_learn,36,540,B,39.00461590425564,18.690647044377926,1.950230795212782,0.29359199722728735,A,1171,Correct
1,new_learn,36,541,B,73.96073179555485,53.6096388337248,3.6980365897777427,0.8420982376081596,A,548,Correct
1,new_learn,36,542,B,40.724240618469764,15.847201392194737,2.036212030923488,0.2489272573683846,A,1288,Incorrect
1,new_learn,36,543,A,61.55358543929334,82.23098561514459,3.077679271964667,1.2916813015299309,A,1034,Correct
1,new_learn,36,544,A,37.7996066077861,46.61537709155799,1.8899803303893052,0.7322326310757826,A,1711,Incorrect
1,new_learn,36,545,B,40.800852840090606,27.94763331842072,2.0400426420045306,0.4390003975918593,B,656,Incorrect
1,new_learn,36,546,A,18.84841532669589,36.95434507142109,0.9424207663347944,0.5804774949729933,A,706,Correct
1,new_learn,36,547,A,20.967431509828238,38.6479328639608,1.0483715754914118,0.6070803098092539,A,2039,Correct
1,new_learn,36,548,B,55.84111432710053,45.2454235018507,2.7920557163550264,0.7107134504098657,A,1598,Correct
1,new_learn,36,549,A,19.037398006751655,40.013481916533735,0.9518699003375828,0.628530304167652,A,1385,Correct
1,new_learn,36,550,A,35.0304718311267,60.66541574655399,1.751523591556335,0.9529301221817227,A,433,Correct
1,new_learn,36,551,B,39.94077906595578,13.15994024204851,1.997038953297789,0.2067158579305014,B,1148,Incorrect
1,new_learn,36,552,A,38.727051033075774,67.93992470883981,1.9363525516537887,1.067197841753674,A,467,Correct
1,new_learn,36,553,B,60.288976081524545,29.944259576211213,3.0144488040762276,0.47036332950905474,A,314,Incorrect
1,new_learn,36,554,A,44.22339495260689,69.76569041063198,2.2111697476303447,1.0958769023333064,B,273,Incorrect
1,new_learn,36,555,A,56.28833810101997,65.14159923173307,2.814416905050998,1.0232418479475156,B,287,Correct
1,new_learn,36,556,B,62.32540983801589,37.48365779006894,3.1162704919007944,0.5887919197147721,B,293,Correct
1,new_learn,36,557,B,81.77240162572389,52.6757976177652,4.088620081286194,0.8274294940897694,B,581,Incorrect
1,new_learn,36,558,B,49.36033607411645,39.074023220656,2.4680168037058223,0.6137733214810493,A,297,Correct
1,new_learn,36,559,A,58.694447545465565,80.4638947133364,2.9347223772732782,1.2639239025532012,B,492,Correct
1,new_learn,36,560,A,44.15982728598227,53.71117652518482,2.2079913642991134,0.843693187935926,A,621,Correct
1,new_learn,36,561,A,61.280989355078255,88.35091109328403,3.0640494677539127,1.3878128661431304,B,469,Correct
1,new_learn,36,562,A,34.822190049768516,66.17664223729969,1.7411095024884258,1.0395002654597036,A,683,Correct
1,new_learn,36,563,B,50.212994708950745,18.956836232769074,2.5106497354475374,0.2977732872208607,B,913,Incorrect
1,new_learn,36,564,B,67.90657286303167,40.656743902197896,3.3953286431515837,0.6386346398101327,A,673,Correct
1,new_learn,36,565,A,41.90647889435325,53.747817278348094,2.0953239447176624,0.8442687395407246,A,435,Correct
1,new_learn,36,566,B,73.0297583227105,53.9345305966728,3.651487916135525,0.8472016254866059,A,386,Incorrect
1,new_learn,36,567,A,38.04463929602867,63.180168799587655,1.9022319648014334,0.9924317707667382,B,330,Incorrect
1,new_learn,36,568,B,56.01847006192196,45.42696000983642,2.800923503096098,0.7135650192090972,B,21,Incorrect
1,new_learn,36,569,A,46.88435453969848,57.876747551711,2.344217726984924,0.9091258246106315,A,408,Correct
1,new_learn,36,570,B,53.879525835965495,32.57143279130227,2.693976291798275,0.5116308698702445,A,631,Incorrect
1,new_learn,36,571,B,61.42086951366077,31.63658554891375,3.0710434756830387,0.4969463237256622,B,652,Incorrect
1,new_learn,36,572,A,57.161914160331136,84.56645858048,2.858095708016557,1.3283668250827074,B,1066,Correct
1,new_learn,36,573,B,39.727772271938164,28.76725603803739,1.9863886135969082,0.4518750011651744,B,487,Incorrect
1,new_learn,36,574,B,43.77725933937627,31.359699534380553,2.1888629669688133,0.492597008379966,A,400,Correct
1,new_learn,36,575,A,29.749534566512004,42.22953714960027,1.4874767283256003,0.6633400183684073,A,525,Incorrect
1,new_learn,36,576,A,63.019705517971005,72.70062285353005,3.1509852758985506,1.141978713340261,B,317,Incorrect
1,new_learn,36,577,B,36.72533281663541,26.367809833082497,1.8362666408317705,0.4141845883143234,B,580,Correct
1,new_learn,36,578,A,61.73483720296912,82.13469313810674,3.086741860148456,1.2901687428376405,B,340,Incorrect
1,new_learn,36,579,B,68.01521285483257,42.13679121313786,3.4007606427416284,0.6618831686052044,A,572,Incorrect
1,new_learn,36,580,B,70.75150411167049,48.80985839154886,3.5375752055835243,0.76670346272824,A,2412,Incorrect
1,new_learn,36,581,B,41.54333681206724,26.449533104953268,2.077166840603362,0.4154682944670061,A,1598,Incorrect
1,new_learn,36,582,B,60.27563767421806,36.59570395719085,3.013781883710903,0.5748439735242884,B,785,Correct
1,new_learn,36,583,B,75.31361876461489,53.62960740061442,3.7656809382307443,0.8424119031233753,B,777,Incorrect
1,new_learn,36,584,B,38.01962255106079,24.335889879392827,1.9009811275530395,0.3822672643183535,A,464,Incorrect
1,new_learn,36,585,B,42.68782310133011,32.63307820394063,2.1343911550665053,0.5125991937476054,A,1482,Incorrect
1,new_learn,36,586,A,61.04578794757509,71.97748910824977,3.052289397378755,1.130619755031584,A,446,Incorrect
1,new_learn,36,587,A,64.64447614810396,77.84346707124892,3.2322238074051985,1.2227623214049728,B,492,Correct
1,new_learn,36,588,B,33.46781699364761,20.604854525253607,1.6733908496823804,0.32366029802411567,B,670,Correct
1,new_learn,36,589,A,28.77862168140316,52.98286501920037,1.4389310840701581,0.8322528975522976,B,432,Incorrect
1,new_learn,36,590,B,73.80072459062109,54.33975845723261,3.6900362295310543,0.8535669298354289,A,240,Incorrect
1,new_learn,36,591,B,43.936726230816944,32.91805436052469,2.196836311540847,0.5170755887474692,A,306,Incorrect
1,new_learn,36,592,B,58.126930362187906,34.758871832976155,2.9063465181093955,0.5459910819877354,A,345,Correct
1,new_learn,36,593,B,83.21825178407616,59.5176387468109,4.160912589203808,0.9349008832299619,B,666,Incorrect
1,new_learn,36,594,B,56.476397650472904,48.09400123950417,2.823819882523645,0.7554588048788238,A,309,Incorrect
1,new_learn,36,595,B,55.4670843991988,29.461769952362275,2.77335421995994,0.46278440022046907,A,306,Incorrect
1,new_learn,36,596,A,44.67859380687526,52.05750234297249,2.233929690343763,0.8177173346245792,A,358,Incorrect
1,new_learn,36,597,B,84.31385441860658,64.13257768231844,4.215692720930329,1.0073921745127417,A,306,Correct
1,new_learn,36,598,B,35.55056412940314,24.348000059681254,1.7775282064701572,0.3824574905854924,B,1094,Correct
1,new_learn,36,599,A,34.98002324441571,63.499731119868336,1.7490011622207857,0.9974514439555277,A,624,Correct
1,new_learn,36,600,A,45.41649776430641,81.24015555929088,2.270824888215321,1.2761173794078011,B,860,Incorrect
1,new_learn,36,601,A,44.70660053113691,74.71497407006395,2.2353300265568454,1.173620068258324,B,2556,Incorrect
1,new_learn,36,602,A,82.0038871395725,33.496274205660725,4.1001943569786246,0.5261582448356651,B,740,Incorrect
1,new_learn,36,603,B,50.529950200948164,23.26395174614254,2.5264975100474083,0.3654292994957442,A,355,Incorrect
1,new_learn,36,604,B,34.758871832976155,41.873069637812094,1.7379435916488077,0.6577406397870215,A,523,Incorrect
1,new_learn,36,605,A,84.67446211972305,41.16862085927794,4.233723105986153,0.6466751842496554,A,430,Correct
1,new_learn,36,606,B,46.89419664751605,40.428444464564514,2.3447098323758024,0.6350485206296941,B,622,Correct
1,new_learn,36,607,B,30.6520862503774,57.49852478328037,1.5326043125188702,0.9031847152570214,B,486,Correct
1,new_learn,36,608,B,42.13679121313786,31.98478714516743,2.106839560656893,0.5024158616094563,B,452,Correct
1,new_learn,36,609,A,86.46715880675866,32.53111295877781,4.323357940337933,0.5109975274219803,B,693,Incorrect
1,new_learn,36,610,B,59.585274456971334,26.2230700094767,2.9792637228485663,0.4119110204817141,A,1291,Incorrect
1,new_learn,36,611,B,47.63105010950039,33.00344458101176,2.3815525054750197,0.5184168951943222,A,335,Incorrect
1,new_learn,36,612,B,19.87900264914722,56.5275386618286,0.9939501324573611,0.8879325009275686,A,253,Incorrect
1,new_learn,36,613,A,67.34028302282333,49.55336711410554,3.3670141511411664,0.7783824704315602,A,345,Correct
1,new_learn,36,614,B,44.48802407044479,24.919527517212856,2.2244012035222394,0.3914350228950231,B,302,Correct
1,new_learn,36,615,A,47.022930737996234,74.08424592703076,2.3511465368998117,1.163712613755497,B,365,Incorrect
1,new_learn,36,616,A,83.16031406738769,33.239848249684684,4.158015703369384,0.5221303153382447,A,508,Correct
1,new_learn,36,617,B,20.604854525253607,66.5321830063524,1.0302427262626805,1.0450850868002417,B,818,Correct
1,new_learn,36,618,A,58.751737772358766,48.34477144569942,2.937586888617938,0.7593978940664344,A,697,Correct
1,new_learn,36,619,A,82.34183738452833,48.43387403909653,4.1170918692264165,0.7607975143305953,A,914,Correct
1,new_learn,36,620,A,69.43945403587047,55.02952317425148,3.471972701793524,0.8644017286738886,A,964,Correct
1,new_learn,36,621,A,30.586991133367587,84.53704711082545,1.5293495566683795,1.3279048307977175,A,1184,Correct
1,new_learn,36,622,A,53.76639670901079,70.69745737225011,2.6883198354505398,1.1105130635406926,B,1278,Incorrect
1,new_learn,36,623,B,56.9767362079849,26.890357761686687,2.848836810399245,0.42239275198258086,B,965,Correct
1,new_learn,36,624,B,15.205168871980177,58.308099176869135,0.7602584435990088,0.9159014800941858,B,994,Correct
1,new_learn,36,625,A,46.70376364237483,68.98730894101162,2.3351881821187415,1.083650114800058,B,1107,Incorrect
1,new_learn,36,626,A,55.54033849796077,73.4462415038808,2.7770169248980388,1.1536908637118681,A,577,Correct
1,new_learn,36,627,A,79.85243158438317,46.88665446698392,3.9926215792191586,0.7364938461243988,A,965,Correct
1,new_learn,36,628,B,36.93410070173826,47.00852133502072,1.846705035086913,0.7384081264111008,A,718,Incorrect
1,new_learn,36,629,A,54.78147010038741,66.87334093905973,2.7390735050193706,1.0504439830757781,B,414,Incorrect
1,new_learn,36,630,B,21.400736285090744,54.40444889637643,1.0700368142545371,0.8545830848772877,A,950,Incorrect
1,new_learn,36,631,A,72.32343173457218,41.46875109915712,3.6161715867286093,0.6513896190332783,A,1047,Correct
1,new_learn,36,632,B,37.904618912497426,31.783428539920934,1.8952309456248713,0.49925292803455884,A,978,Incorrect
1,new_learn,36,633,A,88.35091109328403,38.719010644921745,4.417545554664201,0.6081967969817558,B,479,Incorrect
1,new_learn,36,634,A,40.399233476356855,76.70080602721366,2.0199616738178428,1.2048134436975506,A,1047,Correct
1,new_learn,36,635,B,53.6096388337248,26.03926820444515,2.6804819416862404,0.4090238684796959,B,512,Correct
1,new_learn,36,636,A,48.96188057170921,62.930955784827894,2.4480940285854604,0.9885171418849971,B,1050,Incorrect
1,new_learn,36,637,B,58.25200598064296,19.07897509583904,2.912600299032148,0.29969183999555277,A,578,Incorrect
1,new_learn,36,638,B,34.21458969809401,33.21987363004693,1.7107294849047006,0.5218165547466836,A,1019,Incorrect
1,new_learn,36,639,A,53.107871876984106,74.34107052495477,2.6553935938492055,1.1677468051059932,B,1579,Incorrect
1,new_learn,36,640,A,40.89221927260579,86.2441765247653,2.0446109636302894,1.3547203569255197,A,306,Correct
1,new_learn,36,641,B,42.69189015208037,24.834730808711853,2.1345945076040183,0.3901030393126462,A,920,Incorrect
1,new_learn,36,642,B,65.71548872986872,13.937943870053687,3.2857744364934365,0.21893671034153775,B,444,Correct
1,new_learn,36,643,B,46.882371312486626,29.384284218612592,2.3441185656243313,0.46156725716093916,A,612,Incorrect
1,new_learn,36,644,B,41.10423006946661,42.25851054351198,2.0552115034733305,0.6637951313757203,B,733,Correct
1,new_learn,36,645,A,51.79429913399326,77.1551286922959,2.5897149566996633,1.2119499274324594,B,1259,Incorrect
1,new_learn,36,646,B,39.04377536306414,42.9883167934188,1.952188768153207,0.6752589011419761,A,894,Incorrect
1,new_learn,36,647,B,44.54769348364178,40.80636890968477,2.227384674182089,0.6409849439317031,A,1204,Incorrect
1,new_learn,36,648,B,15.42928714045243,59.86235886769941,0.7714643570226215,0.9403157342266013,A,747,Incorrect
1,new_learn,36,649,B,64.91261895731945,12.24925720257157,3.2456309478659726,0.1924108821976535,B,266,Correct
1,new_learn,36,650,B,26.307114096563662,51.58047908232347,1.3153557048281832,0.810224270768347,B,458,Correct
1,new_learn,36,651,A,62.28808388150033,47.52727852446571,3.114404194075016,0.7465567452878871,A,501,Correct
1,new_learn,36,652,A,44.726771269234575,69.2705363814622,2.2363385634617288,1.0880990410311306,B,619,Incorrect
1,new_learn,36,653,B,33.58111906704426,36.909435523254054,1.6790559533522131,0.5797720574400054,A,313,Incorrect
1,new_learn,36,654,A,55.37106222268191,55.76275872412277,2.768553111134095,0.8759193657580211,B,244,Incorrect
1,new_learn,36,655,A,43.556645120401214,80.28624641665257,2.1778322560200607,1.261133409634278,A,259,Correct
1,new_learn,36,656,B,52.604763023568964,21.504664579330353,2.6302381511784483,0.3377944813016844,A,330,Incorrect
1,new_learn,36,657,B,47.96732059299191,30.51679328827288,2.3983660296495954,0.4793566680277819,A,274,Incorrect
1,new_learn,36,658,A,74.75768565550291,37.73649308866717,3.7378842827751453,0.5927634472979939,A,238,Correct
1,new_learn,36,659,B,44.873289794907905,39.489393853687275,2.2436644897453952,0.6202979481272894,B,281,Correct
1,new_learn,36,660,A,38.35658203131095,74.48238232460952,1.9178291015655475,1.1699665256642977,B,441,Incorrect
1,new_learn,36,661,B,36.684453953243256,36.37599065018681,1.834222697662163,0.5713927249683894,A,268,Incorrect
1,new_learn,36,662,B,45.06657354589467,32.28114187956918,2.2533286772947334,0.5070709908917217,B,514,Correct
1,new_learn,36,663,B,35.26192203238334,49.8506038319987,1.7630961016191669,0.7830514538781115,B,387,Correct
1,new_learn,36,664,B,35.84354881671999,39.98683103286677,1.7921774408359994,0.6281116730659531,B,659,Correct
1,new_learn,36,665,B,49.9133422405471,38.48113331396454,2.495667112027355,0.6044602286048022,B,877,Correct
1,new_learn,36,666,A,39.08401580908216,84.13934392779817,1.954200790454108,1.3216577238071787,B,400,Incorrect
1,new_learn,36,667,A,43.328939981922076,82.83203358709859,2.1664469990961037,1.3011225409956597,A,431,Correct
1,new_learn,36,668,B,19.279706702990172,64.29054240514111,0.9639853351495086,1.009873478576472,A,557,Incorrect
1,new_learn,36,669,A,73.0444146650392,50.574476814361596,3.65222073325196,0.7944220240957285,B,375,Incorrect
1,new_learn,36,670,B,20.392212155228314,56.361198400765105,1.0196106077614158,0.8853196342168024,A,622,Incorrect
1,new_learn,36,671,A,40.005952612782664,69.83130914557574,2.000297630639133,1.0969076390114927,B,414,Incorrect
1,new_learn,36,672,A,51.68666463623841,68.62275450305307,2.5843332318119208,1.0779237070794372,B,428,Incorrect
1,new_learn,36,673,B,67.3532822108813,17.80290412922841,3.367664110544065,0.27964736412473684,B,854,Correct
1,new_learn,36,674,B,55.18955777970597,27.811545843899978,2.759477888985298,0.43686274054085955,A,392,Incorrect
1,new_learn,36,675,A,72.70062285353005,36.980294482028995,3.6350311426765023,0.5808851073616473,B,504,Incorrect
1,new_learn,36,676,A,42.96016856384783,70.6698467418017,2.1480084281923917,1.1100793567718041,B,658,Incorrect
1,new_learn,36,677,A,84.16228018231259,39.02705780950657,4.208114009115629,0.61303559052785,B,462,Incorrect
1,new_learn,36,678,B,34.71528970817271,42.26988016463013,1.7357644854086356,0.6639737249666146,B,400,Correct
1,new_learn,36,679,B,38.78273430661273,48.67984062189641,1.9391367153306365,0.7646611483783587,A,470,Incorrect
1,new_learn,36,680,A,39.65833939047786,81.82571619420798,1.982916969523893,1.2853153443522358,A,397,Correct
1,new_learn,36,681,B,34.94086951619323,54.85025507019721,1.7470434758096616,0.8615857918802893,B,545,Correct
1,new_learn,36,682,B,32.891556242930136,51.404786740162805,1.644577812146507,0.8074645019112274,B,846,Correct
1,new_learn,36,683,B,23.6077348516564,63.91539430986158,1.18038674258282,1.0039806660757802,A,853,Incorrect
1,new_learn,36,684,A,74.50445327914453,55.57329872055368,3.725222663957226,0.8729433349812126,A,1122,Correct
1,new_learn,36,685,A,48.59930507214105,65.42769205328302,2.4299652536070524,1.0277357834796461,B,612,Incorrect
1,new_learn,36,686,B,50.461205298565844,27.76282129234818,2.5230602649282923,0.4360973770748367,B,453,Correct
1,new_learn,36,687,B,12.885862184575757,67.47264927438665,0.6442931092287878,1.059857896393269,A,2276,Incorrect
1,new_learn,36,688,A,40.16870284460647,75.85076759357048,2.0084351422303235,1.1914610712055391,B,605,Incorrect
1,new_learn,36,689,B,31.441536461759462,43.55148364518604,1.572076823087973,0.6841051053632624,B,1136,Correct
1,new_learn,36,690,A,38.42178435943551,73.83957938959873,1.9210892179717758,1.1598694007726185,A,4267,Correct
1,new_learn,36,691,B,13.86511547497902,65.62484372516839,0.6932557737489511,1.0308326346998362,B,864,Correct
1,new_learn,36,692,A,41.67221941945843,73.91164818289579,2.0836109709729214,1.1610014547304939,B,358,Incorrect
1,new_learn,36,693,A,70.0718640118845,54.31056642714229,3.5035932005942247,0.8531083824990535,A,297,Correct
1,new_learn,36,694,B,44.194593016345834,44.480004262288844,2.209729650817292,0.6986902731102466,B,406,Correct
1,new_learn,36,695,B,29.336461138443546,38.04411711614224,1.4668230569221774,0.5975955942219108,A,450,Incorrect
1,new_learn,36,696,A,77.53096712105662,37.867358554432656,3.876548356052831,0.5948190772272812,A,482,Correct
1,new_learn,36,697,A,55.17006115966509,73.87547514439382,2.7585030579832543,1.160433249970415,B,795,Incorrect
1,new_learn,36,698,A,45.568897102368766,83.57384549639539,2.278444855118438,1.3127748952186207,A,921,Correct
1,new_learn,36,699,B,63.11460518472043,19.11081014088856,3.1557302592360212,0.30019190371382415,B,2044,Correct
1,new_learn,36,700,B,58.63290672004034,17.855596176026864,2.931645336002017,0.28047504886036,B,463,Correct
1,new_learn,36,701,B,27.94763331842072,59.199147159909394,1.3973816659210359,0.9298980290817621,B,733,Correct
1,new_learn,36,702,A,79.01135989387481,40.489522482378504,3.95056799469374,0.6360079318899955,B,399,Incorrect
1,new_learn,36,703,B,38.744581718913835,38.05466096040369,1.9372290859456915,0.5977612165402726,A,364,Incorrect
1,new_learn,36,704,A,58.304022766812224,64.10629797016873,2.9152011383406116,1.0069793737596018,B,64,Incorrect
1,new_learn,36,705,A,86.74913309994258,36.07521894241327,4.337456654997129,0.5666682140306444,A,69,Correct
1,new_learn,36,706,B,37.92646032370664,49.09509968737764,1.896323016185332,0.7711840225256208,A,253,Incorrect
1,new_learn,36,707,B,46.917623650453194,34.04729140033295,2.34588118252266,0.5348136026895847,A,228,Incorrect
1,new_learn,36,708,A,77.57949604871862,49.56431002448579,3.8789748024359314,0.7785543612658576,B,241,Incorrect
1,new_learn,36,709,B,55.42212385714936,15.844241769777796,2.771106192857468,0.24888076772817233,B,306,Correct
1,new_learn,36,710,B,29.461769952362275,44.5329156008012,1.4730884976181136,0.6995214024720567,B,329,Correct
1,new_learn,36,711,B,42.93284132408538,27.125449672399114,2.146642066204269,0.42608556708064355,B,388,Correct
1,new_learn,36,712,A,78.28194280568705,42.372920095467066,3.9140971402843525,0.6655922724153333,B,341,Incorrect
1,new_learn,36,713,A,67.93992470883981,61.272948966924226,3.396996235441991,0.9624732316913573,A,356,Correct
1,new_learn,36,714,A,36.86863445425374,78.68987178227499,1.8434317227126868,1.2360576155155893,B,307,Incorrect
1,new_learn,36,715,A,58.1408112176145,56.640543496528096,2.907040560880725,0.889707576720129,A,329,Correct
1,new_learn,36,716,A,38.63268268881522,74.08229618569533,1.9316341344407613,1.1636819872902178,A,425,Correct
1,new_learn,36,717,A,41.6824842906035,72.1876356382219,2.084124214530175,1.1339207290052733,B,496,Incorrect
1,new_learn,36,718,B,36.27688707164857,47.45587419328433,1.8138443535824282,0.7454351286765174,A,851,Incorrect
1,new_learn,36,719,B,31.359699534380553,56.22274066062373,1.5679849767190277,0.8831447451204983,B,915,Correct
1,new_learn,36,720,A,65.16480354456229,50.96386516451801,3.2582401772281147,0.8005385219969527,B,768,Incorrect
1,new_learn,36,721,A,55.66503069136009,75.32468189866347,2.783251534568004,1.183197336434146,A,214,Correct
1,new_learn,36,722,B,15.36585266053791,55.21526619493051,0.7682926330268955,0.8673193732199926,A,329,Incorrect
1,new_learn,36,723,A,73.84105828107238,56.777878984522644,3.692052914053619,0.8918648375209332,B,708,Incorrect
1,new_learn,36,724,A,30.767514055244142,88.3774829001085,1.538375702762207,1.388230255108692,A,309,Correct
1,new_learn,36,725,B,24.626624967393553,49.0401155969472,1.2313312483696777,0.7703203344528179,A,696,Incorrect
1,new_learn,36,726,A,80.4638947133364,41.305552454534435,4.02319473566682,0.6488261007181662,B,384,Incorrect
1,new_learn,36,727,B,11.949964641729323,63.98964480776915,0.5974982320864661,1.0051469901695391,A,596,Incorrect
1,new_learn,36,728,A,59.36212302562411,54.600044215324424,2.9681061512812055,0.8576554889627055,A,595,Correct
1,new_learn,36,729,A,67.92484633191644,63.213480153370924,3.3962423165958224,0.9929550242883713,B,647,Incorrect
1,new_learn,36,730,A,72.55807023679839,48.21665567903751,3.627903511839919,0.7573854563096641,A,407,Correct
1,new_learn,36,731,B,55.73414417277894,25.456977456165745,2.786707208638947,0.39987726679445645,B,550,Correct
1,new_learn,36,732,B,30.55247408416635,50.70782105003312,1.5276237042083176,0.7965165904516496,B,1272,Correct
1,new_learn,36,733,A,69.97721088069459,58.895841958552346,3.4988605440347293,0.9251337221198679,B,946,Incorrect
1,new_learn,36,734,A,63.623153508203586,57.3322443348234,3.181157675410179,0.9005727880804811,A,321,Correct
1,new_learn,36,735,A,42.7910241069297,79.17575979236511,2.1395512053464847,1.2436899265304218,A,584,Correct
1,new_learn,36,736,B,27.17881658800595,60.190263237865004,1.3589408294002976,0.9454664440285624,A,412,Incorrect
1,new_learn,36,737,A,45.284059475387934,83.31928847428472,2.2642029737693967,1.3087763228657079,B,301,Incorrect
1,new_learn,36,738,A,37.77055035000029,72.90712045026348,1.8885275175000147,1.1452223700046695,B,777,Incorrect
1,new_learn,36,739,B,38.57495161411891,35.07808671711835,1.9287475807059453,0.5510052976624236,A,2376,Incorrect
1,new_learn,36,740,B,14.039800360045504,60.41489242176945,0.7019900180022752,0.9489949109982428,B,848,Correct
1,new_learn,36,741,B,46.39301168503667,33.86048914121069,2.3196505842518333,0.5318793196649223,B,704,Correct
1,new_learn,36,742,A,36.08730295048702,76.48783040045564,1.804365147524351,1.2014680303754672,B,572,Incorrect
1,new_learn,36,743,B,59.1244796376217,23.245042900179243,2.956223981881085,0.3651322800379135,A,386,Incorrect
1,new_learn,36,744,B,48.54208780069847,27.868972068203362,2.4271043900349234,0.4377647895628341,B,2327,Correct
1,new_learn,36,745,B,21.960245380670823,61.53564553928511,1.0980122690335412,0.9665996598006183,A,815,Incorrect
1,new_learn,36,746,A,64.58395855044846,55.193142958144875,3.229197927522423,0.8669718622291958,B,814,Incorrect
1,new_learn,36,747,A,41.171850554415904,76.68474641108673,2.058592527720795,1.2045611798373317,B,361,Incorrect
1,new_learn,36,748,B,56.84399197037705,17.988310776836386,2.842199598518852,0.2825597249349965,B,281,Correct
1,new_learn,36,749,A,55.00928361819545,62.67103548003029,2.750464180909772,0.9844343232846422,B,520,Incorrect
1,new_learn,36,750,A,75.17233937658777,53.90001782726864,3.7586169688293887,0.8466595001725303,A,434,Correct
1,new_learn,36,751,B,51.226324307524195,35.588850186715206,2.5613162153762095,0.5590283514814612,A,830,Incorrect
1,new_learn,36,752,A,39.953556386683346,74.44250313212706,1.9976778193341673,1.1693401047736276,B,358,Incorrect
1,new_learn,36,753,A,61.77878293575211,49.246334429540326,3.0889391467876055,0.7735596123003499,B,443,Incorrect
1,new_learn,36,754,B,37.48365779006894,37.67459016198411,1.8741828895034471,0.591791078399478,B,492,Correct
1,new_learn,36,755,A,58.96105412583018,54.57485752110712,2.9480527062915094,0.857259857295099,A,654,Correct
1,new_learn,36,756,B,19.36589712395011,53.90972502046587,0.9682948561975054,0.8468119804067074,B,1299,Correct
1,new_learn,36,757,A,67.16803715103154,46.363736451515635,3.3584018575515766,0.7282798691452742,A,697,Correct
1,new_learn,36,758,B,57.716322067491575,24.34970520656782,2.8858161033745784,0.38248427497015297,B,759,Correct
1,new_learn,36,759,A,79.82582287631006,39.892605300564824,3.9912911438155025,0.6266315787240585,B,639,Incorrect
1,new_learn,36,760,B,35.22683552154451,44.88547891097737,1.7613417760772254,0.7050594539979305,A,637,Incorrect
1,new_learn,36,761,B,36.08419822170379,49.09808653545492,1.8042099110851892,0.7712309398255055,A,370,Incorrect
1,new_learn,36,762,A,60.98206591978005,57.17685326643158,3.0491032959890028,0.8981319108860152,B,683,Incorrect
1,new_learn,36,763,A,45.690903282376354,62.582706511062185,2.2845451641188177,0.9830468550845954,B,395,Incorrect
1,new_learn,36,764,A,66.12795224947884,47.373398415648026,3.306397612473942,0.744139602190911,B,312,Incorrect
1,new_learn,36,765,B,55.240485823918036,20.85690627177054,2.762024291195902,0.32761951760002606,B,521,Correct
1,new_learn,36,766,A,42.22953714960027,70.25046543348799,2.1114768574800133,1.1034917305855478,A,1102,Correct
1,new_learn,36,767,B,49.14158169282933,20.45647845792793,2.4570790846414665,0.3213296122087212,B,533,Correct
1,new_learn,36,768,B,50.300047959525756,41.930539171655454,2.515002397976288,0.6586433691136591,A,1086,Incorrect
1,new_learn,36,769,A,38.47278159193766,72.70981073123333,1.923639079596883,1.1421230361857346,B,2128,Incorrect
1,new_learn,36,770,A,76.54703968367376,44.60427385567898,3.8273519841836876,0.7006422953185418,A,837,Correct
1,new_learn,36,771,A,79.88601043173836,38.69969787502289,3.9943005215869176,0.6078934327015821,A,775,Correct
1,new_learn,36,772,B,45.65631727214265,29.236170434257545,2.2828158636071323,0.4592406912768131,B,1073,Correct
1,new_learn,36,773,B,49.993335626130374,41.39285445084103,2.4996667813065185,0.6501974372693688,A,561,Incorrect
1,new_learn,36,774,A,47.8409674850263,69.02483906759736,2.392048374251315,1.084239636649908,B,396,Incorrect
1,new_learn,36,775,A,84.56645858048,42.838085839668864,4.228322929024,0.6728990788387632,B,305,Incorrect
1,new_learn,36,776,B,67.48297723321966,12.347981560285078,3.374148861660983,0.19396164078226916,B,376,Correct
1,new_learn,36,777,B,45.09687116013363,40.418742810636715,2.2548435580066815,0.6348961274061579,A,1299,Incorrect
1,new_learn,36,778,A,67.32235729820462,49.09027129109029,3.366117864910231,0.7711081782540958,B,845,Incorrect
1,new_learn,36,779,A,85.0894983424989,44.13684476968223,4.254474917124945,0.6932999364053339,B,462,Incorrect
1,new_learn,36,780,B,48.01399794211762,39.95171495773313,2.400699897105881,0.6275600710476392,B,587,Correct
1,new_learn,36,781,A,63.499731119868336,65.01997675558428,3.174986555993417,1.0213314065596133,A,982,Correct
1,new_learn,36,782,B,17.994492381989595,66.79701147131098,0.8997246190994798,1.0492450026001185,B,1094,Correct
1,new_learn,36,783,B,46.26468351862231,45.93114722948767,2.313234175931116,0.7214847735355482,B,421,Correct
1,new_learn,36,784,B,28.03455425012539,54.469482130753356,1.4017277125062693,0.8556046245340762,A,629,Incorrect
1,new_learn,36,785,B,57.51024158061587,26.26971693751358,2.875512079030793,0.41264374871388004,B,608,Correct
1,new_learn,36,786,A,57.51224626256475,60.36705830965821,2.8756123131282374,0.9482435345222446,B,370,Incorrect
1,new_learn,36,787,A,69.14624566715361,53.80769694114471,3.4573122833576804,0.8452093270844311,A,715,Correct
1,new_learn,36,788,B,36.02055986247019,45.17701965236128,1.8010279931235096,0.7096389652546995,B,991,Correct
1,new_learn,36,789,A,71.05523240518949,47.31086727915456,3.5527616202594743,0.7431573653957685,A,1067,Correct
1,new_learn,36,790,B,42.173711863218315,27.00039641358316,2.108685593160916,0.4241212350846253,B,1313,Correct
1,new_learn,36,791,B,38.46518728464047,45.60726282992181,1.9232593642320237,0.7163972092841061,A,1108,Incorrect
1,new_learn,36,792,A,47.56216460877752,72.35634628233566,2.378108230438876,1.1365708296059243,A,608,Correct
1,new_learn,36,793,A,46.02200339388736,81.80724338172632,2.301100169694368,1.2850251740923182,A,1394,Correct
1,new_learn,36,794,B,41.59387110148158,28.764930394478966,2.079693555074079,0.4518384700415844,B,363,Correct
1,new_learn,36,795,A,79.22630379863594,44.481036821506464,3.9613151899317973,0.6987064925125089,A,944,Correct
1,new_learn,36,796,A,51.807148150749164,77.0115772943318,2.590357407537458,1.2096950273461766,A,1048,Correct
1,new_learn,36,797,A,58.796328256810554,52.01338914355749,2.939816412840528,0.8170244061085365,B,1344,Incorrect
1,new_learn,36,798,B,40.656743902197896,32.09342713696833,2.0328371951098947,0.5041223746100951,B,837,Correct
1,new_learn,36,799,B,18.690647044377926,60.99538409574436,0.9345323522188963,0.958113252890391,A,1160,Incorrect
1,new_learn,36,800,A,57.093241714530244,53.59496130790013,2.8546620857265124,0.8418676835716413,B,1271,Incorrect
1,new_learn,36,801,B,56.74733636700897,30.169872020071367,2.8373668183504486,0.4739072414900023,A,1119,Incorrect
1,new_learn,36,802,A,40.013481916533735,80.96260199324834,2.000674095826687,1.2717575781875168,A,897,Correct
1,new_learn,36,803,B,18.295871818153238,51.071250207275085,0.914793590907662,0.8022253223041081,B,1274,Correct
1,new_learn,36,804,A,53.19991221740139,69.59103727084906,2.6599956108700695,1.0931334572289644,A,1802,Correct
1,new_learn,36,805,B,51.50972352443764,30.38640867386792,2.575486176221882,0.47730859129400316,B,2061,Correct
1,new_learn,36,806,B,34.56416866232451,38.743914896342496,1.7282084331162255,0.6085879920482887,B,1555,Correct
1,new_learn,36,807,B,34.49336228169703,35.477877746112995,1.7246681140848517,0.5572852004607269,B,1090,Correct
1,new_learn,36,808,A,57.399688413167276,61.519381470813336,2.869984420658364,0.9663441844104761,A,900,Correct
1,new_learn,36,809,B,54.37312037554594,19.775729321728406,2.718656018777297,0.3106364297826111,B,956,Correct
1,new_learn,36,810,B,14.830726659339987,60.013126920289494,0.7415363329669994,0.9426839932586666,A,801,Incorrect
1,new_learn,36,811,A,50.13147457896849,66.42792271867484,2.5065737289484247,1.0434473700310969,A,441,Correct
1,new_learn,36,812,B,43.24006512804721,47.4842223552764,2.1620032564023606,0.7458804205638029,B,397,Correct
1,new_learn,36,813,A,46.64376248047279,61.329365761512996,2.3321881240236393,0.9633594246284531,B,754,Incorrect
1,new_learn,36,814,B,31.202352766069072,58.04699288643309,1.5601176383034536,0.9118000320749857,A,278,Incorrect
1,new_learn,36,815,B,35.0948865007223,32.983907785158536,1.7547443250361152,0.5181100119226862,A,314,Incorrect
1,new_learn,36,816,B,43.3974999453651,49.84470359020077,2.1698749972682547,0.7829587730966776,A,278,Incorrect
1,new_learn,36,817,A,58.96389042780369,57.66015197346663,2.9481945213901843,0.9057235492235688,A,602,Correct
1,new_learn,36,818,A,63.4586154773132,63.31583964452686,3.17293077386566,0.9945628834155749,B,405,Incorrect
1,new_learn,36,819,B,38.21281260126656,34.29156861718113,1.910640630063328,0.5386507002390327,B,361,Correct
1,new_learn,36,820,A,59.85213574567038,50.732589813945935,2.9926067872835187,0.7969056572853846,A,406,Correct
1,new_learn,36,821,B,12.051167599244444,65.23381709414659,0.6025583799622222,1.024690402742956,B,801,Correct
1,new_learn,36,822,A,48.29536724003647,74.04235186624175,2.414768362001823,1.163054543387478,A,913,Correct
1,new_learn,36,823,B,47.79342457904723,42.02132287177947,2.389671228952362,0.6600693961405356,B,1215,Correct
1,new_learn,36,824,A,55.69161069671179,72.09375709087533,2.7845805348355896,1.1324460882319052,A,2013,Correct
1,new_learn,36,825,B,49.7097442960293,38.65119172415806,2.485487214801465,0.6071314998655278,B,3052,Correct
1,new_learn,36,826,B,15.56144153721381,64.45828282025231,0.7780720768606905,1.012508338855589,A,353,Incorrect
1,new_learn,36,827,A,63.20687059040654,48.951502081602314,3.160343529520327,0.7689283966087366,B,428,Incorrect
1,new_learn,36,828,B,22.374490510689462,60.37413032005733,1.118724525534473,0.9483546214018244,B,351,Correct
1,new_learn,36,829,A,62.25687822792615,54.96313852675065,3.1128439113963076,0.8633589610693898,A,717,Correct
1,new_learn,36,830,B,59.051489274497754,12.897648062939865,2.9525744637248876,0.20259578201559253,B,689,Correct
1,new_learn,36,831,A,57.456460444538514,72.51775764923414,2.872823022226926,1.1391062734281951,A,2126,Correct
1,new_learn,36,832,A,47.34903910880666,78.30424857278959,2.367451955440333,1.2300002603057243,B,858,Incorrect
1,new_learn,36,833,B,55.98109977975815,35.52649143042596,2.7990549889879075,0.5580488224282347,A,551,Incorrect
1,new_learn,36,834,A,59.269133256474795,72.91099902829635,2.9634566628237398,1.1452832945659415,A,268,Correct
1,new_learn,36,835,B,35.63915803458895,48.566760254742604,1.7819579017294476,0.7628848861247804,B,921,Correct
1,new_learn,36,836,A,36.54699073439676,85.0751150284364,1.8273495367198378,1.3363567818832118,B,2309,Incorrect
1,new_learn,36,837,A,56.904451098348815,73.60215114190117,2.845222554917441,1.1561398865790116,A,895,Correct
1,new_learn,36,838,A,41.531325027620326,81.97534979442815,2.076566251381016,1.287665783448145,A,1618,Correct
1,new_learn,36,839,A,60.926203978225246,67.62518491574727,3.0463101989112626,1.0622539206448145,A,3828,Correct
1,new_learn,36,840,A,57.67346920677518,63.756537522451865,2.883673460338759,1.0014853494942837,A,596,Correct
1,new_learn,36,841,B,40.972481856789,33.14619362226421,2.04862409283945,0.5206591918908505,B,691,Correct
1,new_learn,36,842,B,25.8881576632646,64.21864003277989,1.29440788316323,1.0087440387525435,A,981,Incorrect
1,new_learn,36,843,A,42.65560036256605,84.07577501101068,2.1327800181283023,1.3206591855972971,B,362,Incorrect
1,new_learn,36,844,B,55.63318534633403,32.573744589836764,2.7816592673167015,0.5116671835167073,B,315,Correct
1,new_learn,36,845,B,58.26502122500132,30.01911760197902,2.9132510612500657,0.4715391966281267,A,856,Incorrect
1,new_learn,36,846,B,29.944259576211213,39.711023918475455,1.4972129788105608,0.6237793050440553,B,619,Correct
1,new_learn,36,847,B,20.23832860324178,55.63037817542994,1.011916430162089,0.8738399369617633,B,550,Correct
1,new_learn,36,848,A,59.5771262386382,72.40675075578059,2.97885631193191,1.1373625812233374,B,1617,Incorrect
1,new_learn,36,849,A,82.94719269142884,34.42028479658697,4.147359634571441,0.5406725692571304,A,387,Correct
1,new_learn,36,850,B,51.182223571905695,40.8517860676902,2.559111178595285,0.6416983549813869,B,442,Correct
1,new_learn,36,851,A,45.133039273207814,64.82571790440286,2.256651963660391,1.0182799956607818,A,710,Correct
1,new_learn,36,852,B,43.62095821658801,37.92309627243758,2.1810479108294003,0.5956946032543419,B,673,Correct
1,new_learn,36,853,B,45.10440503341844,46.1502965288211,2.255220251670922,0.7249271626796744,A,479,Incorrect
1,new_learn,36,854,A,71.98485917278991,54.16213886604467,3.5992429586394956,0.8507768878213808,A,384,Correct
1,new_learn,36,855,A,36.76392948107289,87.03439416288033,1.8381964740536447,1.367133066558716,B,544,Incorrect
1,new_learn,36,856,B,29.830529893303734,40.06930118496063,1.4915264946651865,0.6294071111857454,B,608,Correct
1,new_learn,36,857,B,13.351366130330845,59.30862175583944,0.6675683065165423,0.9316176520134049,A,449,Incorrect
1,new_learn,36,858,A,42.02207685835906,84.57364030713903,2.101103842917953,1.3284796353812678,B,437,Incorrect
1,new_learn,36,859,B,30.571002975995853,57.33538211019146,1.5285501487997926,0.9006220761407058,A,434,Incorrect
1,new_learn,36,860,B,46.66856261473747,31.488431026405692,2.3334281307368734,0.4946191179281251,A,727,Incorrect
1,new_learn,36,861,B,52.363039614551894,17.595409005901402,2.618151980727595,0.27638803834923764,B,434,Correct
1,new_learn,36,862,B,66.06853852782102,18.738429280066228,3.303426926391051,0.29434255883033966,B,917,Correct
1,new_learn,36,863,A,58.506063743593906,60.463226683791504,2.9253031871796953,0.9497541438106688,B,507,Incorrect
1,new_learn,36,864,A,86.86611858942706,34.99387620479567,4.343305929471353,0.5496825220280837,A,410,Correct
1,new_learn,36,865,B,48.33632834688563,29.171896320449093,2.4168164173442817,0.45823107585802997,B,3108,Correct
1,new_learn,36,866,B,55.31942776031225,17.28344639893011,2.7659713880156125,0.27148774117795904,A,1573,Incorrect
1,new_learn,36,867,A,71.71602487049654,37.4766058967555,3.585801243524827,0.5886811488336351,A,190,Correct
1,new_learn,36,868,B,44.26263573014484,47.65079227189019,2.2131317865072417,0.7484968946955175,B,414,Correct
1,new_learn,36,869,B,58.13478929304528,28.78841059155117,2.9067394646522637,0.4522072961147187,A,1192,Incorrect
1,new_learn,36,870,A,48.2933097924458,75.7596255347529,2.4146654896222897,1.190029415093467,B,695,Incorrect
1,new_learn,36,871,A,66.12948935114392,53.46389327498672,3.3064744675571958,0.839808871725035,B,745,Incorrect
1,new_learn,36,872,B,35.61880739702757,55.24995963740459,1.7809403698513784,0.867864336540014,B,2715,Correct
1,new_learn,36,873,A,44.56224467485202,69.4444414389867,2.228112233742601,1.0908307352868363,A,1211,Correct
1,new_learn,36,874,A,66.5110714693381,51.75311885754378,3.3255535734669053,0.8129360900160947,B,526,Incorrect
1,new_learn,36,875,B,54.97232075737633,27.980904213583443,2.7486160378688163,0.4395230155909672,B,284,Correct
1,new_learn,36,876,A,33.799109172661005,81.89911066617812,1.6899554586330503,1.2864682220220132,A,941,Correct
1,new_learn,36,877,A,50.96752153201499,64.47842206184565,2.5483760766007495,1.0128246853227816,A,1215,Correct
1,new_learn,36,878,B,15.847201392194734,59.275759381530236,0.7923600696097367,0.9311014510448582,B,686,Correct
1,new_learn,36,879,A,79.56954748059779,33.14519409070189,3.9784773740298895,0.5206434912857845,A,672,Correct
1,new_learn,36,880,B,48.25325362904945,38.1626664330593,2.4126626814524728,0.5994577625374845,B,474,Correct
1,new_learn,36,881,A,33.00230951480849,86.24544700977779,1.6501154757404242,1.3547403136574285,A,402,Correct
1,new_learn,36,882,A,67.35020128045905,45.602264010092505,3.367510064022952,0.7163186880058441,A,534,Correct
1,new_learn,36,883,B,64.78744410284982,10.622033583628976,3.239372205142491,0.1668505133625643,B,539,Correct
1,new_learn,36,884,A,67.40213528444471,64.85635009711567,3.370106764222236,1.0187611650187312,A,434,Correct
1,new_learn,36,885,B,39.71827100198419,32.685215870430866,1.9859135500992096,0.5134181702977106,B,314,Correct
1,new_learn,36,886,B,32.23221233551139,48.51944111722886,1.6116106167755697,0.7621415988508436,B,503,Correct
1,new_learn,36,887,A,52.3620798692396,71.25837593390406,2.61810399346198,1.1193239517034637,B,618,Incorrect
1,new_learn,36,888,A,46.640719196054725,60.472037483454336,2.3320359598027363,0.9498925435281338,A,306,Correct
1,new_learn,36,889,B,19.625653284495762,61.367497466807734,0.9812826642247882,0.963958396054567,A,395,Incorrect
1,new_learn,36,890,A,47.156036367835526,74.14075118115764,2.3578018183917764,1.1646001962117682,B,320,Incorrect
1,new_learn,36,891,A,70.0360907005478,48.18133078846512,3.50180453502739,0.7568305742261087,A,349,Correct
1,new_learn,36,892,B,19.002086408582333,50.37052291233136,0.9501043204291166,0.7912183236942827,A,611,Incorrect
1,new_learn,36,893,B,58.741568206378496,17.490585120537432,2.9370784103189247,0.2747414686083367,A,421,Incorrect
1,new_learn,36,894,A,37.47538107839808,78.5138870705076,1.873769053919904,1.2332932541274266,B,482,Incorrect
1,new_learn,36,895,A,70.74641197633082,44.46258829643401,3.537320598816541,0.698416703758323,B,356,Incorrect
1,new_learn,36,896,A,51.678666445439156,78.00513258188995,2.583933322271958,1.2253017573078162,A,296,Correct
1,new_learn,36,897,B,23.35580180754593,55.988533865120566,1.1677900903772964,0.8794658333796305,B,904,Correct
1,new_learn,36,898,B,61.52053936507211,23.37339080233194,3.076026968253606,0.36714836417044633,A,685,Incorrect
