experiment,condition,subject,trial,cat,x,y,xt,yt,resp,rt,fb
1,relearn,37,0,A,66.80384100823176,87.90762320941985,3.340192050411588,1.3808497163462652,B,3857,Incorrect
1,relearn,37,1,B,50.993411847369664,32.143764620974444,2.549670592368483,0.5049130739598641,A,1176,Incorrect
1,relearn,37,2,A,16.57864062307128,33.196680943675496,0.828932031153564,0.5214522448810761,A,1233,Correct
1,relearn,37,3,B,36.499027124443344,15.565420679690664,1.824951356222167,0.24450105628675417,A,2746,Incorrect
1,relearn,37,4,A,30.31415339864598,40.67669270622622,1.515707669932299,0.638947994891049,B,1250,Incorrect
1,relearn,37,5,B,58.172895958386405,26.641235899657424,2.90864479791932,0.4184795549245821,B,1335,Correct
1,relearn,37,6,B,52.862836964945515,37.246137163695984,2.643141848247276,0.5850609544403255,B,1278,Correct
1,relearn,37,7,A,38.629380943801706,69.555067431525,1.9314690471900855,1.0925684443141082,A,2055,Correct
1,relearn,37,8,A,15.514732252040883,44.042719134159555,0.7757366126020442,0.6918214143799714,A,2289,Correct
1,relearn,37,9,B,32.15403103545803,14.84573581817877,1.6077015517729019,0.23319627291762643,B,1973,Correct
1,relearn,37,10,A,20.401369974730283,34.57166145988228,1.0200684987365143,0.5430503883237977,B,2693,Incorrect
1,relearn,37,11,A,15.554188453417026,32.492026367392924,0.7777094226708513,0.5103835566802373,A,2724,Correct
1,relearn,37,12,A,31.656962305355915,41.083992320044445,1.5828481152677958,0.6453458422639555,B,2529,Incorrect
1,relearn,37,13,B,31.19215805471331,16.422219010672073,1.5596079027356655,0.25795961299785014,A,2677,Incorrect
1,relearn,37,14,B,80.4410737642723,58.77290211228406,4.022053688213615,0.9232025875305182,B,2785,Correct
1,relearn,37,15,B,49.13893961890477,24.639761166017617,2.4569469809452387,0.3870404633268401,B,1575,Correct
1,relearn,37,16,B,82.58992539843243,59.18412463095609,4.1294962699216216,0.929662055748772,B,1406,Correct
1,relearn,37,17,A,41.8891685969045,58.8425482023642,2.0944584298452247,0.9242965857552532,A,1761,Correct
1,relearn,37,18,A,22.49382323050965,42.44973972970928,1.1246911615254824,0.6667989524082673,A,1379,Correct
1,relearn,37,19,B,40.628884614541136,29.17339425970621,2.0314442307270566,0.4582546054328584,A,885,Incorrect
1,relearn,37,20,A,63.31556439248003,78.00014777297436,3.1657782196240016,1.2252234561124726,B,3089,Incorrect
1,relearn,37,21,A,43.25641488481071,54.59926154803311,2.1628207442405354,0.8576431948536426,B,1312,Incorrect
1,relearn,37,22,B,67.94249976830196,44.94742907103323,3.397124988415098,0.7060325648365314,B,2306,Correct
1,relearn,37,23,A,38.735635511410585,65.8066262185088,1.9367817755705292,1.0336880674279836,B,2585,Incorrect
1,relearn,37,24,A,28.89545413955268,56.45221838796367,1.444772706977634,0.8867493728323663,A,1006,Correct
1,relearn,37,25,B,51.1480096500232,37.70393431514097,2.55740048250116,0.592252015279395,A,1314,Incorrect
1,relearn,37,26,A,37.54552872035614,48.15827403088839,1.877276436017807,0.7564683995250154,B,1253,Incorrect
1,relearn,37,27,B,55.112950399762205,39.33816959284424,2.75564751998811,0.6179225229927443,B,725,Correct
1,relearn,37,28,B,62.427542781387636,32.12514741413024,3.121377139069382,0.5046206355586035,B,1203,Correct
1,relearn,37,29,B,72.65777750038912,48.904850702072864,3.6328888750194555,0.7681955984526886,B,705,Correct
1,relearn,37,30,A,18.484507187830413,40.8724982242307,0.9242253593915207,0.6420237007755252,A,1090,Correct
1,relearn,37,31,B,46.862786514891184,16.60845291601869,2.343139325744559,0.2608849683422814,B,875,Correct
1,relearn,37,32,A,39.76122939498805,69.75767827315588,1.9880614697494026,1.095751047972134,A,1205,Correct
1,relearn,37,33,B,60.206083535359554,46.44559435425174,3.0103041767679777,0.7295656900746441,B,732,Correct
1,relearn,37,34,A,63.00018505266341,76.8678106455378,3.1500092526331707,1.2074367461077642,B,947,Incorrect
1,relearn,37,35,B,50.23250375482726,35.82078955758738,2.5116251877413633,0.5626716465995125,B,667,Correct
1,relearn,37,36,A,36.26804110922734,63.5587690408325,1.813402055461367,0.9983788094494487,A,838,Correct
1,relearn,37,37,B,64.57315643117497,47.53262697184278,3.2286578215587487,0.7466407585028266,B,733,Correct
1,relearn,37,38,A,18.441608117796843,41.81104627610492,0.9220804058898422,0.6567663790995705,A,702,Correct
1,relearn,37,39,A,45.72283417476824,75.18667307201883,2.286141708738412,1.1810294988545595,A,1189,Correct
1,relearn,37,40,A,33.7919817406314,47.94251200445394,1.68959908703157,0.7530792175391648,A,1837,Correct
1,relearn,37,41,A,46.46735692916953,76.03621140563948,2.323367846458477,1.1943740157937872,B,1877,Incorrect
1,relearn,37,42,A,61.947547770635865,87.82858546506624,3.0973773885317932,1.3796081943611767,B,633,Incorrect
1,relearn,37,43,B,71.06019413599417,43.33093344559693,3.553009706799708,0.680640710929378,B,569,Correct
1,relearn,37,44,B,51.744927294748116,34.624560797507826,2.587246364737406,0.5438813291761186,B,1350,Correct
1,relearn,37,45,A,24.014051921623675,41.61445709320478,1.2007025960811837,0.653678363435699,A,428,Correct
1,relearn,37,46,B,59.62182487451671,44.36725339884593,2.9810912437258357,0.6969191866888559,B,729,Correct
1,relearn,37,47,A,42.44297107969639,57.388636629499665,2.12214855398482,0.9014585961738513,A,2165,Correct
1,relearn,37,48,A,11.28474750551415,37.53365997300814,0.5642373752757075,0.5895773521676984,A,862,Correct
1,relearn,37,49,B,55.55242464497798,25.808247045421226,2.777621232248899,0.405394996599629,B,583,Correct
1,relearn,37,50,A,47.802273825546656,66.82767197952813,2.3901136912773326,1.04972661673697,B,3595,Incorrect
1,relearn,37,51,B,66.63392806621098,34.457258271567966,3.331696403310549,0.5412533472440203,B,591,Correct
1,relearn,37,52,A,19.429351770216986,35.387529615496675,0.9714675885108492,0.5558660153436779,A,567,Correct
1,relearn,37,53,B,34.46536541089448,11.984422323197595,1.723268270544724,0.1882508656403754,A,2211,Incorrect
1,relearn,37,54,B,83.60940013947855,62.34626938604289,4.180470006973928,0.9793329094096127,B,675,Correct
1,relearn,37,55,B,32.05433767252078,16.867774893407017,1.602716883626039,0.2649583884376692,B,1757,Correct
1,relearn,37,56,A,37.99945443204024,56.069474813827675,1.899972721602012,0.8807372508287948,A,1855,Correct
1,relearn,37,57,B,40.629452331286316,24.184654694105546,2.0314726165643155,0.3798916675830394,B,2614,Correct
1,relearn,37,58,B,60.289719823637064,46.119245740685166,3.014485991181853,0.7244394180401943,B,722,Correct
1,relearn,37,59,A,28.017547605243912,42.17932155220454,1.4008773802621957,0.6625512336090371,A,1059,Correct
1,relearn,37,60,B,83.65453963200949,67.76830888428765,4.182726981600474,1.0645021066854101,B,542,Correct
1,relearn,37,61,A,45.00494908252503,73.16978543812789,2.2502474541262516,1.14934830198582,B,925,Incorrect
1,relearn,37,62,B,63.39791060011395,40.99819919465837,3.1698955300056975,0.6439982070017485,B,1477,Correct
1,relearn,37,63,A,22.687380992339737,39.7536146613423,1.134369049616987,0.6244483188685622,A,1061,Correct
1,relearn,37,64,B,72.52134242070908,45.247336912304874,3.6260671210354536,0.7107435061909964,B,956,Correct
1,relearn,37,65,B,80.31331609823417,51.81114129989361,4.015665804911708,0.8138475044092425,B,531,Correct
1,relearn,37,66,B,63.59363422582899,52.82468183778359,3.1796817112914493,0.8297681619489953,B,467,Correct
1,relearn,37,67,A,60.41806897913466,83.39298291567088,3.020903448956733,1.3099339124440539,B,480,Incorrect
1,relearn,37,68,B,89.62406950022519,66.32546363193072,4.4812034750112595,1.0418379464600527,B,602,Correct
1,relearn,37,69,A,66.32371584375352,83.24326788150987,3.316185792187676,1.307582194186793,B,533,Incorrect
1,relearn,37,70,B,49.97429658249495,37.82398287806255,2.4987148291247476,0.5941377336961372,B,584,Correct
1,relearn,37,71,B,58.31004586677321,35.06972461704318,2.91550229333866,0.5508739461015999,B,1094,Correct
1,relearn,37,72,A,53.44376185049857,63.39958229325156,2.6721880925249284,0.9958783098657032,A,783,Correct
1,relearn,37,73,A,37.60398239162823,54.30814157496436,1.8801991195814114,0.8530702930101122,A,638,Correct
1,relearn,37,74,A,21.846600259493048,41.54605789202397,1.0923300129746523,0.6526039512959938,A,698,Correct
1,relearn,37,75,B,30.24781684696381,14.730484189268733,1.5123908423481904,0.2313859045641363,A,911,Incorrect
1,relearn,37,76,B,40.811452082424424,31.39880615985714,2.040572604121221,0.4932112938164857,B,722,Correct
1,relearn,37,77,A,68.10304777300135,80.77269937690949,3.4051523886500674,1.2687745948655784,A,1876,Correct
1,relearn,37,78,A,21.660361126784398,44.347248138447284,1.0830180563392198,0.6966049447933482,A,759,Correct
1,relearn,37,79,B,62.222638503582736,37.44432684635027,3.1111319251791367,0.5881741106955455,A,747,Incorrect
1,relearn,37,80,A,43.91308127150429,68.84025252392642,2.1956540635752146,1.0813401580021673,B,1341,Incorrect
1,relearn,37,81,A,26.447185913636822,58.722292835364456,1.322359295681841,0.9224076188676475,A,772,Correct
1,relearn,37,82,A,14.140681499655972,36.99464635269025,0.7070340749827986,0.5811105460188207,A,773,Correct
1,relearn,37,83,B,72.09479671358989,49.31900819583914,3.604739835679494,0.7747011691519151,B,1101,Correct
1,relearn,37,84,B,47.98532377784154,31.229018006053803,2.399266188892077,0.4905442677332099,B,2259,Correct
1,relearn,37,85,B,73.24454000968176,52.707621197999295,3.662227000484088,0.8279293777191412,B,839,Correct
1,relearn,37,86,B,73.90868732995521,45.38238365579702,3.6954343664977607,0.712864815477227,B,500,Correct
1,relearn,37,87,A,19.418069400811262,49.69040529227938,0.9709034700405631,0.7805350611006214,A,695,Correct
1,relearn,37,88,A,44.828544279768266,60.35703168884482,2.2414272139884135,0.948086036730806,B,1287,Incorrect
1,relearn,37,89,B,79.38681725080633,63.75321812088168,3.9693408625403164,1.0014332084563478,B,834,Correct
1,relearn,37,90,B,76.44543222779143,48.90728800547322,3.8222716113895716,0.7682338835249743,B,982,Correct
1,relearn,37,91,B,88.06196838596941,64.71817481173863,4.403098419298471,1.0165907127114904,B,803,Correct
1,relearn,37,92,A,34.332848333328286,51.79349698943292,1.7166424166664143,0.8135703482286375,A,681,Correct
1,relearn,37,93,B,60.16031450221929,36.0546302338574,3.008015725110965,0.5663448073529143,B,716,Correct
1,relearn,37,94,A,29.15837807641787,48.44987668534169,1.4579189038208935,0.7610488833100042,A,621,Correct
1,relearn,37,95,A,62.72030377123919,75.13721276991137,3.1360151885619594,1.1802525782458337,B,631,Incorrect
1,relearn,37,96,B,44.64989888307993,37.40025288870036,2.2324949441539963,0.5874817985877074,B,1750,Correct
1,relearn,37,97,B,65.8974636948445,55.001029089755235,3.2948731847422255,0.8639541446412679,B,598,Correct
1,relearn,37,98,A,31.627401933116538,48.86659164915672,1.581370096655827,0.7675946266548154,A,1386,Correct
1,relearn,37,99,A,34.93612430262448,54.988574143561166,1.7468062151312238,0.8637585028039471,A,524,Correct
1,relearn,37,100,A,35.63311396200166,64.12065698604923,1.7816556981000828,1.0072049246536166,B,2364,Incorrect
1,relearn,37,101,B,44.86095548490249,27.739610561413876,2.2430477742451247,0.4357327837658984,A,1852,Incorrect
1,relearn,37,102,B,59.63261592669252,38.49274879477268,2.9816307963346262,0.604642684150676,B,1175,Correct
1,relearn,37,103,A,30.663932549108107,55.68555940359442,1.5331966274554054,0.8747067216668514,B,2047,Incorrect
1,relearn,37,104,B,34.78075568218088,11.104174891550727,1.739037784109044,0.17442397131735998,B,2928,Correct
1,relearn,37,105,B,65.71505270828517,46.242361437286924,3.2857526354142585,0.7263733148801227,B,2240,Correct
1,relearn,37,106,A,28.564318174173586,49.030781408210785,1.4282159087086794,0.7701737133590101,A,1199,Correct
1,relearn,37,107,B,66.09236997833528,47.63931907677947,3.3046184989167644,0.7483166741681523,B,604,Correct
1,relearn,37,108,B,79.23255376357316,57.571449460219014,3.961627688178658,0.9043302134037006,B,656,Correct
1,relearn,37,109,A,37.35547672016367,56.75439467769346,1.8677738360081835,0.8914959468918873,A,730,Correct
1,relearn,37,110,A,40.72652882883076,56.15299608351872,2.036326441441538,0.8820491998651941,A,649,Correct
1,relearn,37,111,A,55.794448839389645,66.88474338023242,2.789722441969482,1.0506230922028836,B,558,Incorrect
1,relearn,37,112,B,77.56826185322737,60.57104087082777,3.878413092661368,0.9514476851003981,B,891,Correct
1,relearn,37,113,B,58.676168489035476,38.30986772625023,2.933808424451774,0.6017699950439221,A,1049,Incorrect
1,relearn,37,114,A,48.73823812443451,68.32992134114323,2.4369119062217255,1.07332389452852,A,1691,Correct
1,relearn,37,115,A,35.041048387293436,54.550306358779004,1.7520524193646718,0.8568742085390636,A,1994,Correct
1,relearn,37,116,B,76.23954755248347,54.820736951358356,3.811977377624174,0.8611221223538296,B,789,Correct
1,relearn,37,117,B,86.93502518634558,65.63572104136878,4.346751259317279,1.031003495183166,B,587,Correct
1,relearn,37,118,B,43.23822737641921,19.75191495470093,2.161911368820961,0.31026235458009405,A,748,Incorrect
1,relearn,37,119,A,31.246201687295738,62.03131163135892,1.562310084364787,0.9743855645680813,A,2738,Correct
1,relearn,37,120,B,45.33954325334944,29.70022399565484,2.2669771626674717,0.46653002757360273,B,1181,Correct
1,relearn,37,121,A,30.256332086295984,57.097875084379865,1.512816604314799,0.8968913245033774,B,1771,Incorrect
1,relearn,37,122,B,64.37820369137755,53.13677037639793,3.2189101845688777,0.8346704372498975,B,1472,Correct
1,relearn,37,123,A,65.86459433208452,81.13819965711673,3.293229716604226,1.274515859841499,A,1117,Correct
1,relearn,37,124,B,52.41413648416938,41.586221329709474,2.6207068242084692,0.6532348370998722,B,692,Correct
1,relearn,37,125,A,55.52571643464661,74.60553939566428,2.7762858217323303,1.171901072412614,B,2763,Incorrect
1,relearn,37,126,B,74.31512552385121,54.36007241778108,3.71575627619256,0.853886020781551,B,568,Correct
1,relearn,37,127,A,46.839522094574086,61.629902773991404,2.341976104728704,0.9680802489811231,A,1139,Correct
1,relearn,37,128,A,22.847029921453327,40.187153710086086,1.1423514960726664,0.6312583343214513,A,662,Correct
1,relearn,37,129,A,19.51103206910099,43.920133480197244,0.9755516034550495,0.6898958434303539,A,1698,Correct
1,relearn,37,130,A,36.67182367467475,47.57016662012805,1.8335911837337375,0.7472304299191835,A,2603,Correct
1,relearn,37,131,B,50.22462473337963,24.96507653938486,2.5112312366689817,0.39215050526219186,B,1177,Correct
1,relearn,37,132,A,66.61904311410325,78.78623142275532,3.3309521557051625,1.2375712292087673,A,1021,Correct
1,relearn,37,133,B,80.91062723953317,53.46539829919597,4.045531361976658,0.8398325125900314,B,669,Correct
1,relearn,37,134,B,53.587643671072826,28.520016453306837,2.6793821835536415,0.447991370849844,B,1034,Correct
1,relearn,37,135,A,38.13450730491573,50.4250558439535,1.9067253652457865,0.7920749249810968,A,1913,Correct
1,relearn,37,136,B,45.63441067963914,29.19493362010555,2.281720533981957,0.45859294491482633,B,1415,Correct
1,relearn,37,137,A,18.184929957800012,35.81086870107329,0.9092464978900006,0.5625158101498026,A,728,Correct
1,relearn,37,138,B,74.11097200374086,53.74963392553885,3.705548600187043,0.8442972753680678,B,683,Correct
1,relearn,37,139,A,28.24007578130561,52.98946773870304,1.4120037890652803,0.8323566128277142,A,555,Correct
1,relearn,37,140,B,81.02541370418967,63.06671810176473,4.0512706852094835,0.9906496913726124,B,590,Correct
1,relearn,37,141,B,42.48619346792645,18.185814610160286,2.1243096733963225,0.2856621078941274,A,624,Incorrect
1,relearn,37,142,B,38.38238118560893,29.32523337002945,1.9191190592804463,0.4606396886004539,B,1385,Correct
1,relearn,37,143,B,54.6407301758601,37.209238131334445,2.732036508793005,0.5844813457953675,B,1170,Correct
1,relearn,37,144,B,63.182295199837704,47.14256855006917,3.159114759991885,0.7405137351412526,B,483,Correct
1,relearn,37,145,A,26.432857193893284,56.18735787667527,1.321642859694664,0.8825889536499181,A,595,Correct
1,relearn,37,146,B,85.06083009348907,66.54175191701577,4.253041504674454,1.0452353948974564,B,603,Correct
1,relearn,37,147,A,29.401789225088972,42.5740583677212,1.4700894612544486,0.66875174500768,A,719,Correct
1,relearn,37,148,A,25.09572066217772,49.471794275734275,1.2547860331088858,0.7771011272827618,A,591,Correct
1,relearn,37,149,A,13.470311234463654,30.2782706418292,0.6735155617231827,0.47560996305887066,A,532,Correct
1,relearn,37,150,B,60.918912448811454,32.57130766050386,3.0459456224405725,0.5116289043202594,B,544,Correct
1,relearn,37,151,A,52.85521261983562,64.24338164443063,2.642760630991781,1.0091326790795432,A,2516,Correct
1,relearn,37,152,A,20.84075687780989,39.53397388820362,1.0420378438904947,0.620998209671956,A,595,Correct
1,relearn,37,153,A,57.97947482504701,73.73089381870251,2.8989737412523504,1.1581621718172244,B,601,Incorrect
1,relearn,37,154,A,15.41124973246087,33.81938563099537,0.7705624866230436,0.5312336672362763,A,613,Correct
1,relearn,37,155,B,61.607728353406344,50.64127486698958,3.0803864176703173,0.7954712854527796,B,603,Correct
1,relearn,37,156,B,78.20128951054602,55.31026261959235,3.910064475527301,0.8688115735691674,B,958,Correct
1,relearn,37,157,B,51.383175014896075,28.53685063723369,2.5691587507448035,0.44825580159261286,B,863,Correct
1,relearn,37,158,A,38.4253666446289,50.51052344823805,1.921268332231445,0.7934174469697982,A,1545,Correct
1,relearn,37,159,A,47.204090297796014,69.00192989947033,2.360204514889801,1.0838797802784694,A,3383,Correct
1,relearn,37,160,A,45.19292976621656,71.05798955771743,2.259646488310828,1.1161762898669267,B,2429,Incorrect
1,relearn,37,161,A,57.79623432689645,80.84017511015296,2.889811716344823,1.2698345012048449,A,1682,Correct
1,relearn,37,162,B,56.40031737130058,40.3049632244241,2.820015868565029,0.6331088818452877,B,542,Correct
1,relearn,37,163,B,52.98663776319272,28.080658266665452,2.649331888159636,0.44108994859260836,B,547,Correct
1,relearn,37,164,B,76.81113161482311,65.40869496372528,3.840556580741156,1.027437377894675,B,658,Correct
1,relearn,37,165,A,53.430987585088104,68.95599317599374,2.6715493792544054,1.0831582079134492,B,642,Incorrect
1,relearn,37,166,B,56.11639280355875,25.913818230097604,2.805819640177938,0.4070533048906795,B,881,Correct
1,relearn,37,167,A,46.728620245014085,71.30475834393701,2.3364310122507046,1.1200525248965398,A,1232,Correct
1,relearn,37,168,B,64.03724039950558,43.66436540460299,3.2018620199752785,0.6858782478938054,B,587,Correct
1,relearn,37,169,A,50.260948619847724,75.29420178038708,2.5130474309923865,1.182718555855858,A,2017,Correct
1,relearn,37,170,A,49.68449654333956,57.184784854154195,2.484224827166978,0.8982564999746185,B,757,Incorrect
1,relearn,37,171,A,23.385575967449938,39.014343058159064,1.1692787983724968,0.6128358676807222,A,674,Correct
1,relearn,37,172,B,65.62506097810085,35.634582857497286,3.2812530489050427,0.5597467185942512,B,608,Correct
1,relearn,37,173,B,50.60014859734834,27.033851780869682,2.5300074298674167,0.4246467507650777,B,514,Correct
1,relearn,37,174,A,31.548695116713755,51.56350197537829,1.5774347558356876,0.809957594996056,A,908,Correct
1,relearn,37,175,B,57.567546623437906,34.81418366399723,2.8783773311718956,0.5468599181976974,B,544,Correct
1,relearn,37,176,B,36.82458681589438,11.7360097671447,1.841229340794719,0.18434881033459927,A,938,Incorrect
1,relearn,37,177,B,56.92931487738489,37.234882399096215,2.8464657438692442,0.5848841650114028,B,967,Correct
1,relearn,37,178,B,87.89594145091742,61.88296651109993,4.394797072545871,0.9720553648680736,B,733,Correct
1,relearn,37,179,B,71.67549451071983,47.14744095472512,3.5837747255359913,0.7405902706946149,B,458,Correct
1,relearn,37,180,B,59.947581240689466,33.819539001950865,2.997379062034473,0.5312360763816116,B,2917,Correct
1,relearn,37,181,B,72.30048066317845,60.661941135424016,3.6150240331589227,0.9528755431177228,A,1323,Incorrect
1,relearn,37,182,B,74.60654267948226,58.224642461512445,3.7303271339741126,0.9145905450748992,B,406,Correct
1,relearn,37,183,B,41.82031852495584,27.224504413793767,2.091015926247792,0.427641515319987,A,1386,Incorrect
1,relearn,37,184,A,39.12394138345757,61.63151966632132,1.9561970691728785,0.9681056470664496,A,991,Correct
1,relearn,37,185,B,67.1812806186639,44.95609957840775,3.359064030933195,0.7061687608478848,B,623,Correct
1,relearn,37,186,A,30.199041982774098,41.98420341655334,1.509952099138705,0.6594863251013173,A,578,Correct
1,relearn,37,187,B,43.083744820165464,34.83401715494856,2.154187241008273,0.5471714619450362,A,3381,Incorrect
1,relearn,37,188,A,31.685887931476167,45.4991115869616,1.5842943965738083,0.7146983735323039,A,956,Correct
1,relearn,37,189,B,75.50611536474356,48.74519573728438,3.7753057682371782,0.7656877441302454,B,506,Correct
1,relearn,37,190,A,25.67493965806937,52.744500083424256,1.2837469829034687,0.8285086698967594,A,545,Correct
1,relearn,37,191,A,45.09845346658887,75.91832137624807,2.2549226733294434,1.1925222035424494,A,1339,Correct
1,relearn,37,192,A,67.33546642187622,89.03901639167796,3.366773321093811,1.3986215988947832,B,681,Incorrect
1,relearn,37,193,B,50.170251925630254,35.94597660361266,2.5085125962815127,0.5646380801201005,B,1385,Correct
1,relearn,37,194,B,56.27768151080519,28.239705811818418,2.8138840755402597,0.44358826158972864,B,518,Correct
1,relearn,37,195,B,37.54022686183863,19.59499386852163,1.8770113430919315,0.307797443922423,A,433,Incorrect
1,relearn,37,196,B,73.66848583310436,55.46106898723183,3.683424291655218,0.8711804344526212,B,620,Correct
1,relearn,37,197,A,31.057221306352027,50.934279106584455,1.5528610653176014,0.800073785285689,A,606,Correct
1,relearn,37,198,A,56.68026302523786,75.01301442815509,2.8340131512618933,1.178301675255586,A,2211,Correct
1,relearn,37,199,B,38.64126615012101,25.523156750273735,1.9320633075060505,0.4009168087154035,B,1778,Correct
1,relearn,37,200,B,88.10686568597706,69.39483232697555,4.405343284298852,1.0900514771776093,B,991,Correct
1,relearn,37,201,A,34.71742000768208,53.99967622202311,1.735871000384104,0.848224930576676,A,755,Correct
1,relearn,37,202,A,50.93984893086904,81.48527324161404,2.546992446543452,1.2799676789580579,A,1488,Correct
1,relearn,37,203,A,27.666671560940273,37.36027701761435,1.3833335780470137,0.5868538590730842,A,904,Correct
1,relearn,37,204,B,32.09280527768888,17.319999354306677,1.6046402638844441,0.2720619136583491,B,996,Correct
1,relearn,37,205,A,52.739760380984166,63.41355511552342,2.6369880190492085,0.9960977944446991,A,998,Correct
1,relearn,37,206,A,43.422974757823575,50.73107406154017,2.1711487378911785,0.7968818479022716,A,1442,Correct
1,relearn,37,207,A,43.69975768326462,73.84576142760778,2.184987884163231,1.1599665079985857,A,712,Correct
1,relearn,37,208,B,86.29091279781699,57.93797913590318,4.3145456398908495,0.9100876480859608,B,614,Correct
1,relearn,37,209,A,26.339547285484098,48.45568166344226,1.3169773642742049,0.7611400676927793,A,692,Correct
1,relearn,37,210,B,65.96906707300074,41.46053062776202,3.2984533536500376,0.6512604921705589,B,523,Correct
1,relearn,37,211,A,25.838968850892215,38.307940737488025,1.2919484425446108,0.6017397259752276,A,800,Correct
1,relearn,37,212,B,77.08173311205105,57.68432713204929,3.8540866556025524,0.9061032917265823,B,535,Correct
1,relearn,37,213,A,39.274576242487704,70.37149175557974,1.9637288121243852,1.10539280760742,A,819,Correct
1,relearn,37,214,A,27.751464420446823,57.354228911573166,1.3875732210223413,0.900918121004528,A,578,Correct
1,relearn,37,215,A,33.071329520968014,58.45233138604187,1.6535664760484008,0.918167074337926,A,507,Correct
1,relearn,37,216,A,26.371436453027076,50.57679266819703,1.3185718226513539,0.7944584014427095,A,520,Correct
1,relearn,37,217,A,63.07028923034751,87.54031086693436,3.1535144615173754,1.3750799875626387,A,1096,Correct
1,relearn,37,218,A,38.996369767198885,57.118916924973846,1.949818488359944,0.8972218489625178,B,1580,Incorrect
1,relearn,37,219,B,47.28053729155993,30.934731100312746,2.3640268645779967,0.4859216198275911,B,614,Correct
1,relearn,37,220,B,57.114329076188874,43.75811139727535,2.8557164538094435,0.6873508065032201,B,515,Correct
1,relearn,37,221,B,61.903997058106334,30.634936435736474,3.0951998529053166,0.48121245624849984,B,535,Correct
1,relearn,37,222,B,40.30529353294523,20.03766078948903,2.0152646766472615,0.31475083965691497,B,1125,Correct
1,relearn,37,223,B,70.55989383520554,48.986793737159196,3.5279946917602776,0.769482756637889,B,491,Correct
1,relearn,37,224,B,64.76840563849976,39.78125629036994,3.238420281924988,0.6248825125619947,B,553,Correct
1,relearn,37,225,B,46.70320739169678,38.07819758900031,2.335160369584839,0.5981309290377197,B,1425,Correct
1,relearn,37,226,B,78.20589757472678,59.98924694498508,3.910294878736339,0.9423088874837453,B,587,Correct
1,relearn,37,227,A,23.210328312446084,50.09794333871707,1.1605164156223042,0.7869366537643562,A,666,Correct
1,relearn,37,228,B,43.96601233459462,31.028208357672558,2.198300616729731,0.4873899571525876,B,1611,Correct
1,relearn,37,229,B,68.1066346815282,58.7131534727031,3.40533173407641,0.9222640580946706,B,795,Correct
1,relearn,37,230,A,55.302218139485774,82.31917538168803,2.7651109069742885,1.2930665831434043,A,777,Correct
1,relearn,37,231,B,50.513212198676015,24.13469594874881,2.5256606099338006,0.379106917446063,B,632,Correct
1,relearn,37,232,B,58.94236112973129,33.35774228187169,2.9471180564865644,0.5239821904653486,B,786,Correct
1,relearn,37,233,B,47.58955923173973,29.751365360842104,2.379477961586986,0.467333354259437,B,779,Correct
1,relearn,37,234,B,36.19552359442654,12.470470618887184,1.809776179721327,0.19588569441551668,B,1144,Correct
1,relearn,37,235,A,56.039388282948266,83.0521224311164,2.8019694141474134,1.3045796884731768,A,928,Correct
1,relearn,37,236,A,40.603328442480816,64.18135269346972,2.0301664221240405,1.0081583305962998,B,647,Incorrect
1,relearn,37,237,B,80.64695495073164,58.827549504816204,4.032347747536582,0.9240609867651023,B,512,Correct
1,relearn,37,238,B,76.52295821354465,52.26733677049003,3.826147910677233,0.8210134061043759,B,550,Correct
1,relearn,37,239,A,14.557802027246893,39.245348707510864,0.7278901013623447,0.6164644959354291,A,643,Correct
1,relearn,37,240,B,41.46028271213263,26.26320947321836,2.0730141356066314,0.4125415297037633,B,1230,Correct
1,relearn,37,241,B,73.94811106216687,42.204325969738555,3.6974055531083434,0.6629440020811977,B,518,Correct
1,relearn,37,242,A,58.40845924381808,75.72662660321146,2.920422962190904,1.1895110690889326,B,467,Incorrect
1,relearn,37,243,A,57.21382349110306,77.19024973693188,2.860691174555153,1.2125016075115334,A,803,Correct
1,relearn,37,244,B,41.68250877378877,24.71551161273352,2.0841254386894383,0.38823034856138416,B,522,Correct
1,relearn,37,245,A,43.80853911009825,67.64568322090685,2.1904269555049125,1.0625759072693164,A,651,Correct
1,relearn,37,246,B,66.32794908256305,36.176130650813626,3.3163974541281527,0.5682533314395031,B,561,Correct
1,relearn,37,247,B,82.91066399045292,57.225465589722326,4.145533199522646,0.8988955114746358,B,644,Correct
1,relearn,37,248,B,33.330012085777135,12.134403556657112,1.6665006042888566,0.1906067653464392,B,2527,Correct
1,relearn,37,249,A,23.883093295558858,46.79483821692794,1.194154664777943,0.7350515998411186,B,867,Incorrect
1,relearn,37,250,A,30.875991382449314,58.29258738244211,1.5437995691224657,0.915657821397106,B,2381,Incorrect
1,relearn,37,251,A,39.9270694401503,56.04207560340213,1.996353472007515,0.8803068650378595,A,1594,Correct
1,relearn,37,252,A,42.396258262425704,66.12252061107318,2.1198129131212853,1.038650124942936,A,1042,Correct
1,relearn,37,253,A,24.082133587634203,46.1364100641384,1.2041066793817101,0.724709034602517,A,574,Correct
1,relearn,37,254,B,52.0204964336388,43.11251879092655,2.60102482168194,0.6772098615566338,B,697,Correct
1,relearn,37,255,B,78.50221534780565,57.04163954357668,3.925110767390282,0.8960079786940877,B,838,Correct
1,relearn,37,256,A,53.60530858313526,69.41586478081679,2.6802654291567634,1.0903818541899823,A,932,Correct
1,relearn,37,257,B,70.05590140469283,48.312082577434204,3.5027950702346415,0.7588844185244537,B,636,Correct
1,relearn,37,258,A,46.6329442583244,68.99618028426868,2.33164721291622,1.083789465534077,A,551,Correct
1,relearn,37,259,A,44.96563741027137,61.76209306800277,2.2482818705135683,0.970156689263833,B,619,Incorrect
1,relearn,37,260,B,52.873400831651566,24.057583076805415,2.6436700415825785,0.37789563128609005,B,622,Correct
1,relearn,37,261,A,64.65832777542602,86.23853916553318,3.232916388771301,1.3546318054937734,A,611,Correct
1,relearn,37,262,B,58.337317630081664,30.115793856819966,2.9168658815040835,0.4730577836880512,B,524,Correct
1,relearn,37,263,B,56.69106437121609,41.62830394839302,2.8345532185608047,0.6538958693283724,B,633,Correct
1,relearn,37,264,B,82.01519941892481,64.68197687176749,4.10075997094624,1.0160221168000483,B,622,Correct
1,relearn,37,265,A,52.95760877614494,79.76969211583332,2.6478804388072468,1.253019393651108,B,1652,Incorrect
1,relearn,37,266,B,56.66873743707539,26.292027924430563,2.8334368718537695,0.4129942088768438,B,726,Correct
1,relearn,37,267,A,57.96617486307335,70.84571576825891,2.898308743153667,1.112841900979364,A,1159,Correct
1,relearn,37,268,B,64.25305077955628,44.56871041326028,3.2126525389778133,0.7000836660713469,B,575,Correct
1,relearn,37,269,A,25.755725429954914,52.02045882015205,1.2877862714977457,0.8171354563288002,A,709,Correct
1,relearn,37,270,B,69.44960600963742,59.72320967221333,3.472480300481871,0.9381299837751413,B,589,Correct
1,relearn,37,271,B,55.33073576259031,47.952308288588235,2.7665367881295153,0.7532330972105086,B,469,Correct
1,relearn,37,272,A,46.61217807128167,74.6818222865492,2.3306089035640833,1.1730993212606071,A,516,Correct
1,relearn,37,273,A,43.11859752219162,64.9071971654059,2.1559298761095813,1.0195598688997172,A,640,Correct
1,relearn,37,274,B,48.01138212935696,19.344312508201195,2.400569106467848,0.30385975032255014,B,649,Correct
1,relearn,37,275,A,12.38744425755824,33.558344178478336,0.619372212877912,0.5271332376887267,A,536,Correct
1,relearn,37,276,B,53.772975514083676,45.205806759027865,2.688648775704184,0.7100911520688088,B,544,Correct
1,relearn,37,277,A,50.28704236460881,64.13579435378756,2.5143521182304402,1.0074427018700238,B,1708,Incorrect
1,relearn,37,278,A,67.19977677718367,84.701835623151,3.3599888388591834,1.3304933226963072,A,789,Correct
1,relearn,37,279,A,50.55103988914792,80.95604953036934,2.527551994457396,1.2716546523412988,A,575,Correct
1,relearn,37,280,B,58.4496344068217,29.494673959277268,2.922481720341085,0.4633012551524582,B,619,Correct
1,relearn,37,281,A,30.782502284593072,45.29730389070331,1.5391251142296536,0.7115283856522894,B,2590,Incorrect
1,relearn,37,282,B,66.61247608290847,56.966909438607914,3.3306238041454237,0.8948341209502284,B,552,Correct
1,relearn,37,283,A,13.516049207816529,35.693073485835306,0.6758024603908265,0.5606654872357042,A,458,Correct
1,relearn,37,284,A,48.8771805325422,77.94315322969547,2.4438590266271096,1.2243281879201742,A,1173,Correct
1,relearn,37,285,A,30.11463037020667,48.781007361552824,1.5057315185103335,0.76625027180882,B,1114,Incorrect
1,relearn,37,286,A,47.74897755505327,74.3401139475432,2.3874488777526635,1.1677317792231492,A,734,Correct
1,relearn,37,287,A,16.03549782795449,31.04983986081088,0.8017748913977245,0.48772974400931496,A,669,Correct
1,relearn,37,288,B,53.93404065887983,29.55269889449219,2.6967020329439912,0.4642127087034393,B,783,Correct
1,relearn,37,289,B,71.17438426440164,44.31104779056243,3.5587192132200816,0.6960363110584857,B,735,Correct
1,relearn,37,290,A,18.975866047871115,40.55661870097818,0.9487933023935556,0.6370618768271774,A,594,Correct
1,relearn,37,291,B,54.55096358389425,31.53472894951045,2.7275481791947125,0.495346364003637,B,1147,Correct
1,relearn,37,292,B,87.77623503100565,66.06514546097536,4.388811751550282,1.0377488781927062,B,1298,Correct
1,relearn,37,293,A,49.43259721105407,60.550950025779315,2.471629860552704,0.951132098844355,B,1496,Incorrect
1,relearn,37,294,B,35.00320826418324,24.72232618784729,1.750160413209162,0.388337391656958,A,607,Incorrect
1,relearn,37,295,A,48.54075173778891,61.58577827775835,2.427037586889446,0.9673871430150777,A,1150,Correct
1,relearn,37,296,B,75.41775875118434,58.38269034731015,3.770887937559217,0.9170731554595863,B,698,Correct
1,relearn,37,297,B,78.19514370766694,46.50700449670076,3.9097571853833473,0.7305303183365129,B,526,Correct
1,relearn,37,298,B,66.96744302647903,57.20436894380137,3.3483721513239515,0.8985641261354325,B,859,Correct
1,relearn,37,299,B,53.177469460780635,28.09723171139231,2.6588734730390318,0.44135028365360124,B,1544,Correct
1,relearn,37,300,B,74.18869617918173,62.49064715159608,3.7094348089590867,0.9816007900476309,A,736,Incorrect
1,relearn,37,301,A,31.547620350179137,55.242192324072136,1.5773810175089569,0.8677423278674975,A,1057,Correct
1,relearn,37,302,B,51.98995954941566,42.954885653719444,2.5994979774707825,0.6747337660275731,B,528,Correct
1,relearn,37,303,A,60.086691900585066,74.27656093933798,3.004334595029253,1.166733490904694,A,859,Incorrect
1,relearn,37,304,A,64.44644218092388,77.52155769188454,3.2223221090461944,1.2177057806983091,A,743,Incorrect
1,relearn,37,305,B,68.76249974343314,48.669938837834444,3.4381249871716566,0.7645056115180263,B,504,Incorrect
1,relearn,37,306,A,40.97996825082827,58.779696298358736,2.0489984125414136,0.9233093103558149,A,1085,Incorrect
1,relearn,37,307,B,50.35049327580387,21.97523800646876,2.5175246637901934,0.34518623141004734,B,626,Correct
1,relearn,37,308,A,51.880504020607624,76.66019630634717,2.594025201030381,1.2041755476938585,A,922,Correct
1,relearn,37,309,B,78.0730117483694,61.08511220398157,3.9036505874184697,0.9595226987186836,B,633,Correct
1,relearn,37,310,A,19.366128682761914,35.35855390842201,0.9683064341380957,0.5554108660012863,A,580,Incorrect
1,relearn,37,311,A,24.832441516314297,55.64445035870936,1.241622075815715,0.8740609822998163,A,598,Incorrect
1,relearn,37,312,B,55.80971955538052,43.5247498701361,2.7904859777690256,0.6836851722067643,B,1353,Correct
1,relearn,37,313,B,80.81270434392295,50.58655737367636,4.040635217196147,0.7946117850777012,B,570,Incorrect
1,relearn,37,314,B,70.54969119837025,46.15681094972688,3.527484559918513,0.7250294909639744,B,658,Incorrect
1,relearn,37,315,B,40.077106146933275,24.83462337598156,2.0038553073466634,0.3901013517632651,B,1482,Correct
1,relearn,37,316,A,49.12935343515323,62.38783483560143,2.4564676717576615,0.9799858179644942,A,1442,Correct
1,relearn,37,317,A,19.681650050296785,33.585698011850894,0.9840825025148392,0.5275629106985805,A,906,Incorrect
1,relearn,37,318,B,71.95726570908684,51.19214327453235,3.597863285454342,0.8041243061639349,B,1055,Incorrect
1,relearn,37,319,A,64.31954797858663,81.15489413549679,3.2159773989293314,1.2747780960946704,A,2721,Incorrect
1,relearn,37,320,B,63.465352434683616,34.895123323470195,3.173267621734181,0.5481313153956191,B,1684,Correct
1,relearn,37,321,B,58.792746815141925,26.644172655875455,2.939637340757096,0.41852568538338186,B,976,Correct
1,relearn,37,322,A,50.434415231710716,69.57777527238693,2.5217207615855357,1.0929251382442617,A,776,Incorrect
1,relearn,37,323,A,49.101971758319,68.02826484112254,2.45509858791595,1.0685854853066568,A,2214,Correct
1,relearn,37,324,A,23.21301246082332,36.53416468081265,1.1606506230411662,0.5738773168314036,B,1869,Correct
1,relearn,37,325,B,51.580942415114244,43.977318561872885,2.579047120755712,0.6907941045927896,A,1598,Incorrect
1,relearn,37,326,B,79.59477442787022,64.85182880062092,3.979738721393511,1.0186901446594683,B,1121,Correct
1,relearn,37,327,A,45.24667526010357,71.72934427644024,2.262333763005179,1.1267219051283888,A,1047,Correct
1,relearn,37,328,A,56.05400254599787,79.53710358714062,2.8027001272998935,1.2493659015858567,A,1409,Correct
1,relearn,37,329,B,76.43162581266836,45.78693901058646,3.821581290633418,0.7192195561301118,B,1134,Correct
1,relearn,37,330,A,65.1943309847715,86.37463628697606,3.259716549238575,1.356769614078272,A,684,Incorrect
1,relearn,37,331,B,84.39321788316292,61.415797493738495,4.219660894158146,0.9647170911034364,B,652,Correct
1,relearn,37,332,A,53.56255672954556,63.45735410490374,2.6781278364772785,0.9967857873610586,B,1141,Correct
1,relearn,37,333,B,41.31414124646352,28.25483990348252,2.065707062323176,0.4438259873456821,B,699,Incorrect
1,relearn,37,334,B,43.633964466775645,28.8806943113236,2.181698223338782,0.45365688539513377,B,1077,Correct
1,relearn,37,335,A,46.0132222407665,57.61017474021657,2.300661112038325,0.9049385086794431,B,2242,Correct
1,relearn,37,336,A,66.19677732929598,85.38936492119016,3.309838866464799,1.341293007655545,A,779,Incorrect
1,relearn,37,337,A,49.97158638679568,60.78498765136631,2.498579319339784,0.9548083532703935,B,898,Incorrect
1,relearn,37,338,A,61.629367329649426,73.97260440646734,3.081468366482471,1.1619589528513088,B,858,Incorrect
1,relearn,37,339,B,56.81314961846652,31.333880245466123,2.840657480923326,0.4921914399380936,B,646,Correct
1,relearn,37,340,A,45.551900803778864,63.66120835994536,2.277595040188943,0.9999879225112674,A,2583,Incorrect
1,relearn,37,341,A,18.120277298793507,40.450567891373964,0.9060138649396754,0.6353960346053781,A,767,Incorrect
1,relearn,37,342,A,22.885096346165827,39.34951218188493,1.1442548173082914,0.6181006919647589,B,1088,Correct
1,relearn,37,343,B,80.09197579189696,63.00229842787409,4.004598789594848,0.989637789501405,B,776,Incorrect
1,relearn,37,344,A,28.863228550582754,49.1127777751241,1.4431614275291378,0.7714617092785897,B,2985,Correct
1,relearn,37,345,A,48.53642530119957,55.95186375941486,2.4268212650599787,0.8788898207061736,B,1800,Incorrect
1,relearn,37,346,A,67.90693047117085,86.82533398652338,3.3953465235585427,1.36384915698771,B,1619,Correct
1,relearn,37,347,B,84.78604375942653,61.196392889663244,4.239302187971327,0.9612706916418035,A,2156,Correct
1,relearn,37,348,B,55.32965834162121,44.393811224833705,2.7664829170810608,0.6973363560439484,A,3406,Correct
1,relearn,37,349,B,75.09236157309323,61.043188686622024,3.7546180786546612,0.9588641656479366,A,852,Incorrect
1,relearn,37,350,B,41.00246601016245,17.48227695330893,2.0501233005081225,0.2746109642226874,B,1695,Correct
1,relearn,37,351,B,62.10966275811634,40.965159046276256,3.105483137905817,0.6434792135645948,A,2142,Correct
1,relearn,37,352,B,45.987434045263996,30.155151482022823,2.2993717022632,0.47367601181905133,A,2058,Incorrect
1,relearn,37,353,A,62.961503632231924,73.80731796734047,3.1480751816115964,1.1593626395368137,B,1599,Incorrect
1,relearn,37,354,B,33.62013061169681,12.56897276223635,1.6810065305848405,0.1974329624650596,B,2095,Incorrect
1,relearn,37,355,A,56.63063394678683,68.21780813248995,2.8315316973393414,1.0715628243651423,A,2458,Incorrect
1,relearn,37,356,B,68.88064923972414,39.7260420643771,3.4440324619862066,0.624015209528231,A,1212,Correct
1,relearn,37,357,B,54.447728069745274,45.394836538463665,2.722386403487264,0.7130604249007348,A,3189,Correct
1,relearn,37,358,B,87.27829398866814,61.52224778938539,4.363914699433407,0.9663892084373201,B,1563,Incorrect
1,relearn,37,359,A,44.760947277048075,65.62448442598728,2.2380473638524037,1.030826990841497,B,2596,Correct
1,relearn,37,360,B,86.64526949264146,59.16717467120528,4.3322634746320725,0.929395806403613,A,2375,Incorrect
1,relearn,37,361,A,31.01049030032282,57.404014502196326,1.550524515016141,0.9017001512333096,B,3896,Correct
1,relearn,37,362,A,25.400056269077304,38.8918969787095,1.2700028134538652,0.6109124891624241,B,981,Incorrect
1,relearn,37,363,B,62.6122481217649,29.645951521162498,3.130612406088245,0.4656775175378163,A,1570,Incorrect
1,relearn,37,364,A,52.73367056455701,66.53092530224288,2.6366835282278505,1.0450653308302875,B,3267,Incorrect
1,relearn,37,365,A,50.32865351517327,69.21253314937033,2.5164326757586637,1.0871879283920092,B,668,Incorrect
1,relearn,37,366,B,65.82052649802864,42.183458193051344,3.291026324901432,0.6626162118115114,B,1455,Correct
1,relearn,37,367,B,54.893415556010815,43.96168359455412,2.7446707778005406,0.6905485111004508,B,655,Correct
1,relearn,37,368,A,52.62688326015177,75.08740048132033,2.6313441630075887,1.1794701286463534,A,954,Correct
1,relearn,37,369,B,51.58212125576027,25.304502509066346,2.579106062788014,0.39748219592613665,B,1247,Incorrect
1,relearn,37,370,B,76.2500598211056,55.72521375002128,3.81250299105528,0.8753296106839389,B,1176,Correct
1,relearn,37,371,A,33.11120365999157,59.023674720642646,1.6555601829995783,0.9271417144512224,A,1455,Correct
1,relearn,37,372,A,18.534332833544397,47.63534562996684,0.9267166416772199,0.7482542594115724,A,896,Correct
1,relearn,37,373,A,17.407145578421417,32.25821661843298,0.870357278921071,0.5067108817318862,A,2084,Correct
1,relearn,37,374,B,69.39271415097332,38.33178026133559,3.469635707548666,0.6021141963401506,B,693,Correct
1,relearn,37,375,A,29.393634123821194,55.0183439021835,1.4696817061910596,0.8642261250788825,A,1729,Correct
1,relearn,37,376,B,78.12730598430869,47.68712275708613,3.9063652992154347,0.749067572622482,B,700,Incorrect
1,relearn,37,377,A,38.31087234170699,58.13902276935362,1.9155436170853495,0.9132456340954553,B,2684,Correct
1,relearn,37,378,B,66.82719639008214,43.79355805222759,3.3413598195041065,0.6879076012571816,B,1850,Incorrect
1,relearn,37,379,A,34.233447568758464,55.234541332196684,1.7116723784379233,0.8676221463681545,B,1466,Correct
1,relearn,37,380,A,18.99472686887039,50.108434920091696,0.9497363434435195,0.7871014551392116,B,1057,Correct
1,relearn,37,381,B,87.5882567746902,68.46602690214961,4.37941283873451,1.0754618356813717,A,691,Incorrect
1,relearn,37,382,A,32.6584128710615,48.45523598285113,1.632920643553075,0.7611330669584245,B,1059,Correct
1,relearn,37,383,B,69.28862304683307,56.458061095070335,3.4644311523416538,0.8868411498609834,B,890,Incorrect
1,relearn,37,384,A,49.42877454547073,80.59584475894576,2.4714387272735365,1.265996569022837,B,3072,Incorrect
1,relearn,37,385,A,64.75164420317256,75.2626907852199,3.2375822101586276,1.1822235823012355,B,1138,Correct
1,relearn,37,386,B,45.09521117442729,28.69954547192159,2.2547605587213644,0.4508114060797753,A,1193,Correct
1,relearn,37,387,B,34.46105171684398,23.737910926768286,1.7230525858421992,0.3728742328955207,A,735,Incorrect
1,relearn,37,388,A,56.19184837605788,82.4200426526252,2.8095924188028936,1.2946510025302236,B,1517,Incorrect
1,relearn,37,389,A,33.21742963621775,42.54007061157013,1.6608714818108876,0.6682178665824989,B,1995,Correct
1,relearn,37,390,A,49.431616635793524,57.04531949510375,2.471580831789676,0.8960657832375026,B,1153,Correct
1,relearn,37,391,B,63.10143321941734,39.77659511258316,3.155071660970867,0.6248092949525346,B,1519,Correct
1,relearn,37,392,A,39.17029328345241,56.62814113157868,1.9585146641726203,0.889512760827068,B,1467,Incorrect
1,relearn,37,393,B,76.5463540345084,51.26898609801334,3.82731770172542,0.8053313504125797,B,725,Correct
1,relearn,37,394,B,59.35579207429799,39.330695687834755,2.967789603714899,0.6178051231673872,B,1190,Correct
1,relearn,37,395,A,58.558676539198004,73.31054898185694,2.9279338269599005,1.1515594105601823,A,2208,Correct
1,relearn,37,396,B,57.90342507807154,29.243204274325368,2.895171253903577,0.4593511785782311,B,2342,Incorrect
1,relearn,37,397,A,36.23817450067163,55.15095727436314,1.8119087250335815,0.866309211057919,B,1283,Incorrect
1,relearn,37,398,A,25.100406680833437,39.99915982136396,1.2550203340416717,0.6283053332228052,A,781,Correct
1,relearn,37,399,B,45.19277819300182,37.28157452622384,2.259638909650091,0.585617603229226,A,3014,Incorrect
1,relearn,37,400,A,52.53522257694515,71.32513260136494,2.6267611288472574,1.1203725629838297,A,1415,Incorrect
1,relearn,37,401,A,18.958532769159703,39.737549603229084,0.9479266384579852,0.6241959695258225,A,706,Correct
1,relearn,37,402,A,13.593184306130418,33.846080693642996,0.6796592153065208,0.5316529922997808,A,676,Incorrect
1,relearn,37,403,B,62.51068209369751,45.35436966194472,3.1255341046848755,0.7124247726908066,B,743,Correct
1,relearn,37,404,B,64.46559707597156,54.493010407123236,3.2232798537985783,0.8559742058350526,B,551,Correct
1,relearn,37,405,B,65.54123004993177,38.979917770894254,3.277061502496588,0.6122951165328782,B,626,Incorrect
1,relearn,37,406,A,49.35045105563623,61.37439423884555,2.467522552781811,0.9640667302964044,B,1610,Incorrect
1,relearn,37,407,B,54.21151967063649,23.89350619434603,2.710575983531825,0.37531831764329854,B,612,Correct
1,relearn,37,408,B,48.51119155645735,39.893925880494926,2.425559577822867,0.6266523223450929,A,1768,Correct
1,relearn,37,409,A,54.23404217163193,70.41007412208626,2.7117021085815964,1.1059988580032951,B,1329,Incorrect
1,relearn,37,410,A,35.11693379657618,45.854785432543586,1.7558466898288088,0.7202852852340759,B,3487,Correct
1,relearn,37,411,A,27.475417225421836,50.241770907251016,1.3737708612710917,0.7891958919278059,A,3986,Correct
1,relearn,37,412,A,46.74632400529063,55.51694011456364,2.3373162002645316,0.8720580560684882,B,1420,Incorrect
1,relearn,37,413,A,25.520084906031407,53.623170183612714,1.2760042453015703,0.8423107875551648,B,2116,Correct
1,relearn,37,414,A,18.733276269017125,41.56852095082629,0.9366638134508563,0.6529568001985464,B,1292,Incorrect
1,relearn,37,415,A,14.960627228928814,35.221481546884185,0.7480313614464407,0.5532577383811992,A,1090,Incorrect
1,relearn,37,416,A,49.28537168081143,68.71261178145855,2.4642685840405716,1.0793351819079882,B,632,Incorrect
1,relearn,37,417,B,86.13107615975778,60.44588178988543,4.306553807987889,0.9494816908543058,B,510,Incorrect
1,relearn,37,418,B,31.468699694093825,13.357265412964548,1.5734349847046911,0.20981543446709228,A,2814,Correct
1,relearn,37,419,B,70.24439625105224,43.398039142131815,3.512219812552612,0.681694804745618,B,1665,Incorrect
1,relearn,37,420,A,34.69840937620833,46.63007818489349,1.7349204688104165,0.7324635553098955,A,1074,Incorrect
1,relearn,37,421,A,19.184165892633253,45.95832855523478,0.9592082946316626,0.7219117368019579,A,754,Incorrect
1,relearn,37,422,A,30.65067888565502,54.48112161848406,1.532533944282751,0.855787457179808,A,1437,Correct
1,relearn,37,423,A,20.452743014181795,34.1596831957355,1.0226371507090897,0.5365790488833867,A,1891,Incorrect
1,relearn,37,424,A,31.32521583271777,49.299996324679896,1.5662607916358886,0.7744025313780908,B,567,Incorrect
1,relearn,37,425,B,51.10661939770109,33.226613384541615,2.555330969885054,0.5219224225627211,B,3284,Incorrect
1,relearn,37,426,B,57.90220950143268,43.178965257787134,2.8951104750716343,0.6782536002173648,B,1114,Correct
1,relearn,37,427,B,58.181295961979664,34.98150098556703,2.909064798098983,0.5494881325390074,B,4578,Correct
1,relearn,37,428,A,27.89663223662162,37.83500242311064,1.394831611831081,0.594310828304982,A,1317,Incorrect
1,relearn,37,429,B,61.30484649571625,53.54712147402371,3.065242324785812,0.8411162172183656,B,703,Incorrect
1,relearn,37,430,A,48.470461191734174,77.38288504828606,2.4235230595867083,1.2155275159063945,B,2414,Incorrect
1,relearn,37,431,B,65.30195627660366,36.36052936981489,3.265097813830183,0.5711498597442319,B,630,Correct
1,relearn,37,432,A,51.249630102902955,66.87236516691348,2.562481505145148,1.050428655682747,B,1593,Correct
1,relearn,37,433,B,88.1692337129288,69.55687843615482,4.40846168564644,1.0925968915083113,B,2041,Incorrect
1,relearn,37,434,A,20.664441504611396,49.530628548423735,1.0332220752305699,0.7780252938770644,A,839,Incorrect
1,relearn,37,435,A,58.977152273126244,72.84486238076492,2.948857613656312,1.1442444225358528,A,2910,Incorrect
1,relearn,37,436,A,24.15883747088615,51.13710555397724,1.2079418735443077,0.8032597756711035,B,1709,Correct
1,relearn,37,437,B,33.80378096686816,15.520239442452173,1.6901890483434079,0.24379135107181146,B,1261,Incorrect
1,relearn,37,438,B,61.07207346749084,32.75841273376182,3.0536036733745417,0.5145679439382423,A,2924,Correct
1,relearn,37,439,B,51.13748694113174,33.046152150998076,2.5568743470565867,0.5190877441349304,A,865,Incorrect
1,relearn,37,440,A,63.44626713673243,79.28562600196402,3.1723133568366215,1.2454157009151903,B,2229,Correct
1,relearn,37,441,B,80.24129434100743,62.064515402607185,4.012064717050372,0.9749071281872064,A,4056,Incorrect
1,relearn,37,442,A,20.851237931305114,39.27177924832968,1.0425618965652559,0.616879665899763,B,1346,Incorrect
1,relearn,37,443,B,33.01574436577398,15.025193815554218,1.6507872182886991,0.23601519254853962,B,1189,Incorrect
1,relearn,37,444,A,35.57742482061092,43.51003650247435,1.7788712410305463,0.6834540551679857,B,867,Incorrect
1,relearn,37,445,A,12.099674809414758,36.97701466691891,0.6049837404707379,0.5808335881463725,A,556,Correct
1,relearn,37,446,A,47.242062816741566,67.01594599695918,2.3621031408370783,1.0526840180870862,B,3249,Incorrect
1,relearn,37,447,A,34.77186817271839,53.99212543541136,1.7385934086359196,0.8481063230979348,B,1126,Correct
1,relearn,37,448,B,78.94243913570585,59.91314558138332,3.947121956785293,0.941113490059648,B,1731,Incorrect
1,relearn,37,449,A,40.358437092365065,67.699663033765,2.0179218546182534,1.0634238201869033,B,5849,Correct
1,relearn,37,450,A,17.88218147631284,46.12349042535292,0.894109073815642,0.7245060933910397,A,1079,Incorrect
1,relearn,37,451,B,50.43617207303843,21.201491568335783,2.5218086036519214,0.33303225078114823,B,1480,Correct
1,relearn,37,452,B,62.058872789605694,48.63716888330228,3.102943639480285,0.7639908622759427,B,850,Correct
1,relearn,37,453,A,48.68210647109366,68.02796504753353,2.4341053235546832,1.0685807761599726,A,1509,Incorrect
1,relearn,37,454,A,62.86759423915464,74.23326785756616,3.1433797119577322,1.1660534447664659,A,1297,Incorrect
1,relearn,37,455,B,78.44122098726504,56.66183755611128,3.9220610493632524,0.8900420630258872,B,590,Correct
1,relearn,37,456,A,52.15991460335928,71.08912293102416,2.6079957301679646,1.1166653317512358,B,1167,Incorrect
1,relearn,37,457,A,46.50946717916584,57.760762102043756,2.3254733589582917,0.907303929427642,B,914,Incorrect
1,relearn,37,458,B,78.8563893431457,54.2367865039771,3.9428194671572845,0.8519494501760625,B,561,Incorrect
1,relearn,37,459,B,79.34666801952811,52.40959227762451,3.967333400976406,0.8232479503851077,A,1331,Incorrect
1,relearn,37,460,A,36.637972727627584,56.150015241418735,1.8318986363813792,0.8820023769069801,B,6282,Correct
1,relearn,37,461,B,51.31887918856544,34.01165015698383,2.565943959428272,0.5342537513482327,B,1657,Incorrect
1,relearn,37,462,B,88.14368870327041,63.00703838662852,4.40718443516352,0.9897122445994112,A,1811,Correct
1,relearn,37,463,B,66.41654632572642,37.09833493471375,3.3208273162863207,0.5827392824565515,A,653,Incorrect
1,relearn,37,464,B,37.341008652487844,19.59344639688471,1.8670504326243924,0.307773136294792,B,3176,Correct
1,relearn,37,465,B,51.93999130375759,22.385533974293057,2.5969995651878794,0.351631145401619,B,912,Incorrect
1,relearn,37,466,B,82.74184130627934,67.1707884776511,4.137092065313968,1.0551162780861132,A,906,Incorrect
1,relearn,37,467,B,41.550084971837464,17.24724072327083,2.077504248591873,0.2709190237546118,A,2400,Correct
1,relearn,37,468,B,72.68867726399844,42.95299021054341,3.6344338631999222,0.6747039924757874,A,2522,Incorrect
1,relearn,37,469,B,75.77652995990736,62.97776424194063,3.788826497995368,0.9892524074099532,A,3942,Correct
1,relearn,37,470,A,60.279813462376225,74.48132752740713,3.0139906731188115,1.1699499569485872,A,2629,Correct
1,relearn,37,471,B,44.42815265580637,16.124321821720937,2.2214076327903185,0.25328025489618045,B,2331,Correct
1,relearn,37,472,A,41.3760454841104,54.90992779959697,2.06880227420552,0.8625231289217989,A,1202,Correct
1,relearn,37,473,A,27.289561611073243,57.99807467124826,1.364478080553662,0.911031626547729,A,832,Incorrect
1,relearn,37,474,A,22.725760898685607,47.005471428977806,1.1362880449342803,0.7383602185990079,B,853,Incorrect
1,relearn,37,475,A,49.679654123185976,67.08565117464215,2.4839827061592987,1.0537789444577164,A,2721,Incorrect
1,relearn,37,476,A,49.160656647992866,67.78408531756013,2.4580328323996437,1.0647499223197534,A,5384,Incorrect
1,relearn,37,477,B,35.08788246705396,19.90984518954583,1.7543941233526978,0.31274311690793627,B,2331,Correct
1,relearn,37,478,B,88.13059109571942,61.95907467091568,4.406529554785971,0.9732508690468507,B,2731,Incorrect
1,relearn,37,479,A,37.49222033140321,49.2712015187957,1.8746110165701606,0.7739502236249541,B,5647,Incorrect
1,relearn,37,480,B,56.821361937779734,31.729824650463073,2.841068096888987,0.4984109201079356,A,6276,Correct
1,relearn,37,481,A,17.84160768753472,39.84284113355877,0.892080384376736,0.6258498850166674,B,3177,Incorrect
1,relearn,37,482,B,53.16476160409134,43.43806681698725,2.658238080204567,0.6823235579919487,A,6222,Correct
1,relearn,37,483,A,31.566683865019797,55.22866800596624,1.5783341932509898,0.867529888375466,B,1836,Incorrect
1,relearn,37,484,A,59.39922911840213,72.1774723280789,2.969961455920106,1.1337610841028662,A,7628,Correct
1,relearn,37,485,A,48.996617853642945,56.991242667011406,2.4498308926821473,0.8952163464081809,B,1817,Incorrect
1,relearn,37,486,B,88.7824283579587,64.52301657082066,4.439121417897934,1.0135251742317133,A,1554,Incorrect
1,relearn,37,487,A,58.602210581668224,83.45499540180144,2.9301105290834113,1.3109080022983468,A,1993,Incorrect
1,relearn,37,488,B,65.65087646283916,42.1104743758539,3.282543823141958,0.6614697846918192,A,821,Incorrect
1,relearn,37,489,B,56.46111107413382,39.68159466061974,2.823055553706691,0.6233170313426547,B,1274,Correct
1,relearn,37,490,B,57.40807346428879,33.988015319649904,2.87040367321444,0.5338824961915474,B,862,Incorrect
1,relearn,37,491,A,37.75007187741719,59.81017206263898,1.8875035938708595,0.9394959858096408,A,3337,Incorrect
1,relearn,37,492,B,41.95451973875325,15.956414678647274,2.0977259869376623,0.2506427756603531,A,2209,Correct
1,relearn,37,493,A,44.07537790038438,65.1392018834061,2.203768895019219,1.0232041904880553,B,1286,Incorrect
1,relearn,37,494,B,52.23555393740408,35.44356203678348,2.611777696870204,0.5567461705590654,A,1596,Correct
1,relearn,37,495,A,48.68980089309518,75.4187520051402,2.4344900446547593,1.1846749862112946,A,2569,Incorrect
1,relearn,37,496,A,55.415405571342,82.86900932049242,2.7707702785671002,1.3017033544576155,B,1174,Incorrect
1,relearn,37,497,A,25.39239292283861,40.13406176424952,1.2696196461419305,0.6304243679864265,B,2112,Incorrect
1,relearn,37,498,B,65.96912684229116,40.42124475988663,3.2984563421145583,0.6349354279330738,A,1219,Correct
1,relearn,37,499,B,53.57982193838191,33.50053014119232,2.6789910969190953,0.5262250969146662,A,8902,Incorrect
1,relearn,37,500,A,26.727241269819253,37.45319454492578,1.3363620634909625,0.5883134041790407,A,3428,Correct
1,relearn,37,501,B,63.82557205026803,53.01285714120448,3.1912786025134015,0.8327240127030658,B,869,Correct
1,relearn,37,502,A,47.100069161010765,67.34382634817788,2.3550034580505383,1.0578343506003118,A,1952,Incorrect
1,relearn,37,503,A,35.93180400903388,56.77928081241612,1.7965902004516943,0.8918868573819918,A,1565,Correct
1,relearn,37,504,B,78.9307828642617,63.75420823760161,3.946539143213085,1.0014487611734153,B,682,Incorrect
1,relearn,37,505,B,50.18780057667368,31.54682028928125,2.509390028833684,0.49553629432461704,B,840,Correct
1,relearn,37,506,A,68.36078109198232,89.75676443936507,3.4180390545991157,1.4098959588634945,B,3279,Incorrect
1,relearn,37,507,A,55.783124111247794,78.79230091014259,2.78915620556239,1.2376665684937016,A,2673,Incorrect
1,relearn,37,508,A,27.915573867118844,43.700759313829835,1.3957786933559422,0.6864499220831177,B,1475,Incorrect
1,relearn,37,509,B,51.361280173531405,28.487873886476187,2.5680640086765703,0.44748647659073043,B,824,Incorrect
1,relearn,37,510,A,63.239049332073684,88.59919810507401,3.161952466603684,1.3917129494042362,A,2460,Correct
1,relearn,37,511,A,18.75027852050197,36.502013810293334,0.9375139260250984,0.5733722921382536,B,2288,Correct
1,relearn,37,512,A,48.96878405983601,78.07500745894544,2.4484392029918007,1.2263993493099563,A,4307,Correct
1,relearn,37,513,B,73.37272888092511,46.926222631317756,3.6686364440462556,0.7371153813963348,B,3006,Correct
1,relearn,37,514,A,21.044730146124564,48.39478006640463,1.0522365073062283,0.7601834276435525,B,897,Incorrect
1,relearn,37,515,A,28.73506892154917,52.06588662670927,1.4367534460774585,0.8178490346455445,B,3340,Correct
1,relearn,37,516,B,73.5969455503468,51.60232122113525,3.67984727751734,0.8105673662824958,B,1083,Correct
1,relearn,37,517,A,38.22566896017451,57.79879366641863,1.9112834480087255,0.9079013278438651,A,942,Correct
1,relearn,37,518,B,82.38617031154965,66.73445989538405,4.119308515577483,1.0482624447431061,B,1051,Incorrect
1,relearn,37,519,B,54.01444362286625,45.159676978230316,2.700722181143312,0.7093665471664824,B,3334,Correct
1,relearn,37,520,A,40.423550740121094,68.09082601337776,2.021177537006055,1.069568193902442,A,3661,Correct
1,relearn,37,521,A,36.91344113800192,53.72099848405567,1.8456720569000962,0.8438474709050884,B,3597,Incorrect
1,relearn,37,522,B,45.41185925934572,22.344981312121682,2.2705929629672856,0.3509941456738135,B,1486,Correct
1,relearn,37,523,A,20.791666888067596,36.07442142886609,1.0395833444033797,0.5666556867171395,A,3085,Incorrect
1,relearn,37,524,B,56.0444362316563,44.02199886329659,2.802221811582815,0.691495941126354,B,2243,Incorrect
1,relearn,37,525,B,77.1362049163065,53.4812689359842,3.856810245815325,0.8400818079697399,A,860,Incorrect
1,relearn,37,526,A,34.01811391491832,59.6092848609858,1.7009056957459159,0.9363404570250714,B,2302,Correct
1,relearn,37,527,A,55.63134154583938,64.16222857151179,2.781567077291969,1.0078579295910528,A,2632,Correct
1,relearn,37,528,A,61.81661667179024,72.54650298164908,3.0908308335895125,1.1395578040538938,A,990,Correct
1,relearn,37,529,B,65.43386998173666,53.912985265445954,3.271693499086833,0.8468631922150991,A,1388,Incorrect
1,relearn,37,530,B,50.82223337249443,30.632545501173873,2.5411116686247213,0.4811748995362146,B,1375,Incorrect
1,relearn,37,531,B,59.12971869263967,36.798600978550844,2.9564859346319836,0.5780310724829876,A,2336,Correct
1,relearn,37,532,A,54.607321236962534,72.68349722223496,2.7303660618481267,1.1417097045529372,B,1679,Correct
1,relearn,37,533,A,53.44784229731407,65.40584649847158,2.6723921148657035,1.0273926343070998,B,874,Incorrect
1,relearn,37,534,B,69.62578876820731,57.27023963118154,3.4812894384103656,0.8995988204732347,A,1931,Incorrect
1,relearn,37,535,B,69.18290146717712,49.24852050876104,3.459145073358856,0.7735939511524497,A,2586,Correct
1,relearn,37,536,B,46.39525831327756,17.3140078015613,2.319762915663878,0.27196779856790676,B,1489,Incorrect
1,relearn,37,537,B,52.213412499891945,44.65638824767728,2.6106706249945972,0.7014609062737824,A,1398,Correct
1,relearn,37,538,A,32.01011718590036,41.146589276938286,1.600505859295018,0.6463291129635294,B,5161,Incorrect
1,relearn,37,539,B,36.99067390472281,25.18234208099537,1.8495336952361408,0.39556330440920084,B,5623,Correct
1,relearn,37,540,B,76.31023166476234,56.12518076898079,3.8155115832381172,0.8816122779261459,A,4972,Incorrect
1,relearn,37,541,A,31.175970505418043,46.76115292666357,1.558798525270902,0.7345224725389757,A,1496,Incorrect
1,relearn,37,542,B,61.17580021754788,37.902257241528744,3.058790010877394,0.5953672645222862,B,607,Incorrect
1,relearn,37,543,B,82.19305485205504,54.96645836177852,4.109652742602752,0.8634111089160634,B,656,Correct
1,relearn,37,544,A,47.17362423236112,76.83476149525643,2.358681211618056,1.2069176112691076,A,3793,Correct
1,relearn,37,545,B,33.777765263449155,19.5076666191577,1.6888882631724578,0.3064257106971234,B,2631,Incorrect
1,relearn,37,546,A,44.22784836970437,70.64008644228421,2.2113924184852185,1.1096118830801402,B,3399,Incorrect
1,relearn,37,547,A,27.771855484921335,44.57250711936761,1.3885927742460669,0.7001433045914202,A,3364,Incorrect
1,relearn,37,548,A,44.80767470397249,63.20001208081585,2.240383735198624,0.9927434682993862,B,519,Correct
1,relearn,37,549,A,61.91656363783743,73.45688329846018,3.0958281818918714,1.1538580246302264,B,966,Correct
1,relearn,37,550,A,11.505309107208731,36.47107705472643,0.5752654553604366,0.5728863387181791,B,4129,Incorrect
1,relearn,37,551,B,47.78293267006001,29.619995320410077,2.3891466335030005,0.4652697984898217,B,1887,Incorrect
1,relearn,37,552,A,55.97092952727598,66.68442423316974,2.7985464763637986,1.047476486398956,A,1261,Correct
1,relearn,37,553,A,47.98188598071862,55.00366355907411,2.3990942990359314,0.8639955267885592,A,1931,Incorrect
1,relearn,37,554,B,79.72538016209884,51.67083143985248,3.9862690081049426,0.8116435222815852,A,937,Correct
1,relearn,37,555,B,79.36969950410149,66.71681060395001,3.9684849752050746,1.0479852103215548,A,624,Incorrect
1,relearn,37,556,A,66.10345087983089,89.60073787614189,3.3051725439915445,1.4074450993395604,A,2560,Incorrect
1,relearn,37,557,B,53.103092522736205,40.407043119940845,2.6551546261368104,0.6347123490944608,A,895,Incorrect
1,relearn,37,558,B,70.84915604119604,44.65794867795493,3.542457802059802,0.701485417455266,B,488,Incorrect
1,relearn,37,559,A,69.47348312601517,85.0135257165302,3.473674156300758,1.3353893392340912,B,1826,Correct
1,relearn,37,560,A,58.04259606540198,73.77575839124923,2.9021298032700993,1.1588669028748206,B,3811,Incorrect
1,relearn,37,561,A,23.36580487691016,47.647286925124,1.168290243845508,0.7484418328372727,B,835,Correct
1,relearn,37,562,B,54.650698608330046,26.959285972678206,2.7325349304165023,0.4234754737889611,A,2315,Correct
1,relearn,37,563,A,37.80342269446216,56.613104586840684,1.8901711347231076,0.8892765673346464,A,5983,Incorrect
1,relearn,37,564,A,43.93832668892014,58.29532727060171,2.196916334446007,0.9157008594596753,A,3636,Correct
1,relearn,37,565,A,37.8301051671884,61.53878597196177,1.89150525835942,0.9666489896017486,B,1255,Incorrect
1,relearn,37,566,A,49.310590369985704,56.256521298518784,2.4655295184992854,0.8836753701397217,A,3075,Correct
1,relearn,37,567,A,36.117817587314505,46.235352648308975,1.8058908793657253,0.7262632210803043,B,2044,Incorrect
1,relearn,37,568,B,36.34393387092095,20.84020070460788,1.8171966935460475,0.32735710716466476,A,950,Correct
1,relearn,37,569,B,48.08977856841336,40.285995085216584,2.4044889284206676,0.6328109310113547,A,736,Correct
1,relearn,37,570,A,30.904475858054198,51.744615522383945,1.5452237929027097,0.8128025199397487,B,1432,Incorrect
1,relearn,37,571,A,59.6394219121991,83.41601057123319,2.981971095609955,1.3102956300117734,A,834,Correct
1,relearn,37,572,A,52.58182769945533,76.73662618682717,2.629091384972767,1.205376105449012,A,823,Correct
1,relearn,37,573,A,69.01725022532932,83.99929884825721,3.4508625112664664,1.319457900841892,A,576,Correct
1,relearn,37,574,A,58.63755223014863,67.67110466342689,2.9318776115074314,1.0629752263546395,B,1867,Incorrect
1,relearn,37,575,B,53.341161373270786,41.956967112050734,2.6670580686635397,0.6590584982306358,A,642,Correct
1,relearn,37,576,B,62.41029934566921,44.0442792389312,3.1205149672834605,0.6918459204484185,A,522,Incorrect
1,relearn,37,577,B,49.40496592166661,34.81358755355191,2.4702482960833305,0.5468505545167187,A,787,Correct
1,relearn,37,578,B,54.43591371313312,29.761535739451755,2.721795685656656,0.4674931101930585,A,631,Correct
1,relearn,37,579,A,45.947432505293676,74.21530171607472,2.2973716252646836,1.1657712332758514,B,924,Incorrect
1,relearn,37,580,A,28.114924445256676,49.6816163390969,1.4057462222628339,0.7803970045468672,B,884,Correct
1,relearn,37,581,B,48.53608651396483,40.077205963138006,2.426804325698242,0.6295312791509969,A,566,Incorrect
1,relearn,37,582,A,57.582733933038234,80.77819124841962,2.8791366966519116,1.268860860981532,A,803,Incorrect
1,relearn,37,583,A,42.89685391885147,63.409988568836496,2.1448426959425735,0.9960417712603474,A,581,Incorrect
1,relearn,37,584,B,69.36708357954716,43.18962855682596,3.468354178977358,0.6784210989269818,A,1772,Correct
1,relearn,37,585,A,37.95913961381853,48.833488000769876,1.8979569806909264,0.7670746357619197,B,671,Incorrect
1,relearn,37,586,A,55.70474632677794,76.64275324412739,2.7852373163388973,1.2039015527132295,A,1852,Incorrect
1,relearn,37,587,A,14.213633983160769,34.45849713235985,0.7106816991580385,0.5412728072238333,B,1170,Correct
1,relearn,37,588,A,51.46100626027061,65.73197596060592,2.5730503130135305,1.0325154639189023,A,1309,Incorrect
1,relearn,37,589,A,14.874732915009488,42.247371797310976,0.7437366457504744,0.663620164359544,B,3145,Incorrect
1,relearn,37,590,B,36.18174814062583,20.67930191264499,1.8090874070312912,0.3248297148506543,A,1295,Incorrect
1,relearn,37,591,B,74.09468146432097,41.60023497045382,3.7047340732160485,0.6534549628539346,A,745,Correct
1,relearn,37,592,A,60.69594224645313,73.12272719157528,3.0347971123226563,1.1486091127775175,A,1075,Incorrect
1,relearn,37,593,A,57.795086778508725,79.09221455925322,2.889754338925436,1.242377601077488,B,1314,Incorrect
1,relearn,37,594,A,61.81745654671029,83.12400601853946,3.0908728273355144,1.3057088332239866,A,580,Incorrect
1,relearn,37,595,B,81.2822145094579,63.01745156314209,4.064110725472895,0.9898758143935891,A,557,Incorrect
1,relearn,37,596,A,31.16737207875766,51.446829972760284,1.558368603937883,0.8081249154645344,B,1211,Correct
1,relearn,37,597,B,43.85682569119962,21.041753824470764,2.192841284559981,0.3305230961680114,B,697,Incorrect
1,relearn,37,598,B,39.72926221180872,29.79504262763459,1.9864631105904358,0.46801943516185773,B,731,Correct
1,relearn,37,599,B,54.116679428297104,38.25585596956211,2.7058339714148554,0.6009215803538278,A,994,Incorrect
1,relearn,37,600,B,47.9922802600505,18.830110898505335,2.399614013002525,0.2957826903251273,B,1368,Correct
1,relearn,37,601,B,66.81439659992542,44.59660546138078,3.340719829996271,0.7005218404625815,B,2092,Correct
1,relearn,37,602,A,31.375722063543286,55.16438448283883,1.5687861031771644,0.8665201251554461,B,1509,Incorrect
1,relearn,37,603,A,42.664622203444495,64.32518377041292,2.1332311101722246,1.0104176238697131,B,1236,Incorrect
1,relearn,37,604,B,51.78837483434133,21.03995145838148,2.5894187417170667,0.33049478466768556,B,532,Correct
1,relearn,37,605,B,47.91107861380807,30.882270689135584,2.3955539306904035,0.48509757361579875,B,1115,Correct
1,relearn,37,606,A,52.799623536128465,66.33325990768104,2.6399811768064234,1.0419604100731654,A,1315,Correct
1,relearn,37,607,B,44.37430672896048,29.48852711225581,2.2187153364480237,0.46320470070523145,B,1169,Correct
1,relearn,37,608,A,56.38395847903216,65.98468314581159,2.819197923951608,1.0364849791016595,A,897,Correct
1,relearn,37,609,B,43.63537732305586,35.381086578803576,2.1817688661527934,0.5557648083599687,B,853,Correct
1,relearn,37,610,A,45.34690675118808,71.24119924479697,2.2673453375594037,1.1190541409019044,A,583,Correct
1,relearn,37,611,A,62.12278934975221,74.46717838328006,3.1061394674876106,1.1697277027123663,B,1134,Incorrect
1,relearn,37,612,A,38.93330540530805,72.09879704143512,1.9466652702654021,1.1325252555901704,A,717,Correct
1,relearn,37,613,B,36.932566983207934,22.790739951066374,1.8466283491603968,0.3579961060007277,B,598,Correct
1,relearn,37,614,A,57.30872670575242,85.97892166491272,2.8654363352876207,1.3505537433303108,A,561,Correct
1,relearn,37,615,A,63.925710275451756,80.90701127497087,3.1962855137725876,1.2708843612267753,A,698,Correct
1,relearn,37,616,A,27.84694020521845,41.510540711058034,1.3923470102609223,0.6520460487219997,B,742,Incorrect
1,relearn,37,617,A,30.41121703355438,49.36476520932048,1.520560851677719,0.775419918638931,B,1605,Incorrect
1,relearn,37,618,A,17.946116848636034,33.20616615223152,0.8973058424318018,0.5216012381886629,A,623,Correct
1,relearn,37,619,A,13.595329071572383,33.18946973559122,0.6797664535786191,0.5213389714893707,A,601,Correct
1,relearn,37,620,B,57.59238464377617,37.83903371045519,2.879619232188809,0.5943741516185128,B,658,Correct
1,relearn,37,621,B,53.713368311455355,38.03676153665146,2.685668415572768,0.5974800530494553,B,678,Correct
1,relearn,37,622,A,54.16229075926376,61.862050938081076,2.708114537963188,0.9717268238153653,B,1586,Incorrect
1,relearn,37,623,A,58.224291597261185,68.47679213661043,2.911214579863059,1.0756309355888534,A,1481,Correct
1,relearn,37,624,A,27.936687463795625,37.29447732587077,1.3968343731897812,0.5858202799321337,A,1080,Correct
1,relearn,37,625,A,37.3305817809847,54.475173341869976,1.866529089049235,0.8556940218692463,B,2076,Incorrect
1,relearn,37,626,B,77.87954527065546,49.859800395254936,3.893977263532773,0.7831959131559318,B,550,Correct
1,relearn,37,627,A,20.757976909736858,45.23021020553459,1.0378988454868427,0.7104744805101478,A,442,Correct
1,relearn,37,628,B,79.68216921115047,59.31194619780199,3.9841084605575237,0.931669872225639,B,511,Correct
1,relearn,37,629,B,86.94153069202983,65.30541216086684,4.3470765346014915,1.0258150154211638,B,610,Correct
1,relearn,37,630,B,70.21012818817654,39.195686835172985,3.510506409408827,0.6156844090689281,B,611,Correct
1,relearn,37,631,B,58.28772435731127,42.14266081755729,2.9143862178655633,0.661975368135822,B,490,Correct
1,relearn,37,632,B,61.676122263891635,30.77104510778794,3.0838061131945818,0.48335044626953366,B,420,Correct
1,relearn,37,633,A,36.57981730590366,67.28503041440672,1.828990865295183,1.0569107862323297,A,601,Correct
1,relearn,37,634,A,45.228406982203836,58.92817250574975,2.2614203491101916,0.9256415691676773,A,562,Correct
1,relearn,37,635,B,61.773136066215585,38.961635724488744,3.088656803310779,0.6120079428194773,B,644,Correct
1,relearn,37,636,A,43.52112484570843,62.26872257704792,2.176056242285421,0.9781148069823732,B,727,Incorrect
1,relearn,37,637,B,55.75662206047639,42.55078127850383,2.7878311030238194,0.6683861093452687,B,700,Correct
1,relearn,37,638,A,21.201203752036964,47.74203247462871,1.060060187601848,0.7499300924486944,A,592,Correct
1,relearn,37,639,A,35.885421552470916,63.612681051259585,1.7942710776235458,0.9992256573289388,A,1682,Correct
1,relearn,37,640,B,68.44411956085708,57.25936335905199,3.4222059780428538,0.8994279763901315,B,474,Correct
1,relearn,37,641,A,48.09098958159528,70.87633897457783,2.404549479079764,1.1133229291793683,A,867,Correct
1,relearn,37,642,B,50.49304843592328,25.377133609496994,2.524652421796164,0.39862308258381196,B,548,Correct
1,relearn,37,643,B,59.965312221918055,31.79166125256588,2.9982656110959027,0.4993822471823813,B,622,Correct
1,relearn,37,644,B,78.74049613817296,54.09470244703694,3.9370248069086475,0.8497175990286853,B,477,Correct
1,relearn,37,645,A,48.165901381140415,57.18966958721911,2.408295069057021,0.8983332291821758,A,698,Correct
1,relearn,37,646,B,76.82643667669223,64.06339795091887,3.841321833834611,1.0063055018330307,B,631,Correct
1,relearn,37,647,B,55.284825344929054,33.25142207093573,2.7642412672464527,0.522312116497326,B,554,Correct
1,relearn,37,648,B,53.32571645692147,24.335612159627658,2.6662858228460733,0.38226290190648343,B,794,Correct
1,relearn,37,649,A,32.92896697643451,50.70651612617928,1.6464483488217254,0.7964960927556861,A,503,Correct
1,relearn,37,650,B,75.84772021236724,59.68580819876027,3.792386010618362,0.9375424828039736,B,419,Correct
1,relearn,37,651,A,56.649221047822486,73.71404048168188,2.8324610523911242,1.157897440218362,B,998,Incorrect
1,relearn,37,652,B,58.90840562340023,29.824807424036834,2.945420281170011,0.4684869794904222,B,534,Correct
1,relearn,37,653,B,83.5731205117289,58.16529732556492,4.178656025586445,0.913658353859304,B,562,Correct
1,relearn,37,654,A,68.22867786883022,88.30122903655618,3.411433893441511,1.387032462220973,A,1105,Correct
1,relearn,37,655,A,15.134158093927748,38.61678891286087,0.7567079046963875,0.6065911017693574,A,699,Correct
1,relearn,37,656,B,71.22339930241124,61.9161640335725,3.5611699651205617,0.9725768303316598,B,556,Correct
1,relearn,37,657,B,73.09213570543213,50.76121827397958,3.6546067852716067,0.797355352084011,B,715,Correct
1,relearn,37,658,A,63.77537414865523,80.00834564047821,3.1887687074327618,1.2567681544499965,A,653,Correct
1,relearn,37,659,A,50.919873735957516,81.11064003238619,2.5459936867978756,1.274082954268553,A,496,Correct
1,relearn,37,660,B,32.992247235640946,13.781953115321066,1.6496123617820473,0.21648641329605814,B,479,Correct
1,relearn,37,661,A,45.64742360599212,65.66381212482952,2.282371180299606,1.031444748890324,B,998,Incorrect
1,relearn,37,662,B,61.854812716020895,49.23812229932405,3.0927406358010447,0.773430616460561,B,542,Correct
1,relearn,37,663,B,84.37961070201706,57.2089249059977,4.218980535100854,0.8986356910222627,B,599,Correct
1,relearn,37,664,B,67.36400379014634,37.53396074930111,3.3682001895073173,0.5895820767506601,B,617,Correct
1,relearn,37,665,B,46.18817382273147,30.62460558115024,2.3094086911365737,0.48105017956413293,A,927,Incorrect
1,relearn,37,666,B,71.63837030385837,51.08216043077536,3.5819185151929185,0.8023966996940954,B,793,Correct
1,relearn,37,667,A,32.96640110139903,62.83427829152783,1.6483200550699513,0.9869985353714023,A,635,Correct
1,relearn,37,668,A,42.42197087708832,71.1503314210842,2.121098543854416,1.1176267924647856,A,912,Correct
1,relearn,37,669,B,66.56532555635862,49.09159425003857,3.328266277817931,0.7711289592446606,B,614,Correct
1,relearn,37,670,B,51.563854181651415,24.921346361542064,2.5781927090825705,0.39146359323493635,B,554,Correct
1,relearn,37,671,A,37.059710643295105,63.12131777407917,1.852985532164755,0.9915073410197699,A,698,Correct
1,relearn,37,672,B,58.51022851735546,28.41348950214332,2.9255114258677732,0.44631804941392084,B,445,Correct
1,relearn,37,673,A,48.31434054155477,72.17077841018988,2.4157170270777386,1.1336559362865468,A,517,Correct
1,relearn,37,674,B,71.03466132892163,50.71453858807311,3.5517330664460816,0.7966221092924328,B,448,Correct
1,relearn,37,675,B,60.680912590498586,48.11087747566608,3.0340456295249294,0.755723896176556,B,562,Correct
1,relearn,37,676,B,77.2285875413682,48.21310104871881,3.86142937706841,0.7573296203071869,B,544,Correct
1,relearn,37,677,B,73.09302540722767,56.70955327078643,3.654651270361384,0.8907915797193084,B,393,Correct
1,relearn,37,678,B,59.81060110099959,41.94951769668908,2.9905300550499794,0.6589414830877672,B,576,Correct
1,relearn,37,679,B,37.30703108164198,23.955335633886786,1.865351554082099,0.3762895322084826,A,436,Incorrect
1,relearn,37,680,B,77.24859795464978,63.999290328213235,3.862429897732489,1.005298501650375,B,548,Correct
1,relearn,37,681,A,53.20651242654266,69.6329315769866,2.6603256213271327,1.0937915314509092,A,1259,Correct
1,relearn,37,682,B,65.64205867291939,35.3815370937553,3.2821029336459695,0.555771885032282,B,503,Correct
1,relearn,37,683,B,88.24814222193092,61.595550202831305,4.412407111096546,0.9675406400551806,B,647,Correct
1,relearn,37,684,B,45.751271948325524,36.44222655000745,2.287563597416276,0.5724331560497915,A,780,Incorrect
1,relearn,37,685,B,89.05897883387361,64.98195759895673,4.4529489416936805,1.0207342030438296,B,421,Correct
1,relearn,37,686,B,39.579705307126936,21.715602019266377,1.978985265356347,0.34110787886003463,A,630,Incorrect
1,relearn,37,687,A,40.40782347420262,52.25305115742309,2.020391173710131,0.82078900821906,A,2227,Correct
1,relearn,37,688,A,52.372647003268646,67.6142171889354,2.6186323501634323,1.0620816399949207,B,1487,Incorrect
1,relearn,37,689,B,35.36566643701098,20.89867139750254,1.7682833218505492,0.3282755626609056,B,1210,Correct
1,relearn,37,690,B,37.1030273704575,23.61050514276376,1.8551513685228747,0.3708729475202533,B,1233,Correct
1,relearn,37,691,A,24.519272566248908,49.9301427724578,1.2259636283124453,0.7843008486332146,A,637,Correct
1,relearn,37,692,B,55.532780022306476,43.400131931062354,2.7766390011153237,0.6817276781972664,B,524,Correct
1,relearn,37,693,B,47.69015097396616,17.20981324605692,2.384507548698308,0.27033111431732365,B,626,Correct
1,relearn,37,694,A,36.19722302634626,44.75204731128312,1.8098611513173128,0.7029635153311495,B,1770,Incorrect
1,relearn,37,695,B,39.48260032705387,27.733972636592128,1.9741300163526938,0.4356442234498909,A,1660,Incorrect
1,relearn,37,696,A,48.50828317043872,78.70883266398744,2.425414158521936,1.2363554523490563,A,1152,Correct
1,relearn,37,697,A,64.77955092955044,77.38994592976066,3.238977546477522,1.2156384279732368,B,1519,Incorrect
1,relearn,37,698,A,40.111305964103664,60.70959949946322,2.0055652982051835,0.9536241589494613,A,1407,Correct
1,relearn,37,699,A,23.28610680836901,54.34912519786094,1.1643053404184505,0.8537140622531592,A,677,Correct
1,relearn,37,700,B,71.31577102565036,47.21834953407223,3.565788551282518,0.7417041000543817,B,550,Correct
1,relearn,37,701,B,68.54986740981332,42.32303421610574,3.427493370490666,0.6648086668547362,B,559,Correct
1,relearn,37,702,B,64.05330108503773,51.81061502139697,3.2026650542518866,0.8138392376459485,B,547,Correct
1,relearn,37,703,B,57.8645259453194,29.020530100124844,2.8932262972659704,0.4558534208291684,B,465,Correct
1,relearn,37,704,B,56.66484131849991,27.302613980171166,2.8332420659249955,0.42886845751951863,B,411,Correct
1,relearn,37,705,A,39.60513997312537,54.28118875183113,1.9802569986562686,0.852646919054368,A,690,Correct
1,relearn,37,706,A,50.30410231844727,57.75790970196145,2.5152051159223636,0.9072591240319237,B,1185,Incorrect
1,relearn,37,707,B,75.33904031219406,65.02192389276584,3.766952015609703,1.021361992118939,B,603,Correct
1,relearn,37,708,B,67.14864141103065,53.79008809380461,3.357432070551533,0.8449327279572217,B,424,Correct
1,relearn,37,709,B,84.27712832089884,57.862907552939625,4.213856416044942,0.9089084264183024,B,433,Correct
1,relearn,37,710,B,60.08181960688269,43.28971521723171,3.0040909803441345,0.6799932565122471,B,548,Correct
1,relearn,37,711,A,54.36299228192843,80.66604510882287,2.718149614096421,1.267099273540104,A,738,Correct
1,relearn,37,712,B,41.50191879047339,27.038096849173307,2.075095939523669,0.4247134321420609,B,1320,Correct
1,relearn,37,713,A,62.63684913877096,85.61975948115577,3.131842456938548,1.34491203694062,A,651,Correct
1,relearn,37,714,B,59.71301099270796,50.319810011103186,2.985650549635398,0.7904217273045794,B,558,Correct
1,relearn,37,715,B,67.29269837854841,53.78077483104948,3.36463491892742,0.8447864355679594,B,466,Correct
1,relearn,37,716,A,44.34334333484108,51.643999844285005,2.217167166742054,0.8112220525639909,A,653,Correct
1,relearn,37,717,A,43.73837723054311,56.300126980197476,2.1869188615271553,0.8843603265858045,A,541,Correct
1,relearn,37,718,A,47.13683802644354,73.66653725733289,2.356841901322177,1.157151261315179,A,906,Correct
1,relearn,37,719,B,84.141860350715,65.18374221479391,4.20709301753575,1.023903828377437,B,528,Correct
1,relearn,37,720,B,40.52438488936319,23.102047465293023,2.0262192444681597,0.3628861129992363,A,540,Incorrect
1,relearn,37,721,A,35.035146177624966,44.80345065244259,1.7517573088812484,0.7037709571259323,A,2163,Correct
1,relearn,37,722,B,30.81164872415752,13.948954955348633,1.5405824362078762,0.21910967206489104,B,2080,Correct
1,relearn,37,723,B,49.00232169833741,32.312591653983716,2.450116084916871,0.5075650027930105,B,630,Correct
1,relearn,37,724,A,52.864703710458215,70.78896832435117,2.643235185522911,1.111950514214911,A,878,Correct
1,relearn,37,725,A,38.02262196723942,70.19362586479379,1.901131098361971,1.1025988967283333,A,624,Correct
1,relearn,37,726,A,44.928815041036,56.65082063725759,2.2464407520518,0.8898690096692073,B,808,Incorrect
1,relearn,37,727,A,49.58824396984056,76.53371107789529,2.479412198492028,1.202188722371398,A,849,Correct
1,relearn,37,728,B,77.18277563075995,51.87796546545431,3.859138781537997,0.8148971759472812,B,742,Correct
1,relearn,37,729,B,73.43146357304211,51.62041537284019,3.671573178652105,0.8108515885528419,B,450,Correct
1,relearn,37,730,A,43.47763344374869,75.80952030787687,2.1738816721874343,1.190813160356961,A,817,Correct
1,relearn,37,731,A,20.356134179149482,39.85323310785722,1.017806708957474,0.6260131217672288,A,945,Correct
1,relearn,37,732,A,53.09388606671415,63.62265114279501,2.6546943033357078,0.9993822671605552,B,1037,Incorrect
1,relearn,37,733,B,51.12831965326483,41.33462314485492,2.5564159826632418,0.6492827420538942,B,805,Correct
1,relearn,37,734,B,35.62042119245132,14.955982856235732,1.781021059622566,0.23492802934182536,B,2843,Correct
1,relearn,37,735,A,18.996777998082027,43.34573533553316,0.9498388999041013,0.6808732184727925,A,666,Correct
1,relearn,37,736,A,59.306662562772885,85.53656619073178,2.9653331281386444,1.3436052397905,A,821,Correct
1,relearn,37,737,A,51.923432729601245,66.35150197094256,2.5961716364800624,1.0422469557328091,B,811,Incorrect
1,relearn,37,738,A,38.08093490398307,66.90987772859962,1.9040467451991534,1.0510179016237995,A,2127,Correct
1,relearn,37,739,B,57.58966983546061,43.58330089741565,2.8794834917730303,0.6846048895925722,B,769,Correct
1,relearn,37,740,B,73.845973352086,56.1993253970636,3.6922986676043,0.8827769390205865,B,467,Correct
1,relearn,37,741,A,27.698023557036496,60.67590686594299,1.384901177851825,0.9530949162997249,A,685,Correct
1,relearn,37,742,B,78.2746619213894,52.395417868734924,3.91373309606947,0.823025299290925,B,552,Correct
1,relearn,37,743,B,60.92937558650809,32.57681223603987,3.046468779325404,0.5117153699905846,B,540,Correct
1,relearn,37,744,B,54.502223325803605,39.20316891938114,2.7251111662901804,0.6158019373728375,B,525,Correct
1,relearn,37,745,B,63.067870104490964,44.318410101604854,3.1533935052245483,0.6961519579699075,B,506,Correct
1,relearn,37,746,A,66.28762974598409,87.26461904355594,3.3143814872992046,1.3707494305277366,A,688,Correct
1,relearn,37,747,A,33.08258632236396,52.770427793373344,1.654129316118198,0.8289159414122618,A,1337,Correct
1,relearn,37,748,A,46.88717148978052,75.65367207289515,2.344358574489026,1.1883651020064934,A,2098,Correct
1,relearn,37,749,A,14.763779074268616,40.194676116018655,0.7381889537134307,0.6313764959975268,A,663,Correct
1,relearn,37,750,A,20.503783420782785,36.24240740787812,1.0251891710391392,0.569294404304991,A,484,Correct
1,relearn,37,751,B,47.647242506939335,21.026148822130263,2.3823621253469667,0.33027797336445064,B,588,Correct
1,relearn,37,752,A,14.681640453183647,37.61096572454829,0.7340820226591823,0.590791668073292,A,581,Correct
1,relearn,37,753,A,43.27906759770738,55.17284655664963,2.163953379885369,0.866653047100037,B,2539,Incorrect
1,relearn,37,754,A,28.311877677090408,45.75252794450836,1.4155938838545206,0.7186790283681458,B,966,Incorrect
1,relearn,37,755,A,53.90138219555581,66.20171746165882,2.6950691097777906,1.0398941461628723,B,1461,Incorrect
1,relearn,37,756,A,21.555353300652435,39.98987417918487,1.0777676650326216,0.6281594746965368,A,660,Correct
1,relearn,37,757,A,52.80335775060386,72.76560028948083,2.640167887530193,1.1429993765174216,A,988,Correct
1,relearn,37,758,A,47.4117447369683,76.57546430007548,2.370587236848415,1.2028445804517227,A,564,Correct
1,relearn,37,759,A,15.296251428900579,33.33282580749034,0.7648125714450289,0.5235908034009995,A,551,Correct
1,relearn,37,760,A,46.32288431545835,70.08285771473032,2.3161442157729173,1.1008589546958778,A,736,Correct
1,relearn,37,761,A,41.159358149362674,68.47722747179542,2.0579679074681336,1.0756377738179481,A,1374,Correct
1,relearn,37,762,A,32.730462032433394,65.8619762685308,1.6365231016216697,1.034557503980608,A,802,Correct
1,relearn,37,763,A,22.126013511227114,41.09497876496506,1.1063006755613558,0.645518416937214,A,598,Correct
1,relearn,37,764,A,41.459729677969406,69.50034892942394,2.07298648389847,1.0917089280930272,A,842,Correct
1,relearn,37,765,A,60.63957084266695,78.7739141103841,3.031978542133347,1.23737774931848,A,769,Correct
1,relearn,37,766,B,74.42377311760592,46.63463281116685,3.721188655880296,0.7325350992120965,B,703,Correct
1,relearn,37,767,B,44.83333301411241,35.19443423742963,2.2416666507056204,0.5528328802377901,B,1493,Correct
1,relearn,37,768,A,16.978012178221682,43.563290353463984,0.8489006089110842,0.6842905647032077,A,533,Correct
1,relearn,37,769,B,52.59148360168345,23.93940774709939,2.6295741800841723,0.3760393375478902,B,962,Correct
1,relearn,37,770,A,48.94963344769581,69.1996292972626,2.4474816723847908,1.0869852351570861,A,941,Correct
1,relearn,37,771,B,78.92215994232573,61.33507054340119,3.9461079971162865,0.9634490351328044,B,703,Correct
1,relearn,37,772,B,42.63074950344709,20.070791702807913,2.1315374751723546,0.3152712588263616,B,868,Correct
1,relearn,37,773,B,88.83620176886527,66.00821965995048,4.441810088443264,1.036854689801209,B,720,Correct
1,relearn,37,774,B,75.42989907142666,64.53104206716966,3.771494953571333,1.0136512384335705,B,480,Correct
1,relearn,37,775,B,83.2587522197235,60.25247171938587,4.162937610986176,0.9464436125712472,B,367,Correct
1,relearn,37,776,A,51.317889946062806,74.49014806339868,2.56589449730314,1.1700885096039462,A,717,Correct
1,relearn,37,777,B,43.45085869480677,26.05467905510657,2.1725429347403384,0.4092659415558132,B,924,Correct
1,relearn,37,778,B,67.47649334365016,52.50518828639751,3.3738246671825083,0.8247495689794765,B,562,Correct
1,relearn,37,779,A,43.86354608053665,67.6808772306838,2.1931773040268325,1.0631287334821449,B,1880,Incorrect
1,relearn,37,780,B,51.0787084973619,39.361340821725236,2.553935424868095,0.6182864958048802,B,667,Correct
1,relearn,37,781,B,50.61320237023628,24.914773910218734,2.530660118511814,0.3913603534109691,B,812,Correct
1,relearn,37,782,A,24.885491398369318,43.80267380747494,1.2442745699184659,0.6880507912057665,A,489,Correct
1,relearn,37,783,B,38.73704784620119,16.361797079625834,1.9368523923100596,0.25701050752439725,B,600,Correct
1,relearn,37,784,A,28.856262074482547,49.77860568281811,1.4428131037241274,0.7819205095954227,B,2602,Incorrect
1,relearn,37,785,B,44.881843744091135,24.553276714814157,2.2440921872045565,0.3856819687440875,B,583,Correct
1,relearn,37,786,A,61.49681652809779,87.51559702131969,3.0748408264048894,1.3746917833835137,A,684,Correct
1,relearn,37,787,B,68.1911510799628,42.31942900124672,3.4095575539981393,0.6647520362721576,B,621,Correct
1,relearn,37,788,A,24.58766300933585,45.04061399974596,1.2293831504667923,0.7074963102738775,A,1048,Correct
1,relearn,37,789,B,48.81279910249187,29.416712453050415,2.4406399551245936,0.46207663867633286,B,488,Correct
1,relearn,37,790,A,50.36303496134054,71.13749094422745,2.518151748067027,1.117425094725977,A,713,Correct
1,relearn,37,791,A,47.118047287987494,60.87268249163351,2.355902364399375,0.9561858606000992,B,828,Incorrect
1,relearn,37,792,B,56.40331525319513,29.062546663492462,2.820165762659757,0.4565134154631924,B,579,Correct
1,relearn,37,793,B,77.29778962372129,49.004876424596944,3.8648894811860646,0.7697667988279471,B,514,Correct
1,relearn,37,794,B,65.84285800814088,45.44861956787979,3.2921429004070437,0.7139052467512423,B,578,Correct
1,relearn,37,795,A,13.166445930194335,35.04781294098831,0.6583222965097167,0.5505297582989908,A,590,Correct
1,relearn,37,796,B,65.44724060289671,33.5649124355397,3.2723620301448357,0.5272364116293811,B,561,Correct
1,relearn,37,797,B,79.44515864953529,66.21750427700135,3.9722579324767646,1.0401421248783909,B,492,Correct
1,relearn,37,798,A,67.91800256388044,81.64999193615122,3.395900128194022,1.2825550741613927,A,722,Correct
1,relearn,37,799,B,72.42325614457268,61.791929494021076,3.621162807228634,0.9706253587477753,B,498,Correct
1,relearn,37,800,A,37.04932709184026,53.091080031433634,1.8524663545920133,0.8339527349894984,B,991,Incorrect
1,relearn,37,801,B,44.94690287599704,28.313676677842448,2.247345143799852,0.44475019323613246,B,524,Correct
1,relearn,37,802,B,57.994223574113384,44.87612931638077,2.899711178705669,0.7049125909094369,B,479,Correct
1,relearn,37,803,A,42.171045227424436,66.82103651305677,2.1085522613712215,1.0496223870733725,A,981,Correct
1,relearn,37,804,A,28.74538333522128,41.306128774003795,1.4372691667610642,0.6488351535232214,B,695,Incorrect
1,relearn,37,805,B,82.38537731798188,66.97639106104941,4.119268865899094,1.0520626906067498,B,447,Correct
1,relearn,37,806,A,37.37757550416563,57.47976769310419,1.8688787752082814,0.9028900795735205,B,1064,Incorrect
1,relearn,37,807,A,17.85131246868538,40.657125244549675,0.8925656234342689,0.6386406299217869,A,621,Correct
1,relearn,37,808,A,42.845762680489386,53.8507847214094,2.142288134024469,0.8458861483541262,A,1115,Correct
1,relearn,37,809,B,75.48122432294501,49.628782806808566,3.774061216147251,0.7795670973623661,B,547,Correct
1,relearn,37,810,A,59.422852028208624,81.53006248156797,2.971142601410431,1.2806712266940536,A,673,Correct
1,relearn,37,811,B,70.13793587894388,58.06051346361412,3.506896793947194,0.912012412804707,B,384,Correct
1,relearn,37,812,B,66.53419392359996,55.98586184151496,3.326709696179998,0.8794238613309825,B,423,Correct
1,relearn,37,813,B,70.13629596199868,45.57246531456099,3.5068147980999345,0.7158506111910025,B,505,Correct
1,relearn,37,814,A,39.455847111899686,71.67678277602828,1.9727923555949842,1.125896271010609,A,473,Correct
1,relearn,37,815,A,46.33791478435782,77.16798942192854,2.316895739217891,1.2121519433011279,A,1056,Correct
1,relearn,37,816,A,20.735875597958014,38.15530631453128,1.0367937798979008,0.5993421500659986,A,711,Correct
1,relearn,37,817,A,21.146038501514706,50.27368318449747,1.0573019250757354,0.7896971688065899,A,429,Correct
1,relearn,37,818,B,82.45716001108093,52.88741371090953,4.1228580005540465,0.8307535519077873,B,477,Correct
1,relearn,37,819,B,42.58630205511702,30.59460672332513,2.129315102755851,0.48057895860733557,B,677,Correct
1,relearn,37,820,B,86.56356057871265,69.91227073762165,4.328178028935633,1.0981793807254643,B,577,Correct
1,relearn,37,821,B,66.99491759427423,38.54325785755516,3.349745879713711,0.6054360786535619,B,544,Correct
1,relearn,37,822,B,51.94155884235748,30.030428367424054,2.597077942117874,0.47171686571626964,B,449,Correct
1,relearn,37,823,A,42.140753636093194,56.33485956574425,2.10703768180466,0.8849059047637743,A,1525,Correct
1,relearn,37,824,A,53.525294612383114,65.15632964791445,2.676264730619156,1.0234732327838143,A,2383,Correct
1,relearn,37,825,B,47.21071442129215,22.419640803237005,2.3605357210646076,0.35216689421785674,B,637,Correct
1,relearn,37,826,B,51.310300215689104,32.399929339659565,2.5655150107844555,0.5089368999515144,B,420,Correct
1,relearn,37,827,B,73.79282600123571,52.563389778720776,3.6896413000617856,0.8256637958830301,B,476,Correct
1,relearn,37,828,B,34.36354927857587,19.48606350996345,1.7181774639287934,0.3060863698514266,B,665,Correct
1,relearn,37,829,A,62.54547621188,75.30145511334555,3.1272738105939997,1.1828324909435397,B,430,Incorrect
1,relearn,37,830,A,48.4880432988757,63.42314545811491,2.424402164943785,0.9962484391938533,A,1051,Correct
1,relearn,37,831,B,51.65342940248632,25.77370614768025,2.582671470124316,0.40485242944667177,B,585,Correct
1,relearn,37,832,B,69.23458508807705,54.625609881432176,3.4617292544038527,0.8580570735068468,B,534,Correct
1,relearn,37,833,A,27.05092289015939,55.92744701630806,1.3525461445079696,0.878506283402329,A,944,Correct
1,relearn,37,834,B,48.04285795418993,28.27777937118934,2.402142897709496,0.4441863196618071,B,607,Correct
1,relearn,37,835,B,49.78564315719146,19.20193034044435,2.4892821578595727,0.3016232164614146,B,623,Correct
1,relearn,37,836,B,83.63254095935352,67.46397884592778,4.181627047967676,1.0597217016215197,B,524,Correct
1,relearn,37,837,A,39.22104942446772,63.78319814667554,1.9610524712233859,1.0019041336002898,A,980,Correct
1,relearn,37,838,A,62.800499680468434,87.20752164043306,3.1400249840234213,1.369852546616787,A,956,Correct
1,relearn,37,839,B,59.36179394307061,30.546185452273082,2.9680896971535304,0.4798183590602627,B,670,Correct
1,relearn,37,840,A,28.856851136856694,40.19189349895689,1.4428425568428347,0.6313327867509316,A,2792,Correct
1,relearn,37,841,A,34.28915465258673,67.30500465220693,1.7144577326293364,1.0572245408260008,A,1030,Correct
1,relearn,37,842,A,52.45788058243068,72.99986865489925,2.622894029121534,1.1466792553962564,B,558,Incorrect
1,relearn,37,843,B,48.03587759366448,40.547103242219656,2.401793879683224,0.6369124083505208,B,613,Correct
1,relearn,37,844,A,51.452390238266176,78.5331701725346,2.5726195119133086,1.2335961523857588,A,526,Correct
1,relearn,37,845,B,78.7942010183799,61.53828829076092,3.939710050918995,0.9666411720437265,B,925,Correct
1,relearn,37,846,A,23.41404666014285,43.147388816118216,1.1707023330071424,0.6777575986314969,A,581,Correct
1,relearn,37,847,A,12.9916431089651,31.410872174606446,0.6495821554482549,0.4934008263329583,A,714,Correct
1,relearn,37,848,B,42.39620792270103,24.925010180523138,2.1198103961350516,0.39152114436891144,B,572,Correct
1,relearn,37,849,A,43.46967568909086,67.16910330026381,2.173483784454543,1.0550898073816135,A,817,Correct
1,relearn,37,850,B,33.694989669007754,16.943906932470753,1.6847494834503878,0.2661542677107965,B,601,Correct
1,relearn,37,851,B,60.88819892495565,43.59863399837048,3.0444099462477827,0.6848457413791544,B,549,Correct
1,relearn,37,852,B,69.34786900560965,36.112080340600045,3.4673934502804826,0.5672472315193674,B,503,Correct
1,relearn,37,853,B,81.74812091273576,65.22607387403941,4.087406045636788,1.0245687725259367,B,529,Correct
1,relearn,37,854,B,71.38014955688476,57.9315006060762,3.569007477844238,0.9099858835774081,B,399,Correct
1,relearn,37,855,A,23.98213857256538,35.877385819932826,1.199106928628269,0.5635606586095379,A,449,Correct
1,relearn,37,856,B,35.15632710756,18.707538987249645,1.7578163553780002,0.2938573352454406,B,897,Correct
1,relearn,37,857,B,43.812788222868335,21.266903078925747,2.1906394111434166,0.3340597323867964,B,561,Correct
1,relearn,37,858,B,32.57921515307461,15.541407426367755,1.6289607576537304,0.24412385698561398,B,616,Correct
1,relearn,37,859,B,68.8416267475323,56.6399611157816,3.442081337376615,0.8896984287047551,B,1243,Correct
1,relearn,37,860,B,56.44224526708196,46.8531419037625,2.822112263354098,0.7359674320123019,B,617,Correct
1,relearn,37,861,A,51.964412813557374,70.60910007023634,2.5982206406778685,1.1091251502862052,A,798,Correct
1,relearn,37,862,A,16.86435798122712,46.59091318182753,0.8432178990613559,0.7318483528803463,A,675,Correct
1,relearn,37,863,A,54.05185313293719,80.02233926374389,2.702592656646859,1.2569879657702394,A,920,Correct
1,relearn,37,864,B,49.42122174603202,25.65135156032637,2.471061087301601,0.402930488082852,B,858,Correct
1,relearn,37,865,A,68.06428679732055,81.9632897709027,3.4032143398660275,1.2874763450415967,A,833,Correct
1,relearn,37,866,B,50.67376489058701,36.08582157907786,2.5336882445293503,0.5668347598579152,B,673,Correct
1,relearn,37,867,A,32.70748704091797,54.79035774623935,1.6353743520458983,0.8606449269157107,B,674,Incorrect
1,relearn,37,868,A,30.344771477405807,51.13529323627314,1.5172385738702903,0.8032313078511777,B,992,Incorrect
1,relearn,37,869,A,55.684026303901064,85.1435777319556,2.7842013151950535,1.3374321915153162,A,806,Correct
1,relearn,37,870,B,51.4265166709933,31.67976420394038,2.571325833549665,0.49762457245278,B,527,Correct
1,relearn,37,871,A,69.42845316222984,85.16252816577799,3.4714226581114924,1.3377298642337097,A,559,Correct
1,relearn,37,872,B,61.97269181213431,50.047651442888295,3.098634590606715,0.7861466705120025,B,629,Correct
1,relearn,37,873,A,22.38118891856083,52.485812244578916,1.1190594459280416,0.8244452108263117,A,695,Correct
1,relearn,37,874,B,80.39080816744737,64.00987819764865,4.019540408372369,1.0054648155145522,B,496,Correct
1,relearn,37,875,A,31.183984578838178,55.42595410683371,1.559199228941909,0.870628851201169,A,576,Correct
1,relearn,37,876,B,31.299769994833362,10.477929212370078,1.564988499741668,0.16458692719207862,B,1943,Correct
1,relearn,37,877,A,26.970398292001803,55.23951692206418,1.3485199146000901,0.8677003027510295,A,2009,Correct
1,relearn,37,878,B,61.9821298098603,52.57456157276619,3.0991064904930146,0.8258392820135326,B,751,Correct
1,relearn,37,879,B,71.7176592069419,51.171182349953966,3.585882960347095,0.8037950527305954,B,565,Correct
1,relearn,37,880,A,40.652873968633614,58.98090508381135,2.0326436984316807,0.926469890566893,A,1654,Correct
1,relearn,37,881,A,47.82692006012203,58.932957476395224,2.3913460030061016,0.9257167313108146,B,1594,Incorrect
1,relearn,37,882,B,48.71615452828479,39.16547208905337,2.4358077264142395,0.6152097969467307,B,1060,Correct
1,relearn,37,883,A,55.197300299934646,78.5796170992752,2.7598650149967323,1.2343257390049092,A,967,Correct
1,relearn,37,884,B,57.036960252579625,41.08772418878688,2.8518480126289814,0.6454044623210825,B,839,Correct
1,relearn,37,885,B,88.43837880956252,69.58736181519431,4.421918940478126,1.093075723306547,B,713,Correct
1,relearn,37,886,B,66.7924591555981,55.97527604051166,3.3396229577799046,0.8792575799576611,B,611,Correct
1,relearn,37,887,B,83.3633083284866,53.833877609946256,4.16816541642433,0.8456205720682959,B,488,Correct
1,relearn,37,888,A,46.576041686620826,68.90970420963956,2.3288020843310413,1.0824311025302462,A,645,Correct
1,relearn,37,889,B,51.87652761190849,24.525392236361455,2.5938263805954245,0.38524396038080644,B,525,Correct
1,relearn,37,890,B,52.00064325083647,34.54366274097316,2.6000321625418237,0.5426105854756237,B,431,Correct
1,relearn,37,891,B,64.86038199629591,35.120143542329146,3.243019099814796,0.5516659247280012,B,442,Correct
1,relearn,37,892,A,43.659961309478795,55.61532277906829,2.18299806547394,0.8736034473487302,B,869,Incorrect
1,relearn,37,893,A,18.250916485920758,39.21594049904202,0.9125458242960378,0.6160025528770243,A,447,Correct
1,relearn,37,894,B,77.5472429387587,53.22843335266204,3.877362146937935,0.836110275914085,B,556,Correct
1,relearn,37,895,B,63.60110013126959,33.086834873604104,3.18005500656348,0.5197267868472661,B,586,Correct
1,relearn,37,896,A,49.57534607957854,64.72841269543157,2.478767303978927,1.0167515290124807,A,681,Correct
1,relearn,37,897,A,63.51575427688963,78.2736551689234,3.1757877138444814,1.2295197002415523,A,591,Correct
1,relearn,37,898,A,21.92624211493858,36.30602019583213,1.0963121057469292,0.5702936316415445,A,656,Correct
