experiment,condition,subject,trial,cat,x,y,xt,yt,resp,rt,fb
2,new_learn,42,0,B,80.53950047468729,64.71281607313509,4.026975023734365,1.0165065378423432,B,2778,Correct
2,new_learn,42,1,B,34.79552507166264,24.282301871792654,1.7397762535831318,0.38142550586336743,A,1394,Incorrect
2,new_learn,42,2,A,45.943089415463774,70.54118504713473,2.2971544707731884,1.1080583435979832,A,1628,Correct
2,new_learn,42,3,A,45.6257740822662,56.674746907938925,2.28128870411331,0.8902448426502089,B,1164,Incorrect
2,new_learn,42,4,A,46.43879942536197,60.54252319439643,2.3219399712680984,0.9509997304865274,A,2959,Correct
2,new_learn,42,5,B,71.94282264735791,57.384292452263296,3.5971411323678955,0.9013903579973929,A,2097,Incorrect
2,new_learn,42,6,A,29.51772945034532,46.590127007375834,1.475886472517266,0.7318360036809366,B,3080,Incorrect
2,new_learn,42,7,A,19.635415758211785,34.31059114454091,0.9817707879105894,0.5389495054000637,B,3359,Incorrect
2,new_learn,42,8,B,39.398703334973945,21.642615181340062,1.9699351667486973,0.3399614042908443,B,2300,Correct
2,new_learn,42,9,A,16.602042723530456,44.97903756805519,0.8301021361765228,0.7065290699467075,A,993,Correct
2,new_learn,42,10,A,46.481345127339495,73.64767716791272,2.3240672563669746,1.1568550077233368,A,1971,Correct
2,new_learn,42,11,A,49.701372541683725,61.27885648795643,2.4850686270841864,0.9625660268147358,B,2103,Incorrect
2,new_learn,42,12,A,26.232906452851466,43.93139808631595,1.3116453226425733,0.6900727874494944,B,1289,Incorrect
2,new_learn,42,13,A,63.23033701948861,82.90740245198563,3.1615168509744302,1.3023064323568523,A,1137,Correct
2,new_learn,42,14,B,58.10143106178178,36.78096298514224,2.905071553089089,0.5777540155304047,B,1096,Correct
2,new_learn,42,15,B,34.431603085730124,13.340091834166621,1.7215801542865063,0.20954567252215522,B,1163,Correct
2,new_learn,42,16,A,40.55176030373618,60.03997504720467,2.0275880151868093,0.9431057226500635,A,628,Correct
2,new_learn,42,17,B,66.6543268809279,55.26981866647281,3.332716344046395,0.8681762814391548,B,1000,Correct
2,new_learn,42,18,B,80.55404123158873,54.3638438028009,4.027702061579436,0.8539452615589116,B,3661,Correct
2,new_learn,42,19,A,24.814816544132768,35.488678653576414,1.2407408272066385,0.5574548607184229,B,1428,Incorrect
2,new_learn,42,20,A,15.025121793590376,38.23771296657203,0.7512560896795187,0.6006365907292893,B,2373,Incorrect
2,new_learn,42,21,A,40.278795776255464,50.756258093884696,2.013939788812773,0.7972774377572782,A,754,Correct
2,new_learn,42,22,B,74.90193421944616,60.932153212565765,3.745096710972308,0.9571200245000216,B,919,Correct
2,new_learn,42,23,B,81.78785549807263,60.1179815129394,4.089392774903632,0.9443310453484871,B,1560,Correct
2,new_learn,42,24,A,46.843148682798265,58.44832655449471,2.342157434139913,0.9181041665910891,A,618,Correct
2,new_learn,42,25,B,77.83746448223944,53.76082736944351,3.891873224111972,0.844473101573764,B,796,Correct
2,new_learn,42,26,A,19.964945366845377,41.58125783195709,0.9982472683422688,0.6531568706594972,A,863,Correct
2,new_learn,42,27,B,58.75008723997362,47.81993163030402,2.937504361998681,0.7511537295246465,B,727,Correct
2,new_learn,42,28,A,32.795656420689554,50.38685554571443,1.6397828210344778,0.7914748760995329,A,521,Correct
2,new_learn,42,29,A,51.066083260598326,77.06993348659282,2.5533041630299165,1.21061168427067,B,801,Incorrect
2,new_learn,42,30,A,20.354990495829206,44.84515818631526,1.0177495247914603,0.704426097536001,B,1334,Incorrect
2,new_learn,42,31,A,54.22361398962046,61.66203171935826,2.711180699481023,0.9685849292747836,B,1245,Incorrect
2,new_learn,42,32,A,67.04397656547897,79.53512218208515,3.352198828273948,1.2493347777480264,B,762,Incorrect
2,new_learn,42,33,A,29.352717977650613,49.84781334871106,1.4676358988825309,0.7830076210691294,A,1723,Correct
2,new_learn,42,34,B,67.93501230762399,55.245682355594006,3.3967506153811997,0.8677971491544471,B,810,Correct
2,new_learn,42,35,A,44.65640357844396,52.517285086591656,2.2328201789221978,0.8249395850725858,A,2397,Correct
2,new_learn,42,36,A,16.136549994470474,45.86699486187385,0.8068274997235236,0.7204770705015183,B,1221,Incorrect
2,new_learn,42,37,A,21.901507098919858,42.3765048505599,1.095075354945993,0.6656485816166561,A,722,Correct
2,new_learn,42,38,A,51.7170487745053,75.91725896990711,2.585852438725265,1.19250551530267,A,1328,Correct
2,new_learn,42,39,B,34.96129887365862,13.899307322042748,1.748064943682931,0.2183298088645816,B,1191,Correct
2,new_learn,42,40,A,38.846214696358615,59.65754977771466,1.942310734817931,0.9370986005641787,B,750,Incorrect
2,new_learn,42,41,A,20.982300342896433,43.39497590528228,1.0491150171448218,0.6816466875337044,A,713,Correct
2,new_learn,42,42,A,26.401260292308862,52.07671049309018,1.320063014615443,0.818019055541073,A,547,Correct
2,new_learn,42,43,B,69.0067370740323,37.742559141025374,3.450336853701615,0.5928587326256181,B,989,Correct
2,new_learn,42,44,A,24.562296889776462,41.87974819042388,1.228114844488823,0.6578455462461305,A,1331,Correct
2,new_learn,42,45,A,58.599677648157396,71.73945742194748,2.92998388240787,1.1268807620465398,B,1222,Incorrect
2,new_learn,42,46,A,26.198401042234956,51.22911611218828,1.3099200521117478,0.804705074139746,A,550,Correct
2,new_learn,42,47,A,55.32077346513306,79.65777000877046,2.766038673256653,1.2512613253044929,A,636,Correct
2,new_learn,42,48,B,71.64967270604053,55.78430082921999,3.5824836353020264,0.8762577483536027,B,1103,Correct
2,new_learn,42,49,A,61.60599221452195,83.39945426453353,3.0802996107260974,1.3100355641542825,B,1497,Incorrect
2,new_learn,42,50,B,48.14589001504317,27.992282927483267,2.4072945007521587,0.4397017520109421,A,893,Incorrect
2,new_learn,42,51,B,83.43554892586909,59.65609839190623,4.171777446293454,0.9370758022492124,B,1635,Correct
2,new_learn,42,52,B,46.95202964302189,36.16202346834908,2.347601482151094,0.5680317363355359,A,980,Incorrect
2,new_learn,42,53,B,30.42206856191016,13.509449909429826,1.5211034280955078,0.21220594294752015,A,752,Incorrect
2,new_learn,42,54,A,49.04602972327128,67.46415579766125,2.4523014861635644,1.0597244811728492,B,1203,Incorrect
2,new_learn,42,55,B,72.13351874544577,39.22865743122762,3.6066759372722883,0.6162023099806766,B,886,Correct
2,new_learn,42,56,A,48.95879091374569,79.34274118718687,2.4479395456872846,1.246312864146713,A,557,Correct
2,new_learn,42,57,B,48.585821292318315,40.98809806223016,2.429291064615916,0.6438395387846014,B,618,Correct
2,new_learn,42,58,A,10.40412538240773,32.385463682041035,0.5202062691203865,0.5087096739329958,A,4032,Correct
2,new_learn,42,59,A,58.0060638446391,69.83655405030049,2.9003031922319553,1.0969900257822527,B,994,Incorrect
2,new_learn,42,60,B,65.69820905531839,54.575939932358,3.2849104527659194,0.8572768597712686,A,745,Incorrect
2,new_learn,42,61,A,28.344222485619753,59.45654554133299,1.4172111242809877,0.9339412334023934,A,288,Correct
2,new_learn,42,62,B,82.02844678609534,56.84715652211596,4.101422339304767,0.892953046536743,B,571,Correct
2,new_learn,42,63,B,40.61003542688635,30.309389011811653,2.0305017713443174,0.4760987692715134,B,1350,Correct
2,new_learn,42,64,B,62.72223841607978,35.70438718862482,3.136111920803989,0.5608432024635464,A,3248,Incorrect
2,new_learn,42,65,B,60.17818551757671,41.98667265268934,3.0089092758788354,0.6595251117718415,B,7093,Correct
2,new_learn,42,66,B,56.19480843576781,33.42788913952196,2.8097404217883906,0.5250840547286811,A,6358,Incorrect
2,new_learn,42,67,B,42.59957410332609,20.66493914955903,2.1299787051663044,0.3246041050956737,B,994,Correct
2,new_learn,42,68,B,38.03184596522216,19.025559155770804,1.901592298261108,0.2988527843710379,A,1262,Incorrect
2,new_learn,42,69,A,21.994781378314013,51.412479843373625,1.0997390689157007,0.8075853448938795,B,779,Incorrect
2,new_learn,42,70,B,47.058482170221716,27.32138230730736,2.3529241085110857,0.42916326971277474,B,1324,Correct
2,new_learn,42,71,B,78.9810381281271,50.772838670155906,3.949051906406355,0.7975378848403077,A,737,Incorrect
2,new_learn,42,72,A,62.557934116734636,72.88928353567394,3.1278967058367315,1.1449421884054836,A,983,Correct
2,new_learn,42,73,B,77.7598276350023,64.8987223532049,3.8879913817501146,1.0194267468609612,B,537,Correct
2,new_learn,42,74,B,31.69261433936551,15.227470064406251,1.5846307169682754,0.23919254043548585,A,903,Incorrect
2,new_learn,42,75,B,72.01607929383277,57.45770279797256,3.6008039646916385,0.9025434850112815,B,361,Correct
2,new_learn,42,76,A,51.25587613034381,70.4470090018958,2.5627938065171905,1.106579029738649,B,486,Incorrect
2,new_learn,42,77,B,44.249485524106476,24.81976864280628,2.2124742762053238,0.38986801416019257,A,4442,Incorrect
2,new_learn,42,78,A,32.92497808916481,58.95956636631923,1.6462489044582407,0.9261347027763418,A,1581,Correct
2,new_learn,42,79,B,71.19845954789399,58.324188393105274,3.5599229773946997,0.9161542089118331,A,1520,Incorrect
2,new_learn,42,80,B,85.89875897869757,65.68066857016825,4.294937948934878,1.031709529314533,B,506,Correct
2,new_learn,42,81,B,60.054046036502754,33.473557175816254,3.002702301825138,0.5258014065653113,B,794,Correct
2,new_learn,42,82,B,66.84646000318841,54.56434397568054,3.342323000159421,0.8570947109097223,B,1507,Correct
2,new_learn,42,83,A,51.635514500459145,78.94654198728651,2.581775725022957,1.2400893816678873,A,678,Correct
2,new_learn,42,84,A,52.376092948406885,75.04430879294235,2.618804647420344,1.1787932459881578,A,537,Correct
2,new_learn,42,85,B,61.60828580816491,41.65915134907358,3.080414290408245,0.6543804191651744,B,939,Correct
2,new_learn,42,86,B,52.87787545550144,30.81443173661137,2.643893772775072,0.48403196184141223,B,1278,Correct
2,new_learn,42,87,B,70.74979916790066,44.473794039064344,3.5374899583950334,0.6985927231519504,B,637,Correct
2,new_learn,42,88,B,75.21356001823183,43.68201102284822,3.760678000911591,0.6861554246170417,B,1039,Correct
2,new_learn,42,89,A,25.08705106503618,43.6394762868763,1.254352553251809,0.685487290546783,A,597,Correct
2,new_learn,42,90,B,50.59538117177422,25.413244765903595,2.529769058588711,0.39919031530221,B,528,Correct
2,new_learn,42,91,B,77.59704296952425,48.13476700213266,3.8798521484762123,0.7560991519807819,A,533,Incorrect
2,new_learn,42,92,B,35.91536472154246,20.07393380058046,1.795768236077123,0.31532061478275697,B,630,Correct
2,new_learn,42,93,B,77.7665001251648,45.903020975784706,3.8883250062582397,0.7210429673755171,B,970,Correct
2,new_learn,42,94,A,36.9654997342336,46.47481595641011,1.8482749867116803,0.7300247019279785,A,900,Correct
2,new_learn,42,95,B,62.74885045268282,48.99166249690405,3.1374425226341405,0.7695592349371215,B,606,Correct
2,new_learn,42,96,A,66.21043265080634,81.12571524264389,3.310521632540317,1.2743197551175378,A,811,Correct
2,new_learn,42,97,A,16.42389355504641,45.19010578405698,0.8211946777523204,0.7098445217306952,A,787,Correct
2,new_learn,42,98,B,48.60331025242746,34.256205248275286,2.430165512621373,0.5380952137392288,B,802,Correct
2,new_learn,42,99,A,37.87618523116642,50.90604556023479,1.8938092615583206,0.7996302937767046,B,562,Incorrect
2,new_learn,42,100,A,22.048988479061336,41.83098658361463,1.1024494239530669,0.6570796007174846,A,767,Correct
2,new_learn,42,101,A,51.35607427182489,68.35857092319957,2.5678037135912444,1.073773921111103,B,915,Incorrect
2,new_learn,42,102,B,47.098678589774714,34.08036398087199,2.3549339294887357,0.5353331055698682,A,717,Incorrect
2,new_learn,42,103,A,37.92285689202841,55.98605869461173,1.8961428446014208,0.879426953492196,B,706,Incorrect
2,new_learn,42,104,A,52.665675161005886,81.94714345873042,2.6332837580502946,1.2872227193630819,A,1601,Correct
2,new_learn,42,105,A,63.37218914065709,85.29891438773717,3.1686094570328542,1.3398722139984989,A,900,Correct
2,new_learn,42,106,B,58.45706685640826,33.73275746368472,2.922853342820413,0.529872915166191,B,1044,Correct
2,new_learn,42,107,B,67.07098373561945,43.31059372264391,3.3535491867809726,0.6803212153083515,B,653,Correct
2,new_learn,42,108,B,35.55903137384658,24.52699240193533,1.777951568692329,0.3852690957228636,B,765,Correct
2,new_learn,42,109,B,68.39817285670632,35.37026322485491,3.419908642835316,0.555594795513707,B,688,Correct
2,new_learn,42,110,B,80.43760720835951,67.3789735894879,4.021880360417976,1.0583864421757796,B,570,Correct
2,new_learn,42,111,B,82.41748582604114,67.81241486898624,4.120874291302057,1.0651949218729522,B,587,Correct
2,new_learn,42,112,A,66.33141305121156,88.85329329415984,3.3165706525605776,1.395704267300959,A,550,Correct
2,new_learn,42,113,A,57.23630819027571,72.06431843512956,2.8618154095137855,1.1319836669087926,B,715,Incorrect
2,new_learn,42,114,B,65.36604981534542,39.945793225291965,3.268302490767271,0.6274670526919708,B,718,Correct
2,new_learn,42,115,A,38.63935960615504,47.87576044641307,1.931967980307752,0.7520306865173805,A,697,Correct
2,new_learn,42,116,B,46.23813288320501,35.255022442237134,2.311906644160251,0.5537845975333773,B,746,Correct
2,new_learn,42,117,A,19.870241965867116,39.87248580566517,0.9935120982933557,0.6263155424372051,A,1113,Correct
2,new_learn,42,118,A,17.581553030610443,38.852413775636755,0.8790776515305222,0.6102922884588565,A,1261,Correct
2,new_learn,42,119,A,59.93155963625692,79.25249792046725,2.996577981812846,1.2448953262279012,B,543,Incorrect
2,new_learn,42,120,A,46.17148096263717,75.51479163102239,2.308574048131858,1.1861835731269195,A,445,Correct
2,new_learn,42,121,A,42.33513838365301,65.96078724987805,2.1167569191826505,1.036109623246081,A,514,Correct
2,new_learn,42,122,B,80.75879277747913,55.58566744116379,4.037939638873956,0.8731376223902276,B,845,Correct
2,new_learn,42,123,A,60.75106971031521,71.46790313740289,3.0375534855157604,1.1226151973196594,B,1252,Incorrect
2,new_learn,42,124,B,46.635750529426886,26.271650071356206,2.3317875264713446,0.4126741143092721,B,576,Correct
2,new_learn,42,125,A,33.02677471340951,52.96812088636327,1.6513387356704754,0.8320212972552746,B,4345,Incorrect
2,new_learn,42,126,B,36.20657035319713,25.365156516795942,1.8103285176598565,0.39843494685160696,A,1149,Incorrect
2,new_learn,42,127,B,41.2982627766648,32.57826046454541,2.06491313883324,0.5117381187107533,B,1150,Correct
2,new_learn,42,128,A,25.475457421733672,53.42588167268116,1.2737728710866836,0.8392117868722634,A,1373,Correct
2,new_learn,42,129,A,28.277888321786953,45.799017535071776,1.4138944160893476,0.7194092851490581,B,1333,Incorrect
2,new_learn,42,130,A,34.36183936399388,46.28746386883786,1.718091968199694,0.72708178221822,B,850,Incorrect
2,new_learn,42,131,A,18.731770912942316,44.17519162603835,0.9365885456471159,0.6939022874164172,A,902,Correct
2,new_learn,42,132,B,52.4402250459502,28.731125319529227,2.62201125229751,0.45130746116600357,B,700,Correct
2,new_learn,42,133,B,53.47839193863636,21.753122210130154,2.6739195969318184,0.3416972446399293,B,289,Correct
2,new_learn,42,134,B,74.80604976739696,47.25235872842359,3.740302488369848,0.7422383152300253,B,932,Correct
2,new_learn,42,135,A,44.15849139501853,69.27063263379954,2.2079245697509267,1.08810055295931,A,1090,Correct
2,new_learn,42,136,A,45.44216103765673,67.34427193810886,2.2721080518828365,1.05784134991058,B,715,Incorrect
2,new_learn,42,137,B,34.146139196359776,15.187209367142273,1.7073069598179886,0.2385601268817213,B,763,Correct
2,new_learn,42,138,A,13.192567737887185,30.889664804456327,0.6596283868943593,0.48521372010765595,A,654,Correct
2,new_learn,42,139,A,49.23922592088124,63.78473681001446,2.4619612960440618,1.0019283028674995,B,847,Incorrect
2,new_learn,42,140,A,33.124148676013,47.07409690343467,1.6562074338006498,0.739438185031022,B,984,Incorrect
2,new_learn,42,141,B,44.14628599296571,34.05109616625309,2.2073142996482855,0.5348733678129014,A,389,Incorrect
2,new_learn,42,142,A,63.88014587758987,82.74760276705317,3.1940072938794937,1.299796304775703,A,634,Correct
2,new_learn,42,143,B,44.55222435026136,17.82981489547118,2.227611217513068,0.2800700774523906,B,992,Correct
2,new_learn,42,144,A,13.80317949318059,40.68439207572462,0.6901589746590295,0.6390689363043163,A,680,Correct
2,new_learn,42,145,B,66.57381521593757,33.46899815506772,3.3286907607968783,0.5257297936348556,B,1547,Correct
2,new_learn,42,146,B,48.4460792418096,25.007656384231616,2.42230396209048,0.39281934790099965,B,775,Correct
2,new_learn,42,147,A,21.75105212356536,52.656705956887166,1.0875526061782679,0.8271296029819731,A,628,Correct
2,new_learn,42,148,B,61.35923265983433,46.156689931236805,3.0679616329917168,0.7250275900099775,B,814,Correct
2,new_learn,42,149,A,18.78509561728201,47.630967931723,0.9392547808641005,0.7481854946883599,A,1137,Correct
2,new_learn,42,150,A,27.619535112056397,48.278569483182935,1.3809767556028196,0.7583579960709594,B,900,Incorrect
2,new_learn,42,151,A,28.268826997130056,38.48459346559258,1.4134413498565026,0.604514580539477,B,1309,Incorrect
2,new_learn,42,152,B,53.47293769918113,27.000217941771957,2.6736468849590564,0.4241184316559705,B,740,Correct
2,new_learn,42,153,A,21.84326133355322,50.50970930737125,1.092163066677661,0.7934046584749677,A,914,Correct
2,new_learn,42,154,B,72.57344365658857,49.86075732531247,3.628672182829428,0.7832109445781257,B,739,Correct
2,new_learn,42,155,B,59.05220261306139,51.436344474507024,2.952610130653069,0.8079602096431259,B,557,Correct
2,new_learn,42,156,B,66.5954712902117,33.268051259776634,3.3297735645105853,0.5225733271848146,B,1816,Correct
2,new_learn,42,157,A,36.84569435241575,69.18972238323465,1.8422847176207875,1.0868296177154364,A,876,Correct
2,new_learn,42,158,B,37.26137355831308,14.986692253201404,1.8630686779156542,0.23541041142134295,B,702,Correct
2,new_learn,42,159,A,54.415909612602675,63.883483106891795,2.7207954806301338,1.0034794060716945,A,860,Correct
2,new_learn,42,160,A,37.2828726451089,64.0788637949912,1.8641436322554452,1.0065484387436265,B,610,Incorrect
2,new_learn,42,161,B,53.109938918437955,34.964544744171626,2.655496945921898,0.549221784522006,B,959,Correct
2,new_learn,42,162,B,61.3444070955522,29.047916018270485,3.06722035477761,0.45628359782545913,B,902,Correct
2,new_learn,42,163,B,71.9233086007006,62.05725356525997,3.5961654300350294,0.9747930595128987,A,1057,Incorrect
2,new_learn,42,164,A,55.65353086895967,67.5129512510066,2.7826765434479834,1.0604909583616406,A,1222,Correct
2,new_learn,42,165,B,80.22783092920642,60.924124088156915,4.011391546460321,0.9569939033087336,B,2154,Correct
2,new_learn,42,166,B,47.9906841137379,24.73099065693146,2.399534205686895,0.3884734928190684,A,831,Incorrect
2,new_learn,42,167,B,55.61830284202902,37.83906668663479,2.780915142101451,0.5943746696071305,B,1220,Correct
2,new_learn,42,168,A,32.805703289799446,56.02161693561967,1.6402851644899723,0.8799855010358215,A,1112,Correct
2,new_learn,42,169,A,53.53447318884785,76.55405963261079,2.676723659442392,1.2025083567214248,A,1365,Correct
2,new_learn,42,170,A,11.694009338710341,35.087839016952415,0.5847004669355171,0.5511584864299951,A,874,Correct
2,new_learn,42,171,B,44.65926847126728,22.86185347606743,2.232963423563364,0.3591131546392986,A,1432,Incorrect
2,new_learn,42,172,A,29.598315240281202,58.827432405788144,1.4799157620140602,0.9240591473778708,B,4505,Incorrect
2,new_learn,42,173,A,49.15222354037715,64.5560267210548,2.4576111770188573,1.014043696459061,A,738,Correct
2,new_learn,42,174,B,40.976451180587844,31.62951564545868,2.048822559029392,0.4968352699418821,B,2168,Correct
2,new_learn,42,175,B,60.226869279629625,49.69328049556715,3.0113434639814813,0.7805802246882536,B,1950,Correct
2,new_learn,42,176,A,36.101310766101044,61.62593284007015,1.8050655383050522,0.968017889404912,B,2770,Incorrect
2,new_learn,42,177,B,47.72971607279618,36.78750888046591,2.386485803639809,0.5778568382137048,B,861,Correct
2,new_learn,42,178,A,37.034636762926695,61.22640258675387,1.8517318381463348,0.9617420828613853,B,706,Incorrect
2,new_learn,42,179,B,66.89050773480953,46.37050709526408,3.344525386740477,0.7283862221685752,B,1058,Correct
2,new_learn,42,180,A,39.66269285368247,57.86439856133487,1.9831346426841236,0.9089318471234071,B,970,Incorrect
2,new_learn,42,181,B,58.80688340472234,51.39123829479407,2.940344170236117,0.8072516834290375,B,900,Correct
2,new_learn,42,182,A,46.19758693237975,73.65980525401808,2.3098793466189873,1.1570455152543901,A,1151,Correct
2,new_learn,42,183,A,31.87915382893153,54.73877451535077,1.5939576914465763,0.859834659419671,B,508,Incorrect
2,new_learn,42,184,A,30.135889576029157,56.67040540747785,1.506794478801458,0.8901766465204385,A,716,Correct
2,new_learn,42,185,A,22.153060555411287,35.81643864957553,1.1076530277705643,0.5626033026962801,A,1386,Correct
2,new_learn,42,186,B,39.77331770301987,25.336209451436503,1.9886658851509935,0.39798024741222593,B,3691,Correct
2,new_learn,42,187,B,64.79298373927978,44.052892935150155,3.2396491869639887,0.6919812240722271,B,1325,Correct
2,new_learn,42,188,B,41.53758595443777,24.081910202128874,2.0768792977218884,0.3782777608770858,B,2150,Correct
2,new_learn,42,189,B,67.56419329718118,46.434009943124195,3.378209664859059,0.7293837225701719,B,1595,Correct
2,new_learn,42,190,B,52.40855438714343,40.25321073779503,2.6204277193571714,0.6322959556862932,B,1225,Correct
2,new_learn,42,191,B,36.070392942988164,19.414869956717414,1.8035196471494084,0.304968064132123,A,1723,Incorrect
2,new_learn,42,192,A,35.061349773346926,46.7741461950213,1.7530674886673463,0.7347265703210695,B,822,Incorrect
2,new_learn,42,193,B,78.21249894133805,57.045639861233084,3.9106249470669026,0.8960708155368945,A,2307,Incorrect
2,new_learn,42,194,A,13.447239780069289,40.32582278886118,0.6723619890034643,0.6334365431172507,A,714,Correct
2,new_learn,42,195,B,74.96862725100448,64.3182053229545,3.7484313625502237,1.010308006673369,B,2718,Correct
2,new_learn,42,196,A,61.45360999748091,87.98116715733318,3.0726804998740453,1.3820049419786675,A,777,Correct
2,new_learn,42,197,A,11.62462458291877,33.744166876554075,0.5812312291459385,0.5300521338044516,A,812,Correct
2,new_learn,42,198,B,48.23905851953781,40.41050345242049,2.4119529259768906,0.6347667038699459,B,631,Correct
2,new_learn,42,199,A,28.538184152779262,61.7481978229063,1.4269092076389631,0.9699384232642585,B,3083,Incorrect
2,new_learn,42,200,A,54.689817853764715,67.23985168681324,2.734490892688236,1.0562011204387987,B,1123,Incorrect
2,new_learn,42,201,B,81.07140899494973,54.040929713836306,4.053570449747486,0.8488729389107526,B,727,Correct
2,new_learn,42,202,A,56.76538665054551,80.80050654715613,2.8382693325272754,1.2692113888743985,A,779,Correct
2,new_learn,42,203,B,50.25591258801189,19.003900263283782,2.5127956294005944,0.29851256728342734,B,1178,Correct
2,new_learn,42,204,B,37.99768598499685,20.65842773151601,1.8998842992498424,0.32450182398023175,B,844,Correct
2,new_learn,42,205,A,21.602959854408013,44.646458717311205,1.0801479927204007,0.7013049335755243,A,943,Correct
2,new_learn,42,206,A,23.42376959817058,46.49057788250781,1.171188479908529,0.7302722896841534,B,1140,Incorrect
2,new_learn,42,207,B,81.40071764857795,51.28948981380863,4.070035882428898,0.8056534220271486,A,1261,Incorrect
2,new_learn,42,208,A,54.96613758297025,62.60777428083623,2.7483068791485126,0.9834406186914156,B,438,Incorrect
2,new_learn,42,209,A,21.641108496994224,42.056315307382064,1.0820554248497112,0.6606190560336374,A,2071,Correct
2,new_learn,42,210,B,56.30486199959924,31.798573837004817,2.815243099979962,0.4994908298048347,B,1678,Correct
2,new_learn,42,211,A,21.18186525010773,44.742661763351435,1.0590932625053866,0.702816087488989,A,788,Correct
2,new_learn,42,212,B,69.34957242638791,41.00292023468892,3.4674786213193953,0.644072364925135,B,972,Correct
2,new_learn,42,213,B,68.03341492684122,35.9347299581025,3.401670746342061,0.5644614182255393,B,1012,Correct
2,new_learn,42,214,B,54.70772856697488,25.673422943715934,2.735386428348744,0.4032771845624081,B,1227,Correct
2,new_learn,42,215,B,69.47871005459422,44.71195688736582,3.4739355027297107,0.7023337764248601,A,702,Incorrect
2,new_learn,42,216,A,52.93472210351279,61.92256893317673,2.6467361051756395,0.9726774382593779,A,975,Correct
2,new_learn,42,217,B,54.56514834624291,42.54464665835325,2.728257417312145,0.6682897469572806,B,904,Correct
2,new_learn,42,218,A,61.41939992356464,77.16445041121742,3.070969996178232,1.2120963526508726,A,772,Correct
2,new_learn,42,219,B,58.913011826446464,49.3665719182993,2.945650591322323,0.7754482983572064,B,812,Correct
2,new_learn,42,220,A,45.68873551705185,60.94995771597143,2.2844367758525923,0.9573996969855219,B,2047,Incorrect
2,new_learn,42,221,B,71.06163448227895,41.38314174857765,3.553081724113947,0.6500448704989831,B,1464,Correct
2,new_learn,42,222,B,65.66959523577408,36.26301259819195,3.283479761788704,0.5696180698775696,B,747,Correct
2,new_learn,42,223,B,50.22147353744951,30.882354304280753,2.511073676872476,0.48509888703942766,B,1121,Correct
2,new_learn,42,224,A,20.05609191412097,51.630155333102174,1.0028045957060485,0.8110045834908683,A,820,Correct
2,new_learn,42,225,B,72.3421959197839,39.807373545498955,3.617109795989195,0.6252927614462209,B,600,Correct
2,new_learn,42,226,A,17.120372847043193,42.93983969906877,0.8560186423521597,0.6744974247245891,A,680,Correct
2,new_learn,42,227,A,38.859045004468065,49.41170885917438,1.9429522502234033,0.7761573077664996,B,847,Incorrect
2,new_learn,42,228,A,31.9222364537139,60.26770084466951,1.5961118226856952,0.9466828311118056,B,886,Incorrect
2,new_learn,42,229,A,38.374983995758676,69.92288067029428,1.9187491997879338,1.0983460411581614,B,744,Incorrect
2,new_learn,42,230,A,43.35679754845741,60.2869011899851,2.16783987742287,0.9469844294307548,A,557,Correct
2,new_learn,42,231,A,68.03302386468202,83.79248312275641,3.4016511932341014,1.3162092470224913,A,1130,Correct
2,new_learn,42,232,A,38.162534635280196,69.84104070521948,1.9081267317640098,1.0970605019929163,B,1286,Incorrect
2,new_learn,42,233,B,89.24812441040098,66.4089694049407,4.462406220520049,1.0431496520751553,A,1137,Incorrect
2,new_learn,42,234,B,78.94071169095304,56.077039195920776,3.9470355845476517,0.880856071864858,A,1319,Incorrect
2,new_learn,42,235,B,58.37396011665858,50.02322637573007,2.918698005832929,0.7857630024542638,B,378,Correct
2,new_learn,42,236,A,51.75786091893701,76.52252478013631,2.5878930459468505,1.2020130084170955,A,1012,Correct
2,new_learn,42,237,A,36.985121793702874,64.70208355414852,1.8492560896851438,1.0163379518283298,B,966,Incorrect
2,new_learn,42,238,B,43.91604109959306,17.232980989293644,2.195802054979653,0.27069503237708736,B,1998,Correct
2,new_learn,42,239,B,43.21927247685233,24.671851253573458,2.1609636238426164,0.3875445332434325,B,1274,Correct
2,new_learn,42,240,A,30.579212507172294,50.4336945961078,1.5289606253586145,0.7922106221826175,A,1444,Correct
2,new_learn,42,241,A,23.38968008622766,46.00770335853497,1.169484004311383,0.7226873143985595,A,2604,Correct
2,new_learn,42,242,A,49.92013728878217,63.59605479567614,2.4960068644391087,0.9989644927169504,B,751,Incorrect
2,new_learn,42,243,A,20.43775198594703,47.510386895939156,1.0218875992973515,0.7462914122074561,A,743,Correct
2,new_learn,42,244,B,39.60338534516029,15.960665557731307,1.9801692672580145,0.2507095483128615,A,1176,Incorrect
2,new_learn,42,245,B,79.66214702158196,60.99719691948684,3.983107351079098,0.958141728659149,B,1280,Correct
2,new_learn,42,246,B,75.82131431728881,61.66519831484716,3.7910657158644403,0.9686346700404077,B,506,Correct
2,new_learn,42,247,A,44.18079655316572,51.853378785609834,2.209039827658286,0.8145109692834034,A,849,Correct
2,new_learn,42,248,A,58.63643216680809,84.72051144273638,2.931821608340405,1.3307866817843532,A,1879,Correct
2,new_learn,42,249,A,33.777909303552875,57.571585966183456,1.6888954651776436,0.9043323576343758,B,2591,Incorrect
2,new_learn,42,250,A,33.04441363715018,53.1987704247544,1.652220681857509,0.835644331732092,A,1275,Correct
2,new_learn,42,251,A,39.43705359216771,50.31774469453326,1.9718526796083853,0.7903892853877625,B,825,Incorrect
2,new_learn,42,252,B,46.16817443821762,24.314822983714528,2.308408721910881,0.38193634629486906,B,820,Correct
2,new_learn,42,253,B,59.1974977288181,45.221733769089546,2.959874886440905,0.710341332957826,B,801,Correct
2,new_learn,42,254,A,66.67631589331518,88.7847670888177,3.333815794665759,1.3946278601845528,A,869,Correct
2,new_learn,42,255,A,22.803682894963053,52.69137113164694,1.1401841447481527,0.8276741222737766,A,720,Correct
2,new_learn,42,256,A,35.2331514043828,47.47733105711718,1.76165757021914,0.7457721723054493,A,865,Correct
2,new_learn,42,257,A,40.407573324151585,48.955084402589286,2.0203786662075793,0.7689846675752138,B,746,Incorrect
2,new_learn,42,258,B,59.20186481819145,50.18920886602445,2.9600932409095724,0.7883702493149307,A,692,Incorrect
2,new_learn,42,259,A,59.0347289628609,71.32562537031427,2.9517364481430453,1.1203803033803856,B,2620,Incorrect
2,new_learn,42,260,A,32.600547042420985,57.662860120427176,1.6300273521210493,0.9057660886965493,A,767,Correct
2,new_learn,42,261,B,62.30211518921461,30.344480764595012,3.1151057594607305,0.4766499892352424,B,1057,Correct
2,new_learn,42,262,A,57.32468659525151,77.08203748425701,2.866234329762575,1.2108018134213745,A,1168,Correct
2,new_learn,42,263,B,71.93000587963343,52.60868881961985,3.5965002939816713,0.826375351553546,B,1048,Correct
2,new_learn,42,264,A,22.05292746280345,39.766637648801336,1.1026463731401726,0.6246528834772077,A,1255,Correct
2,new_learn,42,265,B,89.08914893623276,66.73390025856321,4.454457446811638,1.0482536539884808,B,1062,Correct
2,new_learn,42,266,B,36.73815270622059,20.964344521785176,1.8369076353110296,0.32930715368482866,B,1116,Correct
2,new_learn,42,267,B,40.46393948692558,19.441964737258523,2.023196974346279,0.3053936679496159,B,776,Correct
2,new_learn,42,268,B,85.39133090387134,63.72535858518822,4.269566545193567,1.0009955918930127,B,742,Correct
2,new_learn,42,269,A,64.21222204504741,83.67595866474835,3.2106111022523702,1.314378885116283,A,427,Correct
2,new_learn,42,270,A,56.21605453218129,70.77971039358064,2.8108027266090643,1.1118050909784305,B,741,Incorrect
2,new_learn,42,271,B,73.2363861695792,46.95089160963815,3.66181930847896,0.7375028808016494,B,1188,Correct
2,new_learn,42,272,B,56.247637519751116,27.763792551648457,2.812381875987556,0.436112633580249,B,1462,Correct
2,new_learn,42,273,B,31.381132047058127,11.699675082566689,1.5690566023529064,0.18377806644389535,B,981,Correct
2,new_learn,42,274,A,50.68966708238458,70.39252995074982,2.534483354119229,1.1057232748043757,B,1198,Incorrect
2,new_learn,42,275,B,46.805697479448625,22.931791781293228,2.340284873972431,0.36021174296880804,B,809,Correct
2,new_learn,42,276,A,25.67803315472139,45.04201005094592,1.2839016577360696,0.7075182393948466,A,3926,Correct
2,new_learn,42,277,A,15.080129227750167,34.14653335099514,0.7540064613875083,0.5363724916052259,A,722,Correct
2,new_learn,42,278,A,14.397192198989256,37.84131461377409,0.7198596099494629,0.5944099799640638,A,803,Correct
2,new_learn,42,279,A,59.515673916019125,78.24651509480445,2.9757836958009563,1.2290933849542025,B,1976,Incorrect
2,new_learn,42,280,A,45.230665160115095,76.16720762017448,2.261533258005755,1.196431699519943,B,728,Incorrect
2,new_learn,42,281,A,31.308715018745115,61.76532366115883,1.5654357509372556,0.970207435302462,B,832,Incorrect
2,new_learn,42,282,A,43.772566657961214,53.310845685706894,2.1886283328980607,0.8374048058143795,B,667,Incorrect
2,new_learn,42,283,A,62.94108087212466,77.41472123248383,3.1470540436062326,1.2160275975183648,B,619,Incorrect
2,new_learn,42,284,A,40.75521006883309,57.438663684006016,2.0377605034416546,0.9022444193084408,B,888,Incorrect
2,new_learn,42,285,B,62.972597768268905,30.23733476814644,3.148629888413445,0.47496694385872046,B,891,Correct
2,new_learn,42,286,A,61.541802211192774,77.22862635958786,3.0770901105596384,1.2131044260905612,A,1925,Correct
2,new_learn,42,287,B,36.57967657225038,20.69237057130545,1.8289838286125188,0.32503499686085413,B,816,Correct
2,new_learn,42,288,A,35.296962404454135,57.402443377985385,1.7648481202227067,0.9016754720719148,B,2078,Incorrect
2,new_learn,42,289,B,64.69178577606452,49.371644526406044,3.2345892888032264,0.7755279786990198,B,1056,Correct
2,new_learn,42,290,B,38.524438834418405,16.583090386402283,1.92622194172092,0.2604865746586847,B,830,Correct
2,new_learn,42,291,A,34.1491881561263,53.629757464632384,1.7074594078063148,0.8424142603234575,B,807,Incorrect
2,new_learn,42,292,A,46.641146671446705,62.21413616766614,2.3320573335723354,0.9772573656688749,B,1117,Incorrect
2,new_learn,42,293,B,49.77175573303671,18.752351442821467,2.4885877866518356,0.2945612476515094,B,788,Correct
2,new_learn,42,294,A,60.126577945923245,80.47961733563928,3.0063288972961626,1.2641708729268106,A,1317,Correct
2,new_learn,42,295,B,78.60679871665377,56.64817309389812,3.9303399358326887,0.8898274221553666,B,1366,Correct
2,new_learn,42,296,A,30.633031363508216,57.8703502128434,1.5316515681754108,0.9090253354466867,A,2548,Correct
2,new_learn,42,297,B,41.39939321689461,29.616353110556933,2.0699696608447304,0.46521258679123445,B,1258,Correct
2,new_learn,42,298,B,77.02873694093886,44.92722770271324,3.851436847046943,0.7057152424849987,B,1071,Correct
2,new_learn,42,299,B,78.95581095332238,49.590276729551654,3.947790547666119,0.7789622453152217,B,955,Correct
2,new_learn,42,300,B,71.61252746997926,44.68740737713051,3.5806263734989625,0.7019481536198378,B,749,Incorrect
2,new_learn,42,301,B,75.3093073224426,59.95269383654884,3.7654653661221302,0.9417347125990996,B,1590,Correct
2,new_learn,42,302,B,38.974041652690225,26.634231251647186,1.9487020826345114,0.41836952617093237,B,1847,Correct
2,new_learn,42,303,B,74.60046168568205,59.476052198974955,3.7300230842841025,0.9342476432641139,B,1693,Correct
2,new_learn,42,304,B,58.2829683646469,33.04956758010891,2.914148418232345,0.5191413935699478,A,767,Incorrect
2,new_learn,42,305,A,57.57535681774943,77.18731773765649,2.8787678408874715,1.2124555517746136,A,2942,Correct
2,new_learn,42,306,B,39.78558412986695,24.618892071084527,1.9892792064933473,0.3867126523501958,B,673,Correct
2,new_learn,42,307,A,66.14746873205209,88.11072302165911,3.3073734366026044,1.3840400007366467,A,973,Incorrect
2,new_learn,42,308,A,23.0735979440861,53.93993507102336,1.153679897204305,0.8472865187711872,A,832,Correct
2,new_learn,42,309,B,59.651054601726145,27.85990074854883,2.9825527300863075,0.43762229760690896,A,680,Incorrect
2,new_learn,42,310,B,56.50181275386114,46.447181907818994,2.825090637693057,0.7295906273077647,B,1890,Correct
2,new_learn,42,311,B,48.27915068690214,32.33319198138335,2.413957534345107,0.5078885919791117,A,2655,Correct
2,new_learn,42,312,B,47.89117374503521,33.74180148529738,2.394558687251761,0.5300149783254771,A,1046,Incorrect
2,new_learn,42,313,A,15.109068994967192,31.437960893409564,0.7554534497483596,0.4938263349328934,A,697,Incorrect
2,new_learn,42,314,A,55.643091024445795,66.36738715560205,2.7821545512222894,1.042496479629945,B,3207,Incorrect
2,new_learn,42,315,A,11.988058774256466,32.98606129554023,0.5994029387128232,0.518143839184659,A,688,Correct
2,new_learn,42,316,B,78.3399391252165,50.88484112581429,3.9169969562608253,0.7992972152997098,B,1447,Incorrect
2,new_learn,42,317,A,49.82640735474294,66.9411861929205,2.491320367737147,1.0515096938313275,A,1767,Correct
2,new_learn,42,318,A,38.75110485604487,54.564477113786275,1.9375552428022433,0.8570968022381968,A,810,Incorrect
2,new_learn,42,319,B,76.72443514207848,46.11126834366194,3.836221757103924,0.7243141093807797,A,1100,Correct
2,new_learn,42,320,A,44.36874915598262,75.42642224866604,2.218437457799131,1.1847954701148546,B,2662,Incorrect
2,new_learn,42,321,B,61.92485776978473,29.896188760159205,3.0962428884892366,0.46960823489624953,B,1357,Incorrect
2,new_learn,42,322,A,61.54029784910876,83.27791390949733,3.077014892455438,1.3081264127218004,A,2740,Incorrect
2,new_learn,42,323,B,56.378889122657306,42.06450893545614,2.818944456132865,0.6607477612424562,B,789,Correct
2,new_learn,42,324,B,44.82494429349616,36.575506407256825,2.241247214674808,0.5745267111518223,B,759,Incorrect
2,new_learn,42,325,B,67.92279969440311,56.98701606572698,3.396139984720156,0.8951499551104573,B,2206,Correct
2,new_learn,42,326,A,41.16164134420532,63.77540240511155,2.058082067210266,1.0017816783781563,B,1427,Incorrect
2,new_learn,42,327,B,51.681276125148926,23.66144937275218,2.5840638062574466,0.3716731776136254,B,753,Incorrect
2,new_learn,42,328,A,33.91891779566966,61.42057474234702,1.6959458897834827,0.964792131949101,B,3962,Correct
2,new_learn,42,329,B,81.06751513512425,54.54745280333093,4.053375756756213,0.8568293849949019,B,796,Incorrect
2,new_learn,42,330,B,54.88188169722426,38.37227105261001,2.7440940848612128,0.6027502242021794,B,1685,Correct
2,new_learn,42,331,A,68.68970319951802,88.09369427765785,3.434485159975901,1.3837725138513752,A,1020,Correct
2,new_learn,42,332,B,41.39620223086825,14.419935753050787,2.0698101115434127,0.22650782113510579,B,1014,Correct
2,new_learn,42,333,B,38.32451561307704,27.76076680671508,1.916225780653852,0.4360651052899774,B,812,Correct
2,new_learn,42,334,B,59.75862199260138,28.525199636808402,2.9879310996300688,0.44807278810589757,B,1655,Correct
2,new_learn,42,335,A,39.30629037816894,47.23612009714968,1.9653145189084469,0.7419832394064532,A,903,Correct
2,new_learn,42,336,A,65.86079993223841,76.96901834976485,3.2930399966119204,1.209026513008196,B,1565,Correct
2,new_learn,42,337,A,59.106791692889416,76.70193481404567,2.955339584644471,1.2048311746396454,B,527,Correct
2,new_learn,42,338,A,59.0594805970418,76.35482280730932,2.95297402985209,1.1993787519879668,B,1181,Incorrect
2,new_learn,42,339,A,52.106888452915925,74.24139346228006,2.6053444226457962,1.1661810814668416,B,947,Correct
2,new_learn,42,340,B,64.05560001190798,34.59456215213278,3.202780000595399,0.5434101115564792,B,1696,Correct
2,new_learn,42,341,B,67.57027470824862,58.41306835692768,3.3785137354124313,0.917550332118812,B,855,Incorrect
2,new_learn,42,342,B,57.25595069735922,27.202558171297316,2.862797534867961,0.42729678454898323,B,1811,Incorrect
2,new_learn,42,343,B,82.81643786153994,66.22546915051605,4.140821893076997,1.0402672368189934,A,1190,Correct
2,new_learn,42,344,B,71.92744753930205,58.24531866102491,3.596372376965103,0.9149153260573617,B,863,Correct
2,new_learn,42,345,A,23.60363614399137,44.21729244594144,1.1801818071995684,0.6945636055490053,A,1086,Correct
2,new_learn,42,346,A,20.26942054820158,36.59088251609586,1.013471027410079,0.5747682385046698,A,1005,Correct
2,new_learn,42,347,A,64.20547215775787,78.25833529204871,3.2102736078878933,1.2292790561783353,B,950,Incorrect
2,new_learn,42,348,B,43.48342188659622,26.710278903063926,2.174171094329811,0.4195640798860004,B,1327,Correct
2,new_learn,42,349,B,82.76238772509586,53.319838724700034,4.138119386254793,0.8375460681405509,A,1684,Correct
2,new_learn,42,350,B,56.96734428841308,35.243830720657456,2.848367214420654,0.5536087983818987,B,855,Correct
2,new_learn,42,351,B,53.64426589687422,39.00466204404707,2.682213294843711,0.6126837986666547,B,2080,Incorrect
2,new_learn,42,352,B,84.43533545638883,54.838300940376676,4.221766772819441,0.8613980168481681,A,835,Incorrect
2,new_learn,42,353,A,21.075786036670717,44.295065500913836,1.0537893018335358,0.695785261839748,A,834,Incorrect
2,new_learn,42,354,A,18.97711131204605,45.96561938687209,0.9488555656023024,0.7220262609175098,A,770,Incorrect
2,new_learn,42,355,A,28.079847436514388,55.89124864375003,1.4039923718257195,0.8779376806958279,A,1935,Correct
2,new_learn,42,356,B,49.16830223709,42.28013205288294,2.4584151118545003,0.664134761250717,B,704,Correct
2,new_learn,42,357,A,50.39141983125974,70.02734396908058,2.5195709915629867,1.0999869468183452,A,1208,Correct
2,new_learn,42,358,A,14.443007821163338,35.37252334774557,0.7221503910581668,0.5556302974410545,A,2459,Incorrect
2,new_learn,42,359,A,13.12347756238821,32.35718782310696,0.6561738781194105,0.5082655177794897,B,750,Incorrect
2,new_learn,42,360,A,14.413378240256943,35.79179572654135,0.7206689120128472,0.5622162125664443,A,611,Correct
2,new_learn,42,361,B,77.02247333450634,64.84050293441578,3.851123666725317,1.0185122383691403,A,2744,Correct
2,new_learn,42,362,A,27.28641318967388,44.02008558526616,1.364320659483694,0.6914658874253305,B,622,Incorrect
2,new_learn,42,363,A,26.52509546136048,56.18761781892823,1.3262547730680239,0.8825930368132794,B,602,Incorrect
2,new_learn,42,364,B,64.57948399113948,56.065598398681196,3.228974199556974,0.8806763602420624,B,511,Incorrect
2,new_learn,42,365,A,21.786988022368167,52.28368764010677,1.0893494011184084,0.8212702449637145,A,2395,Correct
2,new_learn,42,366,A,47.24077682006178,69.79929218001496,2.3620388410030895,1.0964047176925125,B,1216,Correct
2,new_learn,42,367,B,64.19282925406249,45.185871529091486,3.2096414627031242,0.70977801020923,B,2958,Correct
2,new_learn,42,368,B,57.54700033916463,31.717869739033052,2.8773500169582316,0.4982231327983212,B,1049,Correct
2,new_learn,42,369,B,33.33354058115759,21.330939728937768,1.6666770290578796,0.3350656177329877,B,916,Correct
2,new_learn,42,370,A,60.730909784928244,74.39243833925303,3.0365454892464125,1.168553688846145,B,1000,Correct
2,new_learn,42,371,A,42.39636792224843,62.09626976938438,2.1198183961124215,0.9754059246141397,B,976,Incorrect
2,new_learn,42,372,B,42.84190267435287,17.69773461864738,2.1420951337176435,0.27799536531562186,B,986,Correct
2,new_learn,42,373,A,43.13643716878755,56.457356408707035,2.1568218584393777,0.8868300806734732,B,1142,Incorrect
2,new_learn,42,374,B,71.04491484301384,55.32541279937171,3.552245742150692,0.8690495520366445,B,1139,Incorrect
2,new_learn,42,375,B,77.47631859709796,66.02625315132386,3.8738159298548975,1.0371379592212948,B,1120,Correct
2,new_learn,42,376,A,23.659284917022276,46.049066094249326,1.1829642458511138,0.7233370387318226,A,1054,Incorrect
2,new_learn,42,377,A,11.171091843562984,36.797828001266886,0.5585545921781492,0.5780189305842042,B,771,Incorrect
2,new_learn,42,378,A,52.79231792243216,77.19144610370451,2.639615896121608,1.2125203999968528,A,1562,Correct
2,new_learn,42,379,B,56.236828927131604,49.1515215400217,2.81184144635658,0.7720702949144631,B,981,Incorrect
2,new_learn,42,380,A,28.736265414606326,43.09216312427331,1.4368132707303163,0.6768901154925502,A,2044,Correct
2,new_learn,42,381,A,54.30515788242419,69.95518594598856,2.7152578941212098,1.098853491242128,B,690,Incorrect
2,new_learn,42,382,B,79.55746736398794,53.08583603908557,3.977873368199397,0.8338703625503177,B,1065,Correct
2,new_learn,42,383,A,45.236798943441684,77.22600614624596,2.261839947172084,1.2130632678756326,A,799,Incorrect
2,new_learn,42,384,B,46.344721625377005,38.8165273901871,2.3172360812688506,0.6097285864343938,B,881,Incorrect
2,new_learn,42,385,B,69.77205795987577,55.943481434541894,3.4886028979937884,0.8787581514549689,B,1934,Correct
2,new_learn,42,386,A,24.773453917990082,44.45353930026936,1.238672695899504,0.698274562458957,A,1438,Incorrect
2,new_learn,42,387,A,41.15950780506231,64.71808806641569,2.0579753902531155,1.016589350119144,B,1330,Incorrect
2,new_learn,42,388,B,79.78376455502587,53.98952050403588,3.9891882277512933,0.8480654049315731,B,1903,Incorrect
2,new_learn,42,389,B,45.051996132569414,21.324898075402068,2.2525998066284707,0.33497071566117126,B,908,Correct
2,new_learn,42,390,A,58.63755102512532,67.54584697571504,2.931877551256266,1.0610076831970334,A,1470,Correct
2,new_learn,42,391,A,22.235834335024403,45.347625122837925,1.1117917167512201,0.7123188297182578,A,1307,Correct
2,new_learn,42,392,B,48.11612331844775,27.76871460620052,2.4058061659223875,0.43618994903235564,B,790,Incorrect
2,new_learn,42,393,A,38.41271708840521,57.92321223604138,1.9206358544202604,0.90985569016535,B,3866,Incorrect
2,new_learn,42,394,A,50.010015399301714,64.7810864912553,2.5005007699650856,1.0175789270624631,B,3249,Correct
2,new_learn,42,395,B,87.41347027896778,64.48246577851042,4.370673513948389,1.0128882038756177,A,3189,Incorrect
2,new_learn,42,396,B,83.02385589294536,68.20329130859243,4.151192794647268,1.0713347946285927,B,836,Correct
2,new_learn,42,397,A,66.72003760722515,78.2965198106647,3.3360018803612577,1.2298788571941595,A,1480,Incorrect
2,new_learn,42,398,A,39.319421903557156,51.125505649840406,1.9659710951778577,0.8030775648030104,B,502,Correct
2,new_learn,42,399,A,25.943494244249642,38.758778106588565,1.2971747122124822,0.6088214628088777,A,2730,Correct
2,new_learn,42,400,B,50.54684830490588,23.02602868757582,2.527342415245294,0.36169201283118,B,666,Incorrect
2,new_learn,42,401,A,13.36503474989269,37.565948960402366,0.6682517374946344,0.5900845463956459,A,1311,Incorrect
2,new_learn,42,402,A,19.17566395288171,42.291840271177236,0.9587831976440855,0.6643186735136168,B,1057,Correct
2,new_learn,42,403,A,61.280950651634384,78.12739936080729,3.064047532581719,1.2272223193799403,A,1845,Correct
2,new_learn,42,404,B,75.72402662723984,51.230703263842464,3.7862013313619918,0.8047300050596308,B,3599,Incorrect
2,new_learn,42,405,A,46.239365397258425,77.40916321705393,2.3119682698629216,1.2159402924161495,B,1399,Correct
2,new_learn,42,406,A,48.37918441312051,71.11719379382608,2.418959220656026,1.1171062678330281,B,2852,Correct
2,new_learn,42,407,B,63.24146280058062,39.119413994193245,3.162073140029031,0.6144863180844762,A,793,Incorrect
2,new_learn,42,408,A,20.267148059112454,41.2417323006195,1.0133574029556227,0.6478236160847156,B,2305,Correct
2,new_learn,42,409,B,85.79245860523845,64.92433975781296,4.289622930261922,1.0198291441115646,A,829,Correct
2,new_learn,42,410,B,63.816228200628366,37.083062664108894,3.1908114100314187,0.5824993861908723,B,655,Incorrect
2,new_learn,42,411,B,72.21068788360148,56.75242492361794,3.6105343941800743,0.8914650060672219,A,1675,Correct
2,new_learn,42,412,A,39.454374146731375,57.43397910849334,1.9727187073365686,0.9021708341683617,B,597,Correct
2,new_learn,42,413,B,66.07650006986971,48.88072962634215,3.3038250034934857,0.7678167054811273,B,906,Incorrect
2,new_learn,42,414,B,73.34228707887007,53.18000293255796,3.6671143539435036,0.8353495326540386,B,2018,Correct
2,new_learn,42,415,B,51.590267788973236,27.485780162627776,2.5795133894486617,0.4317456251854774,A,885,Correct
2,new_learn,42,416,B,68.60722725813825,48.262962456327614,3.430361362906913,0.7581128414663942,B,861,Correct
2,new_learn,42,417,B,58.728681614095564,42.9515138259181,2.9364340807047777,0.6746808014803236,A,712,Correct
2,new_learn,42,418,A,36.20303088949792,52.55438354447369,1.8101515444748957,0.8255223262862943,B,858,Correct
2,new_learn,42,419,A,48.28948981289188,63.48311299509291,2.414474490644594,0.997190407061973,B,1025,Incorrect
2,new_learn,42,420,B,64.3867795712473,45.94754485701156,3.219338978562365,0.7217423468663751,B,697,Incorrect
2,new_learn,42,421,B,60.71526147283275,51.71845081553756,3.035763073641638,0.8123915256856892,A,1930,Incorrect
2,new_learn,42,422,A,68.16642395098683,83.00423337943641,3.4083211975493413,1.3038274490084505,A,1301,Incorrect
2,new_learn,42,423,A,50.63073513748041,57.475761023462546,2.5315367568740204,0.9028271429539624,B,1303,Correct
2,new_learn,42,424,A,27.07812855705747,58.48612248504649,1.3539064278528736,0.9186978636798743,B,1222,Incorrect
2,new_learn,42,425,A,42.10800801302671,66.91399666785297,2.1054004006513356,1.051082601770294,A,3090,Correct
2,new_learn,42,426,A,25.68951550940674,39.15660257780901,1.2844757754703369,0.6150704749898998,A,3710,Correct
2,new_learn,42,427,B,66.84448791554244,57.9334040752897,3.3422243957771225,0.9100157832018956,B,1855,Incorrect
2,new_learn,42,428,A,25.688875096436938,38.98974340271141,1.2844437548218468,0.6124494571965464,A,1515,Correct
2,new_learn,42,429,A,24.796794597318033,41.85735306731563,1.2398397298659019,0.6574937644749649,B,753,Incorrect
2,new_learn,42,430,B,59.40601203731895,37.70092570378081,2.9703006018659477,0.592204756122662,B,1339,Incorrect
2,new_learn,42,431,B,49.27268449683985,37.42052075219108,2.4636342248419925,0.5878001654429394,B,1770,Correct
2,new_learn,42,432,A,62.10037569921795,84.32681185016101,3.105018784960897,1.3246024630455724,A,1633,Correct
2,new_learn,42,433,B,67.84805267773946,43.2046148723162,3.3924026338869733,0.6786565034202244,B,830,Incorrect
2,new_learn,42,434,B,46.94043025905796,38.9471318095133,2.347021512952898,0.6117801158558017,B,1600,Incorrect
2,new_learn,42,435,A,60.40470398958071,82.94060697123913,3.0202351994790355,1.3028280077256162,A,1586,Correct
2,new_learn,42,436,A,32.31463704557611,43.221752852642425,1.6157318522788058,0.6789257061856756,B,1333,Incorrect
2,new_learn,42,437,A,32.66378048822273,48.0628415763595,1.6331890244111364,0.7549693500347054,A,749,Correct
2,new_learn,42,438,A,29.2953275119812,40.49998818580498,1.46476637559906,0.6361723267749917,B,1179,Incorrect
2,new_learn,42,439,B,59.43243729675595,46.7751033006568,2.9716218648377977,0.7347416045012355,B,2068,Incorrect
2,new_learn,42,440,A,34.645193831917915,50.08184801029662,1.7322596915958957,0.7866838289367422,A,836,Incorrect
2,new_learn,42,441,B,57.26141417483962,31.851082001967608,2.863070708741981,0.5003156261313375,B,876,Incorrect
2,new_learn,42,442,A,62.43987045493448,88.61236648939519,3.121993522746724,1.3919197979014515,A,1397,Correct
2,new_learn,42,443,A,19.214424033342627,42.61726879462749,0.9607212016671314,0.6694304928063164,A,787,Correct
2,new_learn,42,444,B,79.64192765659058,51.0874093436438,3.9820963828295293,0.8024791494246295,B,800,Incorrect
2,new_learn,42,445,A,16.668538074663886,33.10379010709689,0.8334269037331943,0.5199931190321703,A,1189,Incorrect
2,new_learn,42,446,B,58.40245370097831,37.593044375170315,2.9201226850489155,0.5905101601755508,B,1389,Incorrect
2,new_learn,42,447,B,64.22062377129961,32.86121697017953,3.211031188564981,0.5161827891076812,B,3199,Correct
2,new_learn,42,448,B,36.74419267875718,24.97668243088016,1.837209633937859,0.39233281017949184,A,2431,Correct
2,new_learn,42,449,A,25.292324736354693,40.98317450946787,1.2646162368177345,0.6437621997986637,B,1389,Incorrect
2,new_learn,42,450,A,54.69178754630238,66.91402524698583,2.7345893773151193,1.051083050690263,B,1089,Incorrect
2,new_learn,42,451,B,84.54753356680541,58.964407705495404,4.227376678340271,0.9262107503542888,B,2275,Incorrect
2,new_learn,42,452,B,84.38374665800617,64.66553915651983,4.219187332900309,1.0157639137727288,B,1277,Correct
2,new_learn,42,453,A,24.285773071781392,46.68842500504385,1.2142886535890696,0.7333800650176187,B,2167,Incorrect
2,new_learn,42,454,A,24.81963650616045,42.777090380111886,1.2409818253080225,0.6719409644005305,B,784,Incorrect
2,new_learn,42,455,A,19.53419054767271,33.83277783316245,0.9767095273836355,0.5314440314559938,A,2191,Correct
2,new_learn,42,456,B,56.46544624302574,38.5747228104535,2.823272312151287,0.6059303289779168,B,883,Correct
2,new_learn,42,457,A,52.602874339350294,78.70347484483497,2.630143716967515,1.236271291922613,B,989,Correct
2,new_learn,42,458,A,44.260612542097014,74.9149443575991,2.213030627104851,1.176761194189607,A,1478,Correct
2,new_learn,42,459,B,64.23734305953049,34.35409791277213,3.211867152976524,0.5396329081173469,B,622,Correct
2,new_learn,42,460,B,40.172802388892535,30.70085721727451,2.008640119444627,0.4822479374634939,B,639,Correct
2,new_learn,42,461,B,40.92099563185978,30.328674703685774,2.0460497815929894,0.4764017082110691,B,1028,Correct
2,new_learn,42,462,B,50.60837220281995,43.22801064372113,2.530418610140998,0.6790240033380784,B,795,Incorrect
2,new_learn,42,463,B,43.189344480041996,33.30458178353882,2.1594672240021,0.5231471473102302,A,277,Correct
2,new_learn,42,464,A,35.03792962639098,60.631976337313795,1.7518964813195488,0.9524048571696759,A,1327,Correct
2,new_learn,42,465,B,57.54970373712423,28.75719851807665,2.8774851868562115,0.4517170180110645,A,705,Correct
2,new_learn,42,466,B,65.2068557033767,47.55251977241286,3.2603427851688354,0.746953233883478,A,2760,Incorrect
2,new_learn,42,467,B,43.269329743194504,23.879457757127323,2.163466487159725,0.375097645307495,B,1810,Incorrect
2,new_learn,42,468,A,12.260764042945649,37.327971102782314,0.6130382021472824,0.586346398949565,A,1109,Incorrect
2,new_learn,42,469,B,51.729923136329816,22.73820241012383,2.586496156816491,0.35717084823741374,B,1001,Incorrect
2,new_learn,42,470,B,44.8200046980393,27.907075065476512,2.241000234901965,0.4383633100443995,B,3629,Incorrect
2,new_learn,42,471,A,46.41160387206099,55.91293751116315,2.3205801936030492,0.8782783686284767,A,2892,Correct
2,new_learn,42,472,B,45.59464173105648,22.309638673916933,2.2797320865528237,0.35043898481110086,B,1526,Incorrect
2,new_learn,42,473,B,81.38375999828601,57.267224552703496,4.0691879999143,0.8995514597312516,A,2105,Correct
2,new_learn,42,474,B,63.97599666143277,37.57148058384616,3.1987998330716385,0.5901714369335133,B,3749,Incorrect
2,new_learn,42,475,A,39.50833743851896,55.77874223749045,1.975416871925948,0.8761704341988934,A,3851,Correct
2,new_learn,42,476,A,21.486316573555584,34.56959215987087,1.0743158286777792,0.5430178838352282,A,5060,Correct
2,new_learn,42,477,A,34.02014495880857,63.04955113089983,1.7010072479404286,0.9903800332248447,B,5896,Incorrect
2,new_learn,42,478,A,33.01136831520478,43.70316453296414,1.650568415760239,0.6864877031769308,A,2245,Correct
2,new_learn,42,479,B,76.0682106010083,47.85533856828779,3.8034105300504155,0.751709900405926,B,765,Correct
2,new_learn,42,480,B,58.420820638306964,44.78904555323533,2.9210410319153484,0.7035446823567136,B,1297,Correct
2,new_learn,42,481,A,22.27273990089685,50.60954352387198,1.1136369950448424,0.7949728506806456,A,953,Incorrect
2,new_learn,42,482,A,64.56457656402972,79.31550385895389,3.228228828201486,1.245885021195312,A,1461,Incorrect
2,new_learn,42,483,B,47.94878895162869,21.556481391928273,2.397439447581435,0.3386084178906347,B,470,Incorrect
2,new_learn,42,484,A,56.47431375691727,77.71374535809956,2.8237156878458634,1.2207246574997674,A,2189,Incorrect
2,new_learn,42,485,B,48.00122484527503,20.360176904347995,2.4000612422637517,0.31981691094244113,B,853,Incorrect
2,new_learn,42,486,B,71.37853767105847,53.556147058963674,3.568926883552923,0.8412579907750745,B,2599,Correct
2,new_learn,42,487,A,54.09591067586618,75.15772191813309,2.7047955337933094,1.1805747351927574,A,1412,Incorrect
2,new_learn,42,488,B,63.48574813244427,46.0464639591277,3.1742874066222133,0.7232961644889138,B,791,Incorrect
2,new_learn,42,489,A,47.39855262033869,78.59015838624508,2.369927631016935,1.2344913211534292,B,634,Correct
2,new_learn,42,490,A,17.90523716369472,43.98537125877004,0.895261858184736,0.6909205960598578,A,991,Correct
2,new_learn,42,491,B,81.65810904218208,62.82501899429643,4.082905452109104,0.9868530906706044,A,1941,Incorrect
2,new_learn,42,492,B,69.81973455328196,42.95679181836335,3.490986727664098,0.6747637079917822,B,862,Incorrect
2,new_learn,42,493,B,63.39274775351143,33.078820460195644,3.169637387675572,0.5196008967358319,B,1672,Correct
2,new_learn,42,494,A,54.796497113866806,76.93743462009618,2.73982485569334,1.2085303969426957,A,2300,Incorrect
2,new_learn,42,495,B,73.44848908663425,58.38972264567416,3.6724244543317126,0.9171836185439776,B,3231,Correct
2,new_learn,42,496,A,18.319032737075116,33.05304866307817,0.9159516368537558,0.5191960742933616,A,1199,Correct
2,new_learn,42,497,B,53.86178750824346,45.68506511427553,2.693089375412173,0.7176193247088969,B,844,Incorrect
2,new_learn,42,498,A,40.20131436386912,73.00544239596971,2.0100657181934563,1.1467668075162563,B,1000,Incorrect
2,new_learn,42,499,A,50.777460002124805,75.15079950576809,2.53887300010624,1.1804659981936025,B,1170,Correct
2,new_learn,42,500,A,56.15331613995876,78.93542721690869,2.807665806997938,1.2399147912630608,A,2353,Correct
2,new_learn,42,501,A,51.44809852582175,64.43049530986421,2.5724049262910875,1.0120718536631053,B,736,Incorrect
2,new_learn,42,502,A,32.69245503647974,45.35588080764809,1.634622751823987,0.7124485097120077,B,993,Incorrect
2,new_learn,42,503,A,26.846201650959514,57.34988321434391,1.342310082547976,0.9008498589520773,B,783,Incorrect
2,new_learn,42,504,B,62.94710377060154,41.018812237409385,3.147355188530077,0.6443219959201222,B,1140,Incorrect
2,new_learn,42,505,B,72.85217231302647,60.08321554734334,3.6426086156513238,0.9437849428379295,B,1273,Incorrect
2,new_learn,42,506,A,46.864446308663986,54.801704571472456,2.3432223154331995,0.8608231624296803,A,2713,Incorrect
2,new_learn,42,507,B,43.35380421382676,14.46374891858932,2.1676902106913385,0.2271960367300376,B,743,Incorrect
2,new_learn,42,508,B,62.88372296347228,39.08388521535304,3.144186148173614,0.6139282333314994,B,481,Incorrect
2,new_learn,42,509,B,54.07188642155984,25.254362101104547,2.703594321077992,0.39669459223963266,A,2253,Incorrect
2,new_learn,42,510,B,62.460337947898694,35.69953676997724,3.1230168973949346,0.5607670122655959,B,586,Correct
2,new_learn,42,511,B,74.37342383321224,48.81750521531461,3.7186711916606123,0.7668235787550688,A,2071,Incorrect
2,new_learn,42,512,A,29.010963246297393,38.40917832472767,1.4505481623148697,0.6033299622769238,B,722,Incorrect
2,new_learn,42,513,A,35.479751632752304,51.681586205929136,1.7739875816376154,0.8118124577520729,B,2672,Correct
2,new_learn,42,514,A,42.61108377799411,54.481307082141846,2.1305541888997057,0.8557903704361319,A,2061,Correct
2,new_learn,42,515,B,48.692321661751855,19.51950705530686,2.434616083087593,0.3066116998332308,B,995,Incorrect
2,new_learn,42,516,B,55.677972779386856,24.69742227044855,2.783898638969343,0.3879462018372306,B,1444,Incorrect
2,new_learn,42,517,B,68.13616157364152,36.550328684774215,3.406808078682076,0.5741312204118948,B,1040,Incorrect
2,new_learn,42,518,B,85.02216236632977,56.728605984733804,4.2511081183164885,0.8910908590501484,B,776,Incorrect
2,new_learn,42,519,B,86.0274174920649,60.002414678358434,4.301370874603245,0.942515725755896,B,909,Incorrect
2,new_learn,42,520,A,34.65764481440384,58.14701017327969,1.732882240720192,0.9133710999429321,A,3178,Correct
2,new_learn,42,521,A,20.361307027379112,40.237795003474325,1.0180653513689557,0.6320538058978352,A,2950,Correct
2,new_learn,42,522,A,49.15865559593039,67.54776376838622,2.4579327797965194,1.0610377921059049,B,1509,Incorrect
2,new_learn,42,523,B,50.81255340897526,22.566359648396567,2.540627670448763,0.354471548448339,A,350,Correct
2,new_learn,42,524,A,35.81137490547286,53.42612010933099,1.790568745273643,0.8392155322264006,A,562,Incorrect
2,new_learn,42,525,A,52.581013086913714,80.52454056268992,2.6290506543456855,1.2648765253271996,B,370,Correct
2,new_learn,42,526,B,63.22959132223381,30.74542997343068,3.1614795661116903,0.48294808467994627,A,2089,Incorrect
2,new_learn,42,527,B,35.066232680741486,23.147827070226434,1.7533116340370742,0.36360521735195156,B,405,Correct
2,new_learn,42,528,A,38.21600196632509,65.58939384318793,1.9108000983162543,1.0302757892558343,B,528,Incorrect
2,new_learn,42,529,A,55.571839184774625,74.04445897383911,2.778591959238731,1.163087641756219,B,2405,Incorrect
2,new_learn,42,530,A,60.2529756184984,74.38002013788834,3.01264878092492,1.1683586241952544,B,690,Correct
2,new_learn,42,531,A,46.161728374095134,58.15157561905246,2.3080864187047565,0.9134428137974326,A,606,Incorrect
2,new_learn,42,532,A,60.24840323170562,79.55761338736338,3.0124201615852813,1.2496880687743888,B,2729,Correct
2,new_learn,42,533,B,78.19768961221484,51.270297372690386,3.9098844806107422,0.805351947867041,B,1673,Correct
2,new_learn,42,534,B,79.48070949722373,63.08232950210716,3.9740354748611866,0.9908949146757527,A,3635,Correct
2,new_learn,42,535,B,73.53379459161005,40.768552648509896,3.6766897295805023,0.640390927490237,B,993,Correct
2,new_learn,42,536,B,54.411636540686246,40.91071822921162,2.7205818270343123,0.6426240592098663,B,1007,Correct
2,new_learn,42,537,B,48.92152417664416,33.64372863741242,2.446076208832208,0.528474453633317,A,830,Correct
2,new_learn,42,538,B,45.82498751241848,28.70954316978262,2.2912493756209242,0.45096844955054055,B,1027,Correct
2,new_learn,42,539,B,59.26546315161078,26.476092224889044,2.963273157580539,0.41588548414738635,B,887,Correct
2,new_learn,42,540,B,38.528994032235204,17.64406827537929,1.92644970161176,0.27715237636684154,A,1414,Incorrect
2,new_learn,42,541,B,37.8069102724742,27.10614213360067,1.89034551362371,0.4257822849704031,B,2258,Correct
2,new_learn,42,542,A,31.60684587957997,54.7452747021972,1.5803422939789984,0.8599367641158894,A,2029,Correct
2,new_learn,42,543,A,51.66268428328825,62.25526543773523,2.5831342141644127,0.977903422732358,A,1464,Correct
2,new_learn,42,544,B,68.93585286717125,46.65514807975336,3.4467926433585627,0.7328573522974854,A,525,Incorrect
2,new_learn,42,545,B,36.43650359877692,16.839001456583,1.8218251799388463,0.2645064163489449,B,467,Incorrect
2,new_learn,42,546,B,71.34973226540046,50.15885146429241,3.567486613270023,0.7878933963636136,A,1722,Correct
2,new_learn,42,547,B,54.65121666188284,26.197590360744826,2.732560833094142,0.4115107870953536,B,2133,Correct
2,new_learn,42,548,B,45.01048460209081,37.68302132931276,2.2505242301045403,0.5919235148661822,B,2379,Correct
2,new_learn,42,549,B,59.92513528517402,29.36097495976864,2.996256764258701,0.46120111617921516,B,2666,Incorrect
2,new_learn,42,550,B,50.99265704950807,26.774829443294273,2.5496328524754035,0.42057803740086486,A,759,Incorrect
2,new_learn,42,551,A,65.46996046696736,88.84600245530795,3.273498023348368,1.395589743072081,B,992,Incorrect
2,new_learn,42,552,B,50.27576900055326,35.552760340576185,2.513788450027663,0.5584614535039635,B,1982,Correct
2,new_learn,42,553,B,78.90867959514044,51.73039000125051,3.9454339797570217,0.8125790659763175,B,2312,Correct
2,new_learn,42,554,B,42.420312077432044,27.385201601470214,2.1210156038716024,0.43016574084127135,B,3130,Correct
2,new_learn,42,555,A,48.546297707431286,67.55495236238407,2.427314885371564,1.061150710276371,B,1484,Correct
2,new_learn,42,556,B,68.26146319888576,40.41785673838095,3.413073159944288,0.6348822090157116,B,814,Correct
2,new_learn,42,557,A,53.53292922074678,63.21152188270468,2.676646461037339,0.9929242638446774,A,1274,Correct
2,new_learn,42,558,B,81.27439176879567,52.77669310054131,4.063719588439784,0.8290143566271185,B,960,Correct
2,new_learn,42,559,A,26.59326979701944,53.138238911690834,1.329663489850972,0.834693504948336,A,850,Incorrect
2,new_learn,42,560,B,48.25889478490878,20.901747269359355,2.412944739245439,0.3283238783430493,B,893,Correct
2,new_learn,42,561,B,53.0191739146177,31.846129542332335,2.650958695730885,0.5002378330773009,A,825,Incorrect
2,new_learn,42,562,A,43.77866453103157,76.30147414412107,2.188933226551579,1.1985407531462116,A,775,Incorrect
2,new_learn,42,563,A,39.67664764507341,51.31072814913222,1.9838323822536705,0.805987033018284,B,803,Correct
2,new_learn,42,564,A,21.227152153968195,41.02255152742633,1.0613576076984097,0.6443807325503565,A,841,Incorrect
2,new_learn,42,565,A,61.25149871508585,87.89847882525794,3.0625749357542924,1.3807060766957417,A,1050,Correct
2,new_learn,42,566,B,75.02121264299767,64.42208009366578,3.7510606321498834,1.0119396677561683,B,772,Correct
2,new_learn,42,567,B,65.93440585787987,39.939071863796904,3.2967202928939936,0.6273614737924958,B,1450,Correct
2,new_learn,42,568,B,81.98420380363814,63.84527622372042,4.099210190181907,1.0028792537542557,A,1103,Incorrect
2,new_learn,42,569,A,35.65631848846923,50.38259764749732,1.7828159244234616,0.7914079931907398,A,528,Correct
2,new_learn,42,570,B,58.104591988163556,44.25538093599067,2.9052295994081776,0.6951618981516304,B,962,Incorrect
2,new_learn,42,571,B,89.00090267507788,68.20915291886597,4.450045133753894,1.0714268685874606,A,603,Incorrect
2,new_learn,42,572,B,48.66731834225628,28.861364085984192,2.4333659171128144,0.4533532469255412,B,3541,Correct
2,new_learn,42,573,B,37.1927981531405,11.826493838536724,1.8596399076570251,0.1857701308043596,A,1178,Correct
2,new_learn,42,574,A,51.368557130978125,61.5708523431245,2.5684278565489063,0.9671526869821092,B,549,Correct
2,new_learn,42,575,B,35.77303345089467,13.467821364560262,1.7886516725447337,0.2115520432938109,A,721,Incorrect
2,new_learn,42,576,B,40.50397882579831,23.9300698470394,2.0251989412899154,0.375892658156748,B,1638,Correct
2,new_learn,42,577,A,35.220421688877536,49.576679715468714,1.7610210844438767,0.7787486639174531,A,2480,Correct
2,new_learn,42,578,B,52.995100545382485,42.31258592240891,2.649755027269124,0.6646445454411336,B,857,Correct
2,new_learn,42,579,A,58.45683506909651,74.39044317817233,2.922841753454826,1.1685223489291756,B,2482,Incorrect
2,new_learn,42,580,B,61.35847152407614,43.78703493156779,3.067923576203807,0.6878051363174651,A,579,Incorrect
2,new_learn,42,581,A,62.36701976402442,73.7097161171156,3.118350988201221,1.1578295132585978,B,1195,Incorrect
2,new_learn,42,582,A,54.33114939045181,78.12006167502796,2.7165574695225905,1.2271070592812467,B,1106,Incorrect
2,new_learn,42,583,A,36.79012158859726,64.0529309550966,1.839506079429863,1.0061410866471285,A,1788,Correct
2,new_learn,42,584,A,49.234539112736044,65.48288246937057,2.461726955636802,1.028602712508292,B,400,Correct
2,new_learn,42,585,A,42.66631056751283,53.05810015795049,2.1333155283756415,0.8334346883482436,A,2264,Incorrect
2,new_learn,42,586,A,51.77555439106292,61.173094261777464,2.588777719553146,0.9609047176507801,B,767,Correct
2,new_learn,42,587,A,36.62803345857252,54.607090296518116,1.831401672928626,0.8577661685472789,B,1873,Incorrect
2,new_learn,42,588,B,86.23184822168605,63.1851679627775,4.311592411084303,0.9925102974384947,A,1247,Incorrect
2,new_learn,42,589,B,75.97854342963512,53.15114570576968,3.7989271714817563,0.8348962443956334,B,480,Incorrect
2,new_learn,42,590,A,40.86802329228903,52.85964998217652,2.0434011646144516,0.8303174402766678,B,1445,Incorrect
2,new_learn,42,591,B,52.13318177784426,21.929895728270893,2.6066590888922128,0.3444739965696301,A,3770,Correct
2,new_learn,42,592,A,32.50264646068803,62.3517489251753,1.6251323230344012,0.9794189818090301,A,1642,Incorrect
2,new_learn,42,593,A,50.177172349455674,60.07790308688404,2.5088586174727836,0.9437014949041723,B,836,Incorrect
2,new_learn,42,594,A,36.23672387740636,51.42994948649793,1.811836193870318,0.8078597574063804,B,1005,Correct
2,new_learn,42,595,B,57.155592363901256,41.10200959860102,2.857779618195063,0.6456288570137106,B,3161,Correct
2,new_learn,42,596,A,26.096901511127612,54.206964310444285,1.3048450755563805,0.8514810042554793,A,1135,Correct
2,new_learn,42,597,B,32.03333602290304,12.206350564843074,1.601666801145152,0.19173690630826315,B,2902,Correct
2,new_learn,42,598,B,81.80969527416904,63.898022338267936,4.090484763708452,1.0037077877840952,A,1780,Correct
2,new_learn,42,599,B,55.80258878437912,40.93310290152875,2.790129439218956,0.6429756768203889,B,630,Correct
2,new_learn,42,600,B,16.742299814998958,67.42543330181844,0.8371149907499479,1.059116229630507,A,1680,Incorrect
2,new_learn,42,601,A,76.16720762017448,54.769334839884905,3.808360381008724,0.8603146998749096,B,1620,Incorrect
2,new_learn,42,602,A,66.36738715560205,44.356908975554205,3.318369357780102,0.6967566968677611,B,897,Incorrect
2,new_learn,42,603,A,47.28601459766476,73.49564398119617,2.364300729883238,1.1544668760108838,B,1382,Incorrect
2,new_learn,42,604,B,37.70092570378081,40.59398796268105,1.8850462851890404,0.6376488718173563,A,1302,Incorrect
2,new_learn,42,605,B,34.746965137951626,48.343798969370134,1.7373482568975813,0.759382618443975,A,729,Incorrect
2,new_learn,42,606,A,51.42994948649793,63.76327612259364,2.5714974743248966,1.0015911991777882,B,798,Incorrect
2,new_learn,42,607,A,35.37252334774557,85.55699217883667,1.7686261673872787,1.343926090461363,B,1775,Incorrect
2,new_learn,42,608,A,86.4200435715561,32.220921599961585,4.321002178577805,0.50612505295166,B,1092,Incorrect
2,new_learn,42,609,A,37.175795407589874,88.99579364157896,1.8587897703794938,1.3979426575238882,A,1510,Correct
2,new_learn,42,610,A,78.93668138221187,51.57320720942758,3.9468340691105936,0.8101100444560092,A,1919,Correct
2,new_learn,42,611,A,46.00770335853497,76.61031991377234,2.3003851679267484,1.2033920911513551,A,735,Correct
2,new_learn,42,612,B,36.78096298514224,41.89856893821822,1.839048149257112,0.6581411818611593,B,946,Correct
2,new_learn,42,613,B,31.43792005368794,35.60694179960288,1.571896002684397,0.5593125338721587,B,568,Correct
2,new_learn,42,614,A,65.96078724987805,57.66486161634699,3.298039362493903,0.9057975281209386,B,1007,Incorrect
2,new_learn,42,615,B,62.82501899429643,18.341890957817924,3.1412509497148218,0.28811374943012924,B,749,Correct
2,new_learn,42,616,B,20.901747269359355,51.74110521509122,1.0450873634679678,0.8127473801617354,A,985,Incorrect
2,new_learn,42,617,B,56.27065284439739,18.78612225881733,2.813532642219869,0.2950917183887011,B,931,Correct
2,new_learn,42,618,A,76.35482280730932,40.9405194029582,3.817741140365466,0.6430921749524193,B,581,Incorrect
2,new_learn,42,619,B,66.02625315132386,22.523681402902042,3.3013126575661933,0.3538011601357705,B,647,Correct
2,new_learn,42,620,A,64.70208355414852,63.014878206297126,3.235104177707426,0.9898353921987931,B,1080,Incorrect
2,new_learn,42,621,A,46.28746386883786,65.63816063600612,2.314373193441893,1.031041816246118,B,840,Incorrect
2,new_learn,42,622,B,67.3789735894879,19.56239279164049,3.3689486794743946,0.3072853474042785,B,843,Correct
2,new_learn,42,623,A,54.72084669793916,60.04702780038527,2.736042334896958,0.9432165070379622,A,511,Correct
2,new_learn,42,624,A,83.27791390949733,38.45970215089124,4.163895695474866,0.6041235886824574,B,558,Incorrect
2,new_learn,42,625,A,59.37670175018876,63.86416434129777,2.9688350875094383,1.0031759476113615,B,3448,Incorrect
2,new_learn,42,626,A,53.27635470232382,66.98342118673693,2.663817735116191,1.0521731195628183,A,767,Correct
2,new_learn,42,627,A,78.2965198106647,33.27996239277485,3.914825990533235,0.5227604268244304,B,802,Incorrect
2,new_learn,42,628,B,26.532436391143456,63.107585513957844,1.3266218195571726,0.9912916351821982,B,1248,Correct
2,new_learn,42,629,A,41.02255152742633,78.77284784603181,2.0511275763713166,1.2373610004772007,A,961,Correct
2,new_learn,42,630,B,60.924124088156915,19.77216907079358,3.046206204407846,0.3105805054917022,B,329,Correct
2,new_learn,42,631,B,36.575506407256825,55.17505570650384,1.8287753203628412,0.8666877483448003,B,1091,Correct
2,new_learn,42,632,B,21.21039074633312,64.59442833037045,1.0605195373166558,1.014646907527621,B,1470,Correct
2,new_learn,42,633,B,22.931791781293228,53.194302520551375,1.1465895890646614,0.8355741500569861,A,1351,Incorrect
2,new_learn,42,634,B,60.08321554734334,27.147827686973528,3.0041607773671672,0.4264370801115881,A,1140,Incorrect
2,new_learn,42,635,B,42.54464665835325,45.43485165375709,2.1272323329176626,0.7136889808619267,B,1244,Correct
2,new_learn,42,636,B,37.57148058384616,36.02400333856723,1.8785740291923079,0.565863721206685,B,959,Correct
2,new_learn,42,637,B,40.93310290152875,44.19741121562088,2.0466551450764374,0.6942513119134084,B,789,Correct
2,new_learn,42,638,B,56.75242492361794,27.78931211639852,2.8376212461808965,0.43651349396595707,B,1884,Correct
2,new_learn,42,639,B,29.616353110556933,58.60060678310539,1.4808176555278467,0.9204961788285404,A,871,Incorrect
2,new_learn,42,640,B,40.768552648509896,26.466205408389953,2.038427632425495,0.4157301823969816,B,746,Correct
2,new_learn,42,641,B,45.903020975784706,22.233499874835204,2.295151048789235,0.3492429993518593,B,2604,Correct
2,new_learn,42,642,A,39.16461724724637,77.99736110725266,1.9582308623623186,1.2251796832696762,B,1654,Incorrect
2,new_learn,42,643,B,26.774829443294273,49.00734295049193,1.3387414721647135,0.7698055429261049,B,1038,Correct
2,new_learn,42,644,B,19.51950705530686,51.307678338248145,0.975975352765343,0.8059391267009427,A,1424,Incorrect
2,new_learn,42,645,A,83.79248312275641,31.966976135317978,4.18962415613782,0.502136086920976,A,498,Correct
2,new_learn,42,646,A,43.39497590528228,79.01769965710356,2.169748795264114,1.2412071237316065,B,633,Incorrect
2,new_learn,42,647,B,26.271650071356206,53.364249470573114,1.3135825035678101,0.8382436705054275,B,1170,Correct
2,new_learn,42,648,B,46.37050709526408,33.10949226519047,2.3185253547632043,0.5200826883220523,B,1053,Correct
2,new_learn,42,649,A,47.23612009714968,60.69370962183106,2.3618060048574843,0.953374561335283,A,1364,Correct
2,new_learn,42,650,A,52.07671049309018,73.59873970769114,2.6038355246545093,1.1560862998957495,B,563,Incorrect
2,new_learn,42,651,A,54.73877451535077,68.12084617106848,2.7369387257675384,1.0700397494367455,B,1490,Incorrect
2,new_learn,42,652,B,49.69328049556715,39.773130720370375,2.4846640247783576,0.6247548764069104,B,793,Correct
2,new_learn,42,653,A,66.91399666785297,57.89199198697329,3.345699833392649,0.9093652836397722,B,2942,Incorrect
2,new_learn,42,654,B,19.025559155770804,61.96815403477784,0.9512779577885402,0.9733934873608938,B,1007,Correct
2,new_learn,42,655,A,46.60734371223545,74.55425849777684,2.330367185611772,1.1710955539522507,A,747,Correct
2,new_learn,42,656,B,43.22801064372113,49.39162779718005,2.161400532186056,0.7758418751823113,B,892,Correct
2,new_learn,42,657,B,27.76871460620052,51.88387668155225,1.3884357303100259,0.8149900291126166,B,811,Correct
2,new_learn,42,658,B,14.419935753050787,58.60379776913175,0.7209967876525394,0.9205463027198311,A,1662,Incorrect
2,new_learn,42,659,A,51.630155333102174,79.94390808587903,2.581507766655109,1.2557559717092759,A,869,Correct
2,new_learn,42,660,B,24.52621015499316,54.830280782886646,1.2263105077496579,0.8612720365089116,B,2633,Correct
2,new_learn,42,661,B,64.8987223532049,22.240172364997704,3.244936117660245,0.34934781058223763,B,805,Correct
2,new_learn,42,662,B,30.81443173661137,47.12212454449856,1.5407215868305684,0.7401926014526997,B,1458,Correct
2,new_learn,42,663,A,42.93983969906877,82.8796271529568,2.1469919849534387,1.3018701389799512,A,1654,Correct
2,new_learn,42,664,B,55.245682355594006,32.06498769237601,2.7622841177797004,0.503675648859078,B,913,Correct
2,new_learn,42,665,B,29.4933009055585,48.32938930419229,1.4746650452779249,0.759156271952658,B,1200,Correct
2,new_learn,42,666,B,29.896188760159205,38.07514223021527,1.4948094380079602,0.5980829355741539,B,744,Correct
2,new_learn,42,667,A,33.07643986321044,87.86368306883557,1.653821993160522,1.3801595062319785,A,827,Correct
2,new_learn,42,668,A,72.46329362463362,41.443617600799136,3.623164681231681,0.6509948229642761,B,1778,Incorrect
2,new_learn,42,669,B,19.003900263283782,49.74408741198811,0.9501950131641891,0.7813782978651517,B,1538,Correct
2,new_learn,42,670,A,53.42588167268116,74.52454257826633,2.671294083634058,1.1706287773801063,B,1455,Incorrect
2,new_learn,42,671,A,64.43049530986421,48.55190147417825,3.2215247654932107,0.7626514849454692,B,944,Incorrect
2,new_learn,42,672,B,56.065598398681196,35.42051600886052,2.80327991993406,0.5563841643989793,B,963,Correct
2,new_learn,42,673,B,64.71281607313509,19.460499525312713,3.235640803656754,0.30568481171955036,B,910,Correct
2,new_learn,42,674,A,50.38685554571443,67.20434357931045,2.5193427772857215,1.0556433603904303,A,1131,Correct
2,new_learn,42,675,A,44.17519162603835,81.26822908705768,2.2087595813019174,1.2765583573507637,A,563,Correct
2,new_learn,42,676,A,79.31550385895389,35.43542343597028,3.9657751929476945,0.5566183297164391,B,747,Incorrect
2,new_learn,42,677,A,67.23985168681324,45.310182146235285,3.3619925843406624,0.711730676817141,B,1810,Incorrect
2,new_learn,42,678,A,47.630967931723,81.21490438271799,2.38154839658615,1.2757207348537218,B,908,Incorrect
2,new_learn,42,679,B,51.39123829479407,41.19311659527766,2.5695619147397037,0.6470599623709604,B,831,Correct
2,new_learn,42,680,A,53.629757464632384,65.8508118438737,2.681487873231619,1.0343821336081866,A,661,Correct
2,new_learn,42,681,A,54.490066375103225,75.7116163596674,2.724503318755161,1.1892752887346996,A,582,Correct
2,new_learn,42,682,A,74.38002013788834,39.7470243815016,3.7190010068944166,0.6243447989948991,A,1721,Correct
2,new_learn,42,683,B,63.898022338267936,18.190304725830956,3.194901116913397,0.2857326384661511,B,700,Correct
2,new_learn,42,684,A,62.77306813047781,61.37626504460757,3.1386534065238902,0.9640961168445956,A,738,Correct
2,new_learn,42,685,B,27.907075065476512,55.1799953019607,1.3953537532738256,0.8667653393287951,B,1174,Correct
2,new_learn,42,686,A,62.09626976938438,57.60363207775157,3.104813488469219,0.9048357367777685,B,914,Incorrect
2,new_learn,42,687,A,60.631976337313795,64.96207037360902,3.0315988168656895,1.0204218152385662,A,1158,Correct
2,new_learn,42,688,A,59.92617311199915,63.77787662486242,2.9963086555999574,1.0018205433311198,A,592,Correct
2,new_learn,42,689,B,31.846129542332335,46.9808260853823,1.5923064771166167,0.7379730904470837,B,851,Correct
2,new_learn,42,690,B,48.88072962634215,33.92349993013029,2.4440364813171076,0.5328690908227559,B,3212,Correct
2,new_learn,42,691,B,39.119413994193245,36.75853719941938,1.9559706997096624,0.5774017521120152,B,827,Correct
2,new_learn,42,692,B,12.206350564843078,67.96666397709696,0.6103175282421539,1.0676178611972693,A,643,Incorrect
2,new_learn,42,693,B,22.566359648396567,49.18744659102474,1.1283179824198284,0.7726346042960179,B,1043,Correct
2,new_learn,42,694,B,38.9471318095133,53.05956974094204,1.9473565904756651,0.8334577725038941,A,1922,Incorrect
2,new_learn,42,695,B,61.66519831484716,24.17868568271119,3.083259915742358,0.3797979065713109,B,914,Correct
2,new_learn,42,696,A,39.766637648801336,77.94707253719655,1.9883318824400669,1.224389752258437,A,617,Correct
2,new_learn,42,697,B,65.58134199544389,14.625547582688455,3.2790670997721945,0.22973756420251001,B,1001,Correct
2,new_learn,42,698,B,56.64817309389812,21.39320128334623,2.832408654694906,0.33604361994264126,B,825,Correct
2,new_learn,42,699,B,48.60885338625549,36.89408317476978,2.4304426693127743,0.5795309033139376,B,480,Correct
2,new_learn,42,700,B,33.74180148529738,52.10882625496479,1.687090074264869,0.8185235287489215,B,1268,Correct
2,new_learn,42,701,B,32.33319198138335,51.72084931309786,1.6166595990691675,0.8124292011972645,B,1378,Correct
2,new_learn,42,702,B,33.473557175816254,39.945953963497246,1.6736778587908128,0.6274695775617951,B,1558,Correct
2,new_learn,42,703,A,87.98116715733318,38.54639000251909,4.399058357866659,0.6054852782716051,A,774,Correct
2,new_learn,42,704,B,27.492349016936622,50.448763560943654,1.3746174508468312,0.7924473249287453,B,750,Correct
2,new_learn,42,705,B,30.9476301301327,60.24554829197582,1.547381506506635,0.9463348596278018,B,1169,Correct
2,new_learn,42,706,A,70.54118504713473,54.056910584536226,3.5270592523567363,0.8491239658406967,A,1027,Correct
2,new_learn,42,707,B,24.97668243088016,63.25580732124282,1.248834121544008,0.9936198978865395,B,790,Correct
2,new_learn,42,708,B,52.60868881961985,28.069994120366573,2.6304344409809928,0.4409224365742616,A,819,Incorrect
2,new_learn,42,709,B,44.68740737713051,28.387472530020744,2.2343703688565255,0.4459093757714762,B,1374,Correct
2,new_learn,42,710,A,49.86987266136768,58.040337707754695,2.493493633068384,0.911695492772764,A,622,Correct
2,new_learn,42,711,A,70.58214760314799,58.20876839101619,3.529107380157399,0.914341195758631,A,2605,Correct
2,new_learn,42,712,A,34.37015297741161,84.81713583911917,1.7185076488705804,1.3323044542535218,B,1534,Incorrect
2,new_learn,42,713,A,45.15377635428019,66.09571810188189,2.2576888177140093,1.03822911211307,B,928,Incorrect
2,new_learn,42,714,B,25.673422943715934,45.29227143302512,1.2836711471857967,0.711449335991933,B,1173,Correct
2,new_learn,42,715,A,77.40916321705393,53.760634602741575,3.8704581608526962,0.8444700736014908,A,887,Correct
2,new_learn,42,716,A,42.056315307382064,78.35889150300578,2.1028157653691033,1.2308585894464128,A,1266,Correct
2,new_learn,42,717,A,65.58939384318793,61.78399803367491,3.279469692159397,0.9705007716599967,B,876,Incorrect
2,new_learn,42,718,A,52.29342136725157,74.38550907021195,2.6146710683625782,1.1684448441425739,A,2418,Correct
2,new_learn,42,719,B,24.81976864280628,55.750514475893524,1.240988432140314,0.8757270335565926,B,696,Correct
2,new_learn,42,720,B,28.291869720999717,56.78033408084847,1.4145934860499858,0.8919034020838384,B,1020,Correct
2,new_learn,42,721,B,57.776193640427934,34.417193799334825,2.888809682021397,0.5406240159858324,A,2066,Incorrect
2,new_learn,42,722,B,46.447181907818994,43.49818724613886,2.3223590953909494,0.6832679274847155,A,629,Incorrect
2,new_learn,42,723,A,71.78343628847372,60.09437780367955,3.5891718144236857,0.9439602791504459,A,1492,Correct
2,new_learn,42,724,A,57.95090172375318,50.58751158141672,2.897545086187659,0.7946267737378369,A,1484,Correct
2,new_learn,42,725,A,32.98606129554023,88.01194122574353,1.6493030647770115,1.3824883399148626,B,1023,Incorrect
2,new_learn,42,726,A,77.22600614624596,54.763201056558316,3.861300307312298,0.860218350631722,A,892,Correct
2,new_learn,42,727,A,84.72051144273638,41.36356783319191,4.236025572136819,0.6497374041550938,B,804,Incorrect
2,new_learn,42,728,A,41.2417323006195,79.73285194088754,2.0620866150309753,1.252440709536275,A,1618,Correct
2,new_learn,42,729,B,68.20329130859243,16.976144107054637,3.4101645654296213,0.26666064806502254,A,890,Incorrect
2,new_learn,42,730,B,28.525199636808402,40.24137800739862,1.42625998184042,0.632110087591867,B,795,Correct
2,new_learn,42,731,B,49.458482167538726,41.44742192064305,2.472924108376936,0.6510545810806438,A,688,Incorrect
2,new_learn,42,732,A,65.48288246937057,50.765460887263956,3.2741441234685285,0.7974219948976421,A,906,Correct
2,new_learn,42,733,B,33.64372863741242,51.07847582335584,1.6821864318706212,0.8023388220160927,B,1226,Correct
2,new_learn,42,734,B,59.476052198974955,25.39953831431795,2.973802609948748,0.39897501486416875,B,799,Correct
2,new_learn,42,735,B,26.476092224889044,40.73453684838922,1.3238046112444521,0.6398566085514115,B,738,Correct
2,new_learn,42,736,A,57.34988321434391,73.15379834904049,2.8674941607171958,1.1490971773776737,A,2739,Correct
2,new_learn,42,737,A,50.90604556023479,62.12381476883358,2.5453022780117394,0.9758386004537033,A,1318,Correct
2,new_learn,42,738,B,49.1515215400217,43.763171072868396,2.4575760770010846,0.6874302837015833,B,768,Correct
2,new_learn,42,739,A,89.14747642195309,34.27099443957627,4.457373821097654,0.5383275218129473,A,2036,Correct
2,new_learn,42,740,A,62.3517489251753,67.49735353931197,3.117587446258765,1.0602459500792776,A,1364,Correct
2,new_learn,42,741,B,54.3638438028009,19.445958768411273,2.7181921901400448,0.3054564060442544,B,643,Correct
2,new_learn,42,742,B,54.067337716286055,19.974421682251716,2.7033668858143027,0.3137574820833333,A,1595,Incorrect
2,new_learn,42,743,B,14.986692253201404,62.73862644168692,0.7493346126600702,0.9854960396275898,B,1465,Correct
2,new_learn,42,744,A,38.40917832472767,70.9890367537026,1.9204589162363834,1.1150931817542398,B,1019,Incorrect
2,new_learn,42,745,A,70.77971039358064,43.78394546781871,3.5389855196790325,0.6877566071343769,A,2053,Correct
2,new_learn,42,746,A,45.19010578405698,83.5761064449536,2.259505289202849,1.3128104101155238,A,1218,Correct
2,new_learn,42,747,B,64.92433975781296,14.207541394761549,3.246216987890648,0.22317153835677886,B,772,Correct
2,new_learn,42,748,A,61.173094261777464,48.22444560893708,3.058654713088873,0.7575078202423864,B,1732,Incorrect
2,new_learn,42,749,A,71.46790313740289,39.24893028968479,3.5733951568701445,0.6165207552966584,A,779,Correct
2,new_learn,42,750,A,63.48311299509291,51.71051018710812,3.174155649754646,0.8122667945859952,A,1352,Correct
2,new_learn,42,751,A,83.13410539445077,33.2541934039435,4.156705269722539,0.5223556484944153,A,1209,Correct
2,new_learn,42,752,B,31.798573837004817,43.69513800040076,1.5899286918502409,0.6863616226982562,B,887,Correct
2,new_learn,42,753,B,24.081910202128874,58.46241404556223,1.204095510106444,0.9183254523833152,B,1543,Correct
2,new_learn,42,754,B,42.06450893545614,43.621110877342694,2.103225446772807,0.6851988073684281,B,1248,Correct
2,new_learn,42,755,B,60.932153212565765,25.09806578055384,3.0466076606282884,0.3942394953775066,B,1872,Correct
2,new_learn,42,756,A,72.60586107644542,49.11007621514307,3.630293053822271,0.7714192732736416,A,1249,Correct
2,new_learn,42,757,A,52.69137113164694,77.19631710503694,2.634568556582347,1.2125969135068608,B,892,Incorrect
2,new_learn,42,758,B,24.73099065693146,52.0093158862621,1.236549532846573,0.8169604235325598,B,2418,Correct
2,new_learn,42,759,B,62.72888230198989,15.763695551998808,3.136444115099495,0.24761555069792776,A,721,Incorrect
2,new_learn,42,760,B,15.01102602098463,68.13310944133552,0.7505513010492315,1.070232380435645,B,2640,Correct
2,new_learn,42,761,B,40.41785673838095,31.738536801114236,2.0208928369190473,0.49854777025034885,B,757,Correct
2,new_learn,42,762,B,58.38972264567416,26.551510913365746,2.919486132283708,0.4170701581356952,A,1083,Incorrect
2,new_learn,42,763,B,21.929895728270893,47.86681822215574,1.0964947864135446,0.7518902223872126,B,831,Correct
2,new_learn,42,764,A,63.78473681001446,50.76077407911876,3.1892368405007225,0.7973483746874536,B,1058,Incorrect
2,new_learn,42,765,A,64.36176549782789,47.50689552043773,3.2180882748913944,0.7462365698093253,A,496,Correct
2,new_learn,42,766,B,47.25235872842359,25.193950232603044,2.3626179364211795,0.3957456448282629,B,2141,Correct
2,new_learn,42,767,A,81.01806819080781,37.93683215541377,4.050903409540391,0.5959103659995846,A,803,Correct
2,new_learn,42,768,B,44.92722770271324,22.971263059061144,2.2463613851356623,0.3608317563501254,B,603,Correct
2,new_learn,42,769,B,35.69953676997724,37.539662052101306,1.7849768384988622,0.5896716326056249,B,452,Correct
2,new_learn,42,770,A,49.576679715468714,64.77957831112246,2.4788339857734356,1.017555236624335,A,590,Correct
2,new_learn,42,771,A,37.831149791636406,80.62986096527382,1.8915574895818201,1.2665308943423534,B,1137,Incorrect
2,new_learn,42,772,B,23.02602868757582,49.45315169509412,1.151301434378791,0.7768082903108465,B,702,Correct
2,new_learn,42,773,A,35.488678653576414,75.18518345586723,1.7744339326788208,1.1810061000187666,A,1051,Correct
2,new_learn,42,774,B,56.84715652211596,17.971553213904656,2.8423578261057982,0.2822964977520045,A,1575,Incorrect
2,new_learn,42,775,B,55.58566744116379,19.24120722252087,2.7792833720581895,0.30224017628235217,B,1069,Correct
2,new_learn,42,776,B,57.384292452263296,28.057177352642086,2.869214622613165,0.44072111125763147,B,591,Correct
2,new_learn,42,777,A,78.43535588273511,50.58911552443145,3.9217677941367555,0.794651968415796,A,2108,Correct
2,new_learn,42,778,A,58.48612248504649,72.92187144294253,2.924306124252324,1.145454078055838,A,844,Correct
2,new_learn,42,779,A,57.662860120427176,67.39945295757902,2.8831430060213585,1.0587081313375055,A,911,Correct
2,new_learn,42,780,B,37.16679950191385,39.52055727534833,1.8583399750956926,0.6207874620100449,B,892,Correct
2,new_learn,42,781,B,16.583090386402283,61.475561165581595,0.8291545193201142,0.9656558566655055,A,1211,Incorrect
2,new_learn,42,782,A,53.38603739931003,75.8347940435589,2.669301869965501,1.1912101592686983,A,667,Correct
2,new_learn,42,783,A,45.347625122837925,77.7641656649756,2.2673812561418965,1.2215166578281347,B,953,Incorrect
2,new_learn,42,784,A,37.327971102782314,87.73923595705435,1.8663985551391158,1.378204695571317,A,873,Correct
2,new_learn,42,785,A,79.53512218208515,32.95602343452103,3.9767561091042576,0.5176720055671217,A,970,Correct
2,new_learn,42,786,B,45.54653351927576,27.88283261499791,2.277326675963788,0.4379825105227566,B,659,Correct
2,new_learn,42,787,B,27.32138230730736,52.941517829778284,1.3660691153653681,0.8316034174196225,B,1126,Correct
2,new_learn,42,788,B,41.78361965837174,27.842235343450213,2.0891809829185872,0.4373448100725064,B,647,Correct
2,new_learn,42,789,A,62.25526543773523,48.33731571671175,3.1127632718867617,0.7592807797493605,A,1318,Correct
2,new_learn,42,790,A,76.70193481404567,40.893208307110584,3.8350967407022836,0.6423490139966785,A,556,Correct
2,new_learn,42,791,A,61.22640258675387,62.965363237073305,3.0613201293376937,0.9890576128810117,A,429,Correct
2,new_learn,42,792,A,37.42351095067545,79.37457456792417,1.8711755475337726,1.246812901722029,B,698,Incorrect
2,new_learn,42,793,A,78.24651509480445,40.484326083980875,3.912325754740223,0.6359263070548398,A,612,Correct
2,new_learn,42,794,A,39.427698197821925,82.69544235455234,1.9713849098910965,1.2989769709320993,A,473,Correct
2,new_learn,42,795,A,48.42338227960452,59.34939244795887,2.4211691139802256,0.9322580765476257,A,650,Correct
2,new_learn,42,796,B,35.255022442237134,53.76186711679499,1.7627511221118568,0.8444894338869691,B,646,Correct
2,new_learn,42,797,B,40.797512272919604,40.42245068695193,2.0398756136459806,0.6349543705911194,B,633,Correct
2,new_learn,42,798,A,33.744166876554075,88.37537541708123,1.6872083438277037,1.3881971508427118,A,779,Correct
2,new_learn,42,799,A,71.60405283018777,56.52908066767549,3.580202641509388,0.8879567226987706,A,642,Correct
2,new_learn,42,800,B,51.230703263842464,24.275973372760163,2.561535163192123,0.38132609803302386,B,577,Correct
2,new_learn,42,801,B,60.177911194448185,20.78792394070696,3.0088955597224096,0.32653594567754185,A,646,Incorrect
2,new_learn,42,802,B,58.41306835692768,32.42972529175138,2.920653417846384,0.5094049336725063,A,631,Incorrect
2,new_learn,42,803,B,55.26981866647281,33.3456731190721,2.76349093332364,0.5237926084994179,B,631,Correct
2,new_learn,42,804,A,33.05304866307817,81.68096726292488,1.6526524331539088,1.283041633456566,A,981,Correct
2,new_learn,42,805,A,44.646458717311205,78.39704014559199,2.23232293586556,1.2314578269228793,A,1036,Correct
2,new_learn,42,806,B,17.64406827537929,61.471005967764796,0.8822034137689644,0.9655843037855211,B,1410,Correct
2,new_learn,42,807,A,80.47961733563928,39.873422054076755,4.023980866781963,0.6263302489928638,A,748,Correct
2,new_learn,42,808,A,83.24718363743179,39.90039674821517,4.16235918187159,0.6267539664975542,B,1283,Incorrect
2,new_learn,42,809,B,28.330493488981666,58.10977718344135,1.4165246744490831,0.9127862455061957,B,777,Correct
2,new_learn,42,810,B,13.444187379162834,65.6413143152175,0.6722093689581417,1.031091354123329,B,721,Correct
2,new_learn,42,811,A,75.37780107172185,54.331772074630564,3.7688900535860923,0.8534414800308723,B,756,Incorrect
2,new_learn,42,812,A,38.852413775636755,82.41844696938955,1.9426206887818378,1.2946259375965707,A,1632,Correct
2,new_learn,42,813,A,88.84600245530795,34.530039533032635,4.442300122765397,0.5423965926257023,A,641,Correct
2,new_learn,42,814,A,38.48459346559258,71.73117300286995,1.9242296732796291,1.1267506306959738,B,818,Incorrect
2,new_learn,42,815,A,63.59605479567614,50.07986271121783,3.179802739783807,0.7866526439317368,A,2542,Correct
2,new_learn,42,816,B,53.98952050403588,20.21623544497413,2.699476025201794,0.3175558837858616,B,872,Correct
2,new_learn,42,817,A,61.89891620444923,50.089101621099935,3.0949458102224616,0.7867977683888007,A,962,Correct
2,new_learn,42,818,B,63.84527622372042,18.015796196361862,3.192263811186021,0.2829914648953068,B,1145,Correct
2,new_learn,42,819,B,16.839001456583,63.56349640122308,0.8419500728291499,0.9984530666528184,B,757,Correct
2,new_learn,42,820,B,66.22546915051605,17.18356213846006,3.3112734575258025,0.26991876288344924,A,787,Incorrect
2,new_learn,42,821,B,43.31059372264391,32.92901626438055,2.1655296861321953,0.5172477779305839,B,1120,Correct
2,new_learn,42,822,B,37.420722806677055,47.94092847844803,1.8710361403338527,0.7530543435708302,B,945,Correct
2,new_learn,42,823,A,42.81648646648428,72.34482903619589,2.140824323324214,1.1363899171266127,A,1096,Correct
2,new_learn,42,824,A,47.47733105711718,64.7668485956172,2.373866552855859,1.0173552787207671,A,722,Correct
2,new_learn,42,825,B,40.25321073779503,47.59144561285657,2.0126605368897517,0.7475646795553419,B,2801,Correct
2,new_learn,42,826,B,43.77584622043861,24.811235188424916,2.1887923110219303,0.38973397097222146,B,1236,Correct
2,new_learn,42,827,B,55.321352589573024,25.547397354399166,2.7660676294786515,0.40129757923459874,B,719,Correct
2,new_learn,42,828,A,67.54776376838622,50.84134440406961,3.377388188419311,0.7986139703922681,A,519,Correct
2,new_learn,42,829,B,27.485780162627776,48.409732211026764,1.3742890081313888,0.7604182953820544,B,722,Correct
2,new_learn,42,830,A,77.71374535809956,43.52568624308273,3.885687267904978,0.6836998807186151,A,821,Correct
2,new_learn,42,831,A,68.92093453491712,45.95680375187768,3.4460467267458563,0.7218877852468337,B,1263,Incorrect
2,new_learn,42,832,A,62.95587561248328,67.26167699881474,3.147793780624164,1.0565439516380297,A,709,Correct
2,new_learn,42,833,B,68.20915291886597,10.999097324922118,3.4104576459432985,0.17277341676047234,A,578,Incorrect
2,new_learn,42,834,A,78.25833529204871,35.79452784224213,3.912916764602436,0.5622591285395159,A,694,Correct
2,new_learn,42,835,A,55.12566471588713,52.18529124240346,2.7562832357943567,0.8197246379628925,A,932,Correct
2,new_learn,42,836,B,58.62627083485395,28.601027514751763,2.9313135417426976,0.4492638896273184,A,563,Incorrect
2,new_learn,42,837,B,15.826985328482081,68.78889553698286,0.7913492664241041,1.0805334443377053,B,640,Correct
2,new_learn,42,838,A,38.98974340271141,74.31112490356307,1.9494871701355705,1.1672764203851362,B,556,Incorrect
2,new_learn,42,839,A,41.83098658361463,77.95101152093866,2.091549329180731,1.2244516256703712,A,965,Correct
2,new_learn,42,840,B,48.99166249690405,37.25114954731718,2.4495831248452022,0.5851396887781322,A,794,Incorrect
2,new_learn,42,841,A,48.955084402589286,59.592426675848415,2.447754220129464,0.936075649272169,A,657,Correct
2,new_learn,42,842,A,58.827432405788144,70.40168475971879,2.9413716202894076,1.1058670782073854,B,263,Incorrect
2,new_learn,42,843,B,46.95089160963815,26.763613830420795,2.3475445804819075,0.4204018629658207,B,436,Correct
2,new_learn,42,844,B,53.319838724700034,17.237612274904137,2.665991936235002,0.27076778044134037,B,708,Correct
2,new_learn,42,845,A,63.04955113089983,65.97985504119143,3.1524775565449916,1.0364091394116324,A,542,Correct
2,new_learn,42,846,A,76.55405963261079,46.46552681115215,3.8277029816305395,0.7298787883754758,A,498,Correct
2,new_learn,42,847,B,21.556481391928273,52.05121104837131,1.0778240695964136,0.817618511200076,B,706,Correct
2,new_learn,42,848,B,48.262962456327614,31.392772741861748,2.4131481228163807,0.4931165211082339,B,618,Correct
2,new_learn,42,849,A,32.476867396556756,81.99474213894808,1.6238433698278378,1.2879703976835437,A,604,Correct
2,new_learn,42,850,A,51.31072814913222,60.32335235492659,2.565536407456611,0.9475570029907298,A,746,Correct
2,new_learn,42,851,A,54.206964310444285,73.90309848887239,2.7103482155222145,1.1608671564508222,A,577,Correct
2,new_learn,42,852,B,47.81993163030402,41.24991276002638,2.390996581515201,0.6479521144405938,B,730,Correct
2,new_learn,42,853,B,51.467952763898,20.905990826044274,2.5733976381948995,0.3283905359755815,A,2055,Incorrect
2,new_learn,42,854,A,65.81971827112338,49.69203792918405,3.290985913556169,0.7805607065011498,A,576,Correct
2,new_learn,42,855,A,54.7452747021972,68.39315412042004,2.7372637351098597,1.0743171527027304,B,725,Incorrect
2,new_learn,42,856,A,79.55761338736338,39.75159676829438,3.977880669368169,0.6244166218786869,B,1148,Incorrect
2,new_learn,42,857,A,67.34427193810886,54.55783896234327,3.3672135969054433,0.8569925303991629,A,655,Correct
2,new_learn,42,858,A,74.9149443575991,55.739387457902986,3.7457472178799547,0.8755522507667154,A,561,Correct
2,new_learn,42,859,B,40.666435492533815,51.89200523903004,2.0333217746266907,0.8151177121948991,B,852,Correct
2,new_learn,42,860,A,68.18016992559927,58.29202928498689,3.409008496279964,0.9156490548227795,B,1110,Incorrect
2,new_learn,42,861,B,44.02288332973712,49.13100475589529,2.201144166486856,0.7717480180230292,B,917,Correct
2,new_learn,42,862,B,26.578602281150545,44.01900626763717,1.3289301140575274,0.69144893354366,B,739,Correct
2,new_learn,42,863,B,57.045639861233084,21.787501058661945,2.8522819930616543,0.34223726632986107,B,878,Correct
2,new_learn,42,864,A,57.86439856133487,60.33730714631753,2.8932199280667437,0.9477762043413104,B,560,Incorrect
2,new_learn,42,865,B,38.84445574271845,43.941333064348896,1.9422227871359226,0.6902288457195037,B,638,Correct
2,new_learn,42,866,B,60.13788008763553,31.563634326712815,3.0068940043817762,0.495800408606978,A,834,Incorrect
2,new_learn,42,867,A,42.3765048505599,78.09849290108014,2.118825242527995,1.2267682577723398,B,644,Incorrect
2,new_learn,42,868,A,49.35082053219562,79.36164616023844,2.4675410266097813,1.2466098227689884,A,740,Correct
2,new_learn,42,869,A,55.993793398987265,74.00346156225436,2.799689669949363,1.1624436559209645,A,346,Correct
2,new_learn,42,870,A,74.04445897383911,44.428160815225375,3.702222948691956,0.6978759181480898,A,387,Correct
2,new_learn,42,871,B,39.046340837680454,37.94940649226049,1.9523170418840226,0.5961078832208918,B,578,Correct
2,new_learn,42,872,B,44.78904555323533,41.579179361693036,2.2394522776617665,0.653124222124936,B,548,Correct
2,new_learn,42,873,B,20.360176904347995,51.99877515472497,1.0180088452173996,0.8167948501087572,B,851,Correct
2,new_learn,42,874,B,40.41050345242049,51.76094148046219,2.0205251726210247,0.8130589674895561,A,733,Incorrect
2,new_learn,42,875,B,41.33297091197476,38.15097865248531,2.066648545598738,0.5992741713095443,A,533,Incorrect
2,new_learn,42,876,B,65.47172235469945,20.28159324169785,3.2735861177349728,0.31858252165607176,A,618,Incorrect
2,new_learn,42,877,B,51.30741843344403,32.03331259477325,2.5653709216722014,0.5031780975894252,A,2364,Incorrect
2,new_learn,42,878,A,87.89847882525794,38.74850128491415,4.394923941262897,0.6086600348715047,A,887,Correct
2,new_learn,42,879,A,54.80649337372016,68.91240184551579,2.740324668686008,1.0824734768955004,A,1253,Correct
2,new_learn,42,880,A,48.278569483182935,72.3804648879436,2.413928474159147,1.1369496837768882,A,1821,Correct
2,new_learn,42,881,A,51.74382152472272,60.445905826680146,2.587191076236136,0.9494820684233941,A,1138,Correct
2,new_learn,42,882,A,81.12571524264389,33.78956734919366,4.056285762132195,0.5307652827610218,A,946,Correct
2,new_learn,42,883,A,77.18731773765649,42.42464318225057,3.8593658868828244,0.6664047367626336,A,2561,Correct
2,new_learn,42,884,A,79.51417328723136,43.19214189462915,3.975708664361568,0.6784605783448744,A,844,Correct
2,new_learn,42,885,B,19.414869956717414,63.929607057011836,0.9707434978358707,1.0042039193859529,B,665,Correct
2,new_learn,42,886,A,73.7097161171156,37.63298023597558,3.6854858058557802,0.5911374712101538,B,1005,Incorrect
2,new_learn,42,887,A,43.6394762868763,74.91294893496382,2.1819738143438148,1.176729850164148,A,1932,Correct
2,new_learn,42,888,B,37.39962383163925,38.7260536380288,1.8699811915819626,0.6083074280587778,B,852,Correct
2,new_learn,42,889,B,30.328674703685774,59.07900436814022,1.5164337351842887,0.9280108305217432,B,740,Correct
2,new_learn,42,890,A,68.63463102594673,63.28345800301179,3.4317315512973368,0.9940542337801,A,443,Correct
2,new_learn,42,891,B,45.221733769089546,40.8025022711819,2.2610866884544776,0.6409242069161295,B,457,Correct
2,new_learn,42,892,A,76.81268000635944,41.530124288567905,3.840634000317972,0.6523536668381799,B,515,Incorrect
2,new_learn,42,893,B,61.123898017175165,28.870113261052538,3.0561949008587583,0.4534906786461396,B,2091,Correct
2,new_learn,42,894,B,28.75719851807665,42.45029626287577,1.4378599259038325,0.6668076944108038,B,671,Correct
2,new_learn,42,895,A,44.97903756805519,83.39795727646954,2.2489518784027593,1.3100120495207608,A,789,Correct
2,new_learn,42,896,A,34.56959215987087,78.51368342644442,1.7284796079935436,1.2332900552939625,B,1332,Incorrect
2,new_learn,42,897,B,64.42208009366578,24.978787357002332,3.2211040046832893,0.3923658742817007,A,663,Incorrect
2,new_learn,42,898,A,72.77492086779405,47.04076968101025,3.6387460433897023,0.7389146822453564,B,678,Incorrect
