experiment,condition,subject,trial,cat,x,y,xt,yt,resp,rt,fb
1,relearn,15,0,B,67.81515449394975,47.06740711848282,3.3907577246974876,0.7393331021347278,A,877,Incorrect
1,relearn,15,1,A,44.4042398945103,59.13359161689313,2.220211994725515,0.928868285020052,A,1149,Correct
1,relearn,15,2,B,56.30501719297495,28.51672394306398,2.8152508596487476,0.4479396522198898,B,806,Correct
1,relearn,15,3,B,75.03267409463655,46.93881455750131,3.7516337047318276,0.7373131749102986,A,653,Incorrect
1,relearn,15,4,A,60.57546558454706,69.88884714618315,3.028773279227353,1.097811443811545,A,1279,Correct
1,relearn,15,5,A,52.5993125734671,78.46150859269687,2.629965628673355,1.2324704949219447,A,1287,Correct
1,relearn,15,6,B,47.94087318067752,34.62086687637507,2.397043659033876,0.5438233051986505,B,598,Correct
1,relearn,15,7,B,58.04480380833158,34.61003984038308,2.9022401904165793,0.5436532345149877,B,806,Correct
1,relearn,15,8,B,36.320044106955514,22.37139407574297,1.8160022053477758,0.35140903639458165,B,867,Correct
1,relearn,15,9,B,65.41836601430208,36.221746561155605,3.270918300715104,0.568969864483589,B,1265,Correct
1,relearn,15,10,A,63.94985144960718,78.55711298955596,3.197492572480359,1.2339722452760615,A,2422,Correct
1,relearn,15,11,A,64.92638631258197,82.49174135116921,3.246319315629098,1.2957772430533128,A,608,Correct
1,relearn,15,12,A,24.8769313042157,42.11674520965336,1.243846565210785,0.6615682867188006,B,2196,Incorrect
1,relearn,15,13,A,34.470558814594895,63.82204719837781,1.7235279407297446,1.0025143730774237,A,791,Correct
1,relearn,15,14,B,77.72952345929052,63.76357799782143,3.8864761729645263,1.001595941022778,A,1189,Incorrect
1,relearn,15,15,B,54.79421036218824,25.137901110185922,2.7397105181094115,0.39486522727213397,B,786,Correct
1,relearn,15,16,A,28.207334290386157,60.438625892882264,1.4103667145193077,0.9493677154907038,A,1067,Correct
1,relearn,15,17,A,38.9115525550742,59.21689547390256,1.94557762775371,0.9301768189460349,A,2305,Correct
1,relearn,15,18,A,46.791720565601324,73.7028125341954,2.3395860282800665,1.1577210720316702,A,751,Correct
1,relearn,15,19,A,33.72377679956977,46.26432675399578,1.6861888399784886,0.7267183452681543,B,792,Incorrect
1,relearn,15,20,A,44.21586826279406,51.45436685122506,2.210793413139703,0.8082433044746141,A,942,Correct
1,relearn,15,21,B,71.01270059068995,50.93282047939445,3.5506350295344977,0.8000508732233668,A,1016,Incorrect
1,relearn,15,22,B,74.12243778333409,53.698166791530404,3.7061218891667043,0.8434888315175565,B,1448,Correct
1,relearn,15,23,A,15.76951884629684,30.71006768159493,0.7884759423148421,0.4823926150987198,B,982,Incorrect
1,relearn,15,24,A,19.13497509752821,41.09556876895796,0.9567487548764104,0.6455276846982624,A,3624,Correct
1,relearn,15,25,A,57.711579205696566,76.8713112196814,2.8855789602848283,1.2074917329978287,A,1670,Correct
1,relearn,15,26,A,59.557045322459416,81.2463488362728,2.977852266122971,1.2762146631751414,A,846,Correct
1,relearn,15,27,A,57.883217181877804,80.93301423003768,2.8941608590938905,1.271292814689823,A,681,Correct
1,relearn,15,28,B,71.75602510217524,62.41079965080365,3.5878012551087624,0.980346548438146,B,1197,Correct
1,relearn,15,29,B,65.21265532762429,46.392479811460674,3.2606327663812147,0.7287313687874882,B,846,Correct
1,relearn,15,30,B,53.16394495326342,28.540042692977615,2.6581972476631712,0.4483059422869876,B,693,Correct
1,relearn,15,31,B,56.26397287064173,48.46000946151123,2.813198643532086,0.7612080485858775,A,1267,Incorrect
1,relearn,15,32,A,55.88902777217157,74.15830354518769,2.7944513886085787,1.1648759081012179,A,689,Correct
1,relearn,15,33,B,38.20808128226139,23.162847902073718,1.9104040641130695,0.36384116402686273,B,996,Correct
1,relearn,15,34,A,24.640405962601143,48.93042823790327,1.232020298130057,0.7685973694459973,A,2197,Correct
1,relearn,15,35,B,56.430381949253885,40.55293538594833,2.8215190974626942,0.6370040194499842,B,1154,Correct
1,relearn,15,36,B,56.77913120294832,41.88137150587414,2.8389565601474156,0.6578710452255955,B,2069,Correct
1,relearn,15,37,B,66.72328780274768,48.18932695690077,3.336164390137384,0.7569561777461802,A,1735,Incorrect
1,relearn,15,38,B,50.234378925497786,40.450946453159176,2.5117189462748892,0.6354019810399949,A,1679,Incorrect
1,relearn,15,39,A,50.49585226277159,80.22532814461738,2.5247926131385796,1.2601765076548022,A,733,Correct
1,relearn,15,40,B,63.47069706574924,33.51055061482643,3.173534853287462,0.5263824981464381,B,686,Correct
1,relearn,15,41,B,58.43185031676798,39.774342734416415,2.9215925158383986,0.6247739146790259,B,594,Correct
1,relearn,15,42,A,67.98148854946288,83.33646890111855,3.399074427473144,1.3090461923793413,A,552,Correct
1,relearn,15,43,A,61.438989248147834,87.73002882367192,3.0719494624073915,1.3780600702583425,A,658,Correct
1,relearn,15,44,B,65.91425290532968,33.65890642733032,3.295712645266484,0.528712865799836,B,615,Correct
1,relearn,15,45,B,75.06472882486015,61.35837444986235,3.7532364412430077,0.9638150920394963,B,1076,Correct
1,relearn,15,46,A,53.922685867702285,73.5865884048534,2.6961342933851142,1.1558954276771163,B,1210,Incorrect
1,relearn,15,47,A,18.165073713873078,46.66278041405561,0.908253685693654,0.732977240724354,A,1334,Correct
1,relearn,15,48,A,29.272299719767666,41.16151600430356,1.4636149859883831,0.6465635814486937,A,2041,Correct
1,relearn,15,49,B,36.791243179540054,18.934965776205722,1.8395621589770028,0.2974297468925103,B,1432,Correct
1,relearn,15,50,A,61.37577614234982,87.09393345637615,3.068788807117491,1.3680683075939482,A,528,Correct
1,relearn,15,51,A,64.73980310812959,79.66639164756313,3.2369901554064797,1.251396753689958,A,1527,Correct
1,relearn,15,52,B,63.761956651710584,54.074821010697896,3.188097832585529,0.8494053021569575,B,751,Correct
1,relearn,15,53,B,42.36033559068167,30.976902522810335,2.1180167795340834,0.48658404698314034,B,1456,Correct
1,relearn,15,54,A,47.47628252065045,56.06235942065501,2.3738141260325225,0.8806254824942015,B,2762,Incorrect
1,relearn,15,55,A,39.781243540593096,65.26063353587493,1.9890621770296548,1.0251116344246018,A,611,Correct
1,relearn,15,56,B,39.605795758889826,23.03949541610834,1.9802897879444914,0.3619035477083084,B,675,Correct
1,relearn,15,57,A,58.66672409276629,70.00429470454968,2.9333362046383145,1.0996248898177408,A,886,Correct
1,relearn,15,58,A,50.359924002048295,79.55484296472876,2.5179962001024148,1.2496445510774075,A,730,Correct
1,relearn,15,59,A,29.457665755151606,41.64972709168854,1.4728832877575804,0.6542323832763426,A,1207,Correct
1,relearn,15,60,B,78.31892777794573,55.737370704802686,3.9159463888972867,0.8755205716830953,A,841,Incorrect
1,relearn,15,61,B,70.98923591628136,57.82086980809681,3.549461795814068,0.9082480990664441,B,1344,Correct
1,relearn,15,62,A,62.27960037899838,77.17458650746858,3.113980018949919,1.212255570078466,A,687,Correct
1,relearn,15,63,B,72.58275381470027,57.64742773097903,3.6291376907350132,0.9055236772899613,B,1658,Correct
1,relearn,15,64,B,34.167681323657895,10.940665013691898,1.7083840661828946,0.17185556416200673,B,780,Correct
1,relearn,15,65,B,79.34671025676434,65.92440796342993,3.967335512838217,1.0355381787508395,B,1661,Correct
1,relearn,15,66,B,52.97352413459692,40.054194808256774,2.648676206729846,0.6291698207753696,B,695,Correct
1,relearn,15,67,B,58.2910010352851,42.688711033948316,2.9145500517642553,0.6705527048773479,B,1684,Correct
1,relearn,15,68,B,52.69143086656213,38.31933345433101,2.6345715433281067,0.6019186823529195,B,817,Correct
1,relearn,15,69,B,35.3294083665713,16.872486012504634,1.766470418328565,0.26503239052340555,B,605,Correct
1,relearn,15,70,A,42.19151046087554,55.23890984464369,2.109575523043777,0.8676907668012077,B,829,Incorrect
1,relearn,15,71,B,48.01442967316188,28.335112173186985,2.400721483658094,0.4450869012096348,B,636,Correct
1,relearn,15,72,A,36.94975048618249,56.86086685458519,1.8474875243091244,0.893168407935561,A,1906,Correct
1,relearn,15,73,A,36.74474365100435,67.7967926043841,1.8372371825502174,1.0649495279144194,A,470,Correct
1,relearn,15,74,A,33.63469723330044,61.18188545350156,1.681734861665022,0.9610428093674638,A,1283,Correct
1,relearn,15,75,B,47.43350731342198,30.266557244899783,2.371675365671099,0.4754259694501604,B,702,Correct
1,relearn,15,76,B,38.560463681856156,21.650418766544853,1.928023184092808,0.34008398272059953,B,701,Correct
1,relearn,15,77,B,73.99357824796812,50.82796279381796,3.6996789123984057,0.7984037725499693,B,1096,Correct
1,relearn,15,78,A,33.079837988167185,66.25770908816014,1.6539918994083593,1.0407736605752678,B,1273,Incorrect
1,relearn,15,79,A,20.720683328786613,51.75984568776117,1.0360341664393307,0.813041754818059,A,1315,Correct
1,relearn,15,80,A,25.58041855674921,37.110719709654845,1.2790209278374605,0.582933822046408,A,642,Correct
1,relearn,15,81,A,22.053688446453812,46.9774091019773,1.1026844223226906,0.7379194165972709,A,595,Correct
1,relearn,15,82,B,44.16953086586099,22.943333525798703,2.2084765432930498,0.36039304026754804,B,1126,Correct
1,relearn,15,83,A,53.379988273687694,74.71313282553385,2.668999413684385,1.1735911460568778,A,1418,Correct
1,relearn,15,84,A,53.17668852197296,79.96827135558735,2.658834426098648,1.2561386690549414,A,1343,Correct
1,relearn,15,85,A,51.59685451804496,72.976514189963,2.579842725902248,1.1463124043188953,A,2185,Correct
1,relearn,15,86,A,45.69648869137624,66.8588400109036,2.284824434568812,1.0502162030289504,B,2518,Incorrect
1,relearn,15,87,B,56.47760577894567,43.86726919208932,2.8238802889472834,0.6890654531345682,B,1483,Correct
1,relearn,15,88,B,72.92281046579305,50.552998716934844,3.646140523289653,0.7940846469302838,B,1024,Correct
1,relearn,15,89,B,77.26540042066392,60.96512139397845,3.863270021033196,0.9576378874826631,A,1077,Incorrect
1,relearn,15,90,A,51.33419061503914,74.05818364491819,2.566709530751957,1.1633032283853937,A,884,Correct
1,relearn,15,91,B,74.91686221332645,57.20779580976472,3.7458431106663226,0.8986179552201089,A,1611,Incorrect
1,relearn,15,92,A,23.748514759215283,39.562454283505005,1.1874257379607642,0.6214455786752069,B,1496,Incorrect
1,relearn,15,93,A,40.53890790548542,72.86986256129308,2.0269453952742706,1.1446371244532814,A,672,Correct
1,relearn,15,94,B,35.97596160331872,15.086975768373161,1.7987980801659362,0.23698566119404174,B,579,Correct
1,relearn,15,95,A,64.41589713255544,74.76125571794596,3.220794856627772,1.1743470586832347,A,695,Correct
1,relearn,15,96,A,51.175869863787966,63.652008303341255,2.5587934931893983,0.9998434083600669,A,1173,Correct
1,relearn,15,97,A,49.6847097659563,70.47429444589905,2.484235488297815,1.1070076284908021,A,690,Correct
1,relearn,15,98,B,69.3673008957137,58.933072588823876,3.468365044785685,0.9257185394926157,A,1010,Incorrect
1,relearn,15,99,B,38.55805648835303,20.45145670453537,1.9279028244176515,0.3212507306908902,B,636,Correct
1,relearn,15,100,A,34.18547491812041,63.47162973431936,1.7092737459060205,0.997010028423546,A,1125,Correct
1,relearn,15,101,B,39.70243178206889,13.903501215405022,1.9851215891034446,0.21839568638746587,B,858,Correct
1,relearn,15,102,A,19.06434742300852,41.807175989162914,0.9532173711504259,0.656705584774449,B,1869,Incorrect
1,relearn,15,103,A,63.23826637787792,73.13124307115186,3.1619133188938964,1.1487428799011008,A,740,Correct
1,relearn,15,104,A,36.67977774975459,66.34841838281686,1.8339888874877295,1.042198518843797,A,534,Correct
1,relearn,15,105,A,42.637828258714656,54.40996451939315,2.1318914129357327,0.8546697240810341,A,2407,Correct
1,relearn,15,106,B,61.99120524981131,50.89997448005147,3.0995602624905656,0.7995349294721881,A,956,Incorrect
1,relearn,15,107,B,62.37459004883687,39.29968205172099,3.1187295024418438,0.6173179621105065,B,1133,Correct
1,relearn,15,108,A,23.581571269312978,47.827434340573674,1.1790785634656489,0.7512715818219723,B,917,Incorrect
1,relearn,15,109,A,29.48183807733065,42.712150609652426,1.4740919038665325,0.6709208928715243,A,515,Correct
1,relearn,15,110,B,52.17805799584528,42.858381621555054,2.608902899792264,0.6732178842351257,B,1205,Correct
1,relearn,15,111,B,59.39697718058959,42.00172410899193,2.9698488590294794,0.6597615394945717,B,720,Correct
1,relearn,15,112,A,51.10171376976648,59.59817105993629,2.555085688488324,0.9361658818464184,B,589,Incorrect
1,relearn,15,113,A,57.99861479455676,73.56636019544351,2.899930739727838,1.1555776837067293,A,867,Correct
1,relearn,15,114,B,53.32570588022313,34.74191899762198,2.6662852940111565,0.5457247874727045,B,1058,Correct
1,relearn,15,115,A,23.151409500798195,50.675427420896185,1.1575704750399098,0.7960077525150512,A,1115,Correct
1,relearn,15,116,A,40.46766792154319,55.75485202231658,2.0233833960771594,0.8757951675764788,A,605,Correct
1,relearn,15,117,B,63.1216814057859,55.16386525099912,3.1560840702892947,0.8665119690807805,B,1140,Correct
1,relearn,15,118,B,31.18346198499836,11.308443608571551,1.559173099249918,0.17763261682111417,B,817,Correct
1,relearn,15,119,A,37.685151452127364,64.74540625393485,1.8842575726063684,1.0170184632052417,B,1651,Incorrect
1,relearn,15,120,B,73.68876263382572,46.6344985674995,3.684438131691286,0.7325329905175008,B,597,Correct
1,relearn,15,121,B,74.64283926520804,47.14099002137959,3.732141963260402,0.7404889396705793,B,1665,Correct
1,relearn,15,122,A,19.288960454619843,36.74910856304608,0.9644480227309922,0.5772536474381966,A,777,Correct
1,relearn,15,123,B,41.0221443787724,31.827412133965915,2.05110721893862,0.49994382071420984,A,653,Incorrect
1,relearn,15,124,A,42.081780805821204,63.19439119554548,2.1040890402910604,0.9926551756400259,A,659,Correct
1,relearn,15,125,B,31.838435912739893,13.369393713210602,1.5919217956369947,0.21000594536185999,B,786,Correct
1,relearn,15,126,B,69.1582542074863,59.2626678713655,3.4579127103743144,0.9308958100840687,B,969,Correct
1,relearn,15,127,B,34.3024673746769,19.095629955053703,1.715123368733845,0.29995345391232947,B,1413,Correct
1,relearn,15,128,B,63.35242888531536,37.98344185966711,3.167621444265768,0.5966425095219261,B,986,Correct
1,relearn,15,129,A,38.112765305585484,57.737084651682544,1.905638265279274,0.9069320049070895,B,1303,Incorrect
1,relearn,15,130,B,88.27853415195764,64.46163687058835,4.413926707597882,1.0125610241550664,B,1962,Correct
1,relearn,15,131,B,39.37609483933707,14.964305037061425,1.9688047419668535,0.23505875385254454,B,753,Correct
1,relearn,15,132,B,89.29444605765605,67.7230835416375,4.4647223028828025,1.063791708664281,B,848,Correct
1,relearn,15,133,B,65.78351827277865,36.196670580274635,3.2891759136389327,0.5685759718970029,B,1384,Correct
1,relearn,15,134,A,27.410908966080257,58.93945558535526,1.370545448304013,0.9258188033676701,B,2255,Incorrect
1,relearn,15,135,B,62.617319450708706,52.554751664577374,3.1308659725354353,0.825528108703361,B,864,Correct
1,relearn,15,136,B,84.55896906932759,58.40748524772074,4.22794845346638,0.9174626328444685,B,1184,Correct
1,relearn,15,137,B,86.15479020413295,62.81700942581939,4.307739510206647,0.986727276663175,B,613,Correct
1,relearn,15,138,B,82.68472675881736,65.74773637059621,4.134236337940868,1.0327630278601174,B,553,Correct
1,relearn,15,139,B,64.04381163132936,31.975802193052285,3.202190581566468,0.5022747263116673,B,908,Correct
1,relearn,15,140,B,60.03622544171434,35.557409031013464,3.001811272085717,0.5585344749625963,B,797,Correct
1,relearn,15,141,B,70.49679523113525,52.06762237137259,3.5248397615567626,0.8178762996589586,B,600,Correct
1,relearn,15,142,B,82.4900732052962,61.17778068573315,4.12450366026481,0.9609783318261339,B,787,Correct
1,relearn,15,143,B,66.89338360632327,41.790095149236755,3.3446691803161634,0.6564372795683031,B,431,Correct
1,relearn,15,144,B,71.48304004633742,55.33833067167608,3.574152002316871,0.8692524655003016,B,683,Correct
1,relearn,15,145,B,83.5441237973861,57.00701049693251,4.177206189869305,0.8954640269013969,B,588,Correct
1,relearn,15,146,A,12.392274273427308,39.09090224232045,0.6196137136713653,0.6140384565333535,A,603,Correct
1,relearn,15,147,A,17.55182205286149,45.85667816867083,0.8775911026430745,0.7203150162636387,A,739,Correct
1,relearn,15,148,B,67.75274347420883,39.93057800094287,3.3876371737104414,0.6272280525067816,B,759,Correct
1,relearn,15,149,B,51.38334348822676,42.01371549249175,2.5691671744113376,0.6599498997061188,B,691,Correct
1,relearn,15,150,A,42.54808781719189,63.412935013232506,2.1274043908595943,0.9960880539006911,B,1102,Incorrect
1,relearn,15,151,B,42.203746874543256,22.49085762801616,2.1101873437271625,0.35328556548554757,B,669,Correct
1,relearn,15,152,A,52.13438179945345,75.68616835567103,2.6067190899726724,1.188875552422682,A,510,Correct
1,relearn,15,153,B,63.111705577126536,47.14783276512133,3.155585278856327,0.7405964252379265,B,602,Correct
1,relearn,15,154,B,36.816363210046674,26.13080000034234,1.840818160502334,0.4104616465674983,A,1936,Incorrect
1,relearn,15,155,B,66.88191722541649,36.509706504994206,3.3440958612708243,0.5734931287040463,B,623,Correct
1,relearn,15,156,B,42.239206121260686,29.455355053359327,2.1119603060630343,0.4626836352225632,B,409,Correct
1,relearn,15,157,B,65.37878930351434,55.66968137418331,3.268939465175717,0.8744573101640941,B,461,Correct
1,relearn,15,158,A,50.23419882143882,62.482761052743825,2.5117099410719406,0.9814769154965324,A,1175,Correct
1,relearn,15,159,A,41.71814786266059,71.41896838950655,2.0859073931330294,1.121846532097177,A,802,Correct
1,relearn,15,160,B,65.18764461918002,49.629083160266404,3.259382230959001,0.7795718153034493,B,1818,Correct
1,relearn,15,161,A,47.68109076448424,57.91772321132324,2.3840545382242118,0.9097694687667006,B,697,Incorrect
1,relearn,15,162,B,56.316232561235715,35.9766636888855,2.8158116280617858,0.5651201117283668,B,419,Correct
1,relearn,15,163,B,49.376528597959066,36.48529370318559,2.468826429897953,0.573109653309969,A,854,Incorrect
1,relearn,15,164,B,61.58133903349328,51.974638147109545,3.079066951674664,0.8164157068797357,B,653,Correct
1,relearn,15,165,A,27.10954704447554,58.999148782309256,1.3554773522237769,0.9267564619127697,A,671,Correct
1,relearn,15,166,A,46.655923876662044,54.02131495649306,2.332796193833102,0.848564831022895,B,704,Incorrect
1,relearn,15,167,B,36.27848649294973,19.297391289268873,1.8139243246474865,0.3031227135390738,B,2564,Correct
1,relearn,15,168,B,57.58610326251676,31.289752407996325,2.8793051631258377,0.49149828148802394,A,2356,Incorrect
1,relearn,15,169,B,51.38678521909837,27.789526182062403,2.569339260954919,0.43651685650154237,B,678,Correct
1,relearn,15,170,B,54.5607171790413,25.070904903798514,2.728035858952065,0.39381285332310867,B,812,Correct
1,relearn,15,171,B,85.9644792286304,60.994572444346105,4.29822396143152,0.9581005035000408,A,1016,Incorrect
1,relearn,15,172,B,40.494935204195215,21.91791980869073,2.0247467602097604,0.344285879264765,B,813,Correct
1,relearn,15,173,B,65.67192546406794,51.74649060915955,3.283596273203397,0.8128319737339442,B,554,Correct
1,relearn,15,174,A,58.12396101878446,74.8876325282242,2.906198050939223,1.176332180977006,B,665,Incorrect
1,relearn,15,175,A,58.89832718554494,77.95690234231677,2.944916359277247,1.2245441584761967,A,1085,Correct
1,relearn,15,176,B,47.49290182716611,24.266815388088837,2.3746450913583055,0.3811822447461982,B,881,Correct
1,relearn,15,177,A,30.059310601753847,53.241643229138816,1.5029655300876923,0.8363177761685563,A,1565,Correct
1,relearn,15,178,A,29.885944482970146,61.4010922942938,1.4942972241485075,0.9644861023707111,A,629,Correct
1,relearn,15,179,B,41.606756151096505,21.704566186490492,2.0803378075548253,0.3409345284041598,B,811,Correct
1,relearn,15,180,B,67.98216342444879,53.091217974940164,3.3991081712224394,0.8339549018010319,B,1053,Correct
1,relearn,15,181,A,42.407559659029616,66.04514357457826,2.120377982951481,1.037434689295891,B,1197,Incorrect
1,relearn,15,182,B,82.60391465390155,52.49404529189847,4.130195732695078,0.8245745352311905,B,507,Correct
1,relearn,15,183,B,55.31317403253334,40.3654473752885,2.7656587016266667,0.6340589646653587,B,678,Correct
1,relearn,15,184,A,32.10078714894466,60.39248862213268,1.6050393574472333,0.9486429929364861,A,629,Correct
1,relearn,15,185,A,17.613910150220388,42.98030718530893,0.8806955075110194,0.6751330865119958,A,628,Correct
1,relearn,15,186,B,80.74470896142519,62.66950535105937,4.03723544807126,0.9844102880749718,B,1840,Correct
1,relearn,15,187,A,40.60802319533315,48.62698649852665,2.0304011597666576,0.7638309177499069,B,1005,Incorrect
1,relearn,15,188,A,34.515012026114135,56.71272408700731,1.7257506013057067,0.8908413867840352,A,950,Correct
1,relearn,15,189,B,69.87312480437595,40.222643691634396,3.4936562402187974,0.6318158096479922,B,650,Correct
1,relearn,15,190,B,76.5849935535309,54.066030343107556,3.829249677676545,0.8492672186733476,B,2226,Correct
1,relearn,15,191,A,24.7132721506608,47.18493156707142,1.23566360753304,0.7411791718562436,A,576,Correct
1,relearn,15,192,A,34.61558954291135,54.51067218994574,1.7307794771455676,0.8562516364708747,A,570,Correct
1,relearn,15,193,A,44.27020569971032,65.47740501925533,2.213510284985516,1.02851667292308,A,956,Correct
1,relearn,15,194,B,56.44787791574082,44.236988335941895,2.822393895787041,0.6948729878656621,A,1522,Incorrect
1,relearn,15,195,A,55.16500793346523,81.5098184360003,2.7582503966732617,1.2803532339698822,A,858,Correct
1,relearn,15,196,B,40.06735231800755,17.786443263478066,2.0033676159003777,0.2793887974501718,A,483,Incorrect
1,relearn,15,197,B,63.522500415553736,55.29625136303015,3.176125020777687,0.8685914852657506,A,1025,Incorrect
1,relearn,15,198,B,79.22447745397426,50.53741240681906,3.961223872698713,0.7938398177435022,B,727,Correct
1,relearn,15,199,B,65.16694840582069,35.911857520357515,3.2583474202910345,0.5641021388135927,B,585,Correct
1,relearn,15,200,B,54.662974029409185,45.51855042429671,2.733148701470459,0.7150037180751356,B,1311,Correct
1,relearn,15,201,B,64.92733715890527,56.910980664483475,3.246366857945264,0.8939555938206601,A,2382,Incorrect
1,relearn,15,202,B,45.44037421977064,28.941147544554546,2.2720187109885317,0.4546064825621542,A,739,Incorrect
1,relearn,15,203,A,65.19437370828352,79.15727857078802,3.2597186854141764,1.243399624180742,B,669,Incorrect
1,relearn,15,204,B,39.508902696746105,14.9938446918455,1.9754451348373052,0.2355227616648407,A,1172,Incorrect
1,relearn,15,205,B,58.06558542093075,31.091257734215603,2.9032792710465376,0.4883803344433928,B,2182,Correct
1,relearn,15,206,A,37.01218207764644,46.606152177888006,1.8506091038823222,0.7320877264707044,B,2075,Incorrect
1,relearn,15,207,A,13.885611308176951,37.7734444451488,0.6942805654088475,0.5933438778483082,A,672,Correct
1,relearn,15,208,A,11.645429530445131,37.06389968496532,0.5822714765222565,0.5821983748183805,A,627,Correct
1,relearn,15,209,A,26.216438046779192,46.3922536379754,1.3108219023389598,0.7287278160626892,A,1092,Correct
1,relearn,15,210,A,56.609644606533024,74.27406443722606,2.8304822303266515,1.1666942759412215,A,1863,Correct
1,relearn,15,211,B,62.64942505738215,45.72908651461416,3.1324712528691077,0.7183108112484197,B,1484,Correct
1,relearn,15,212,B,63.950984602965256,30.79139323509157,3.1975492301482626,0.48367007390579064,B,766,Correct
1,relearn,15,213,A,37.05221611133911,70.07972992851569,1.8526108055669557,1.1008098235449082,A,853,Correct
1,relearn,15,214,B,65.1862977877212,51.445261937135854,3.2593148893860597,0.808100284818543,B,803,Correct
1,relearn,15,215,A,20.21799758208571,35.66704582197485,1.0108998791042856,0.5602566456478335,A,567,Correct
1,relearn,15,216,A,36.14433304104515,60.02134184322781,1.8072166520522575,0.9428130329664307,A,848,Correct
1,relearn,15,217,A,21.09796594647686,34.774066319616104,1.054898297323843,0.546229756425751,A,559,Correct
1,relearn,15,218,B,53.910712762653816,31.321920054415067,2.6955356381326907,0.4920035696963859,B,1931,Correct
1,relearn,15,219,A,20.449260764761412,47.46778914041014,1.0224630382380706,0.7456222882283092,A,1509,Correct
1,relearn,15,220,A,25.94190160754257,38.76243590941368,1.2970950803771286,0.608878919441296,A,451,Correct
1,relearn,15,221,B,52.76768685676022,44.752465331677186,2.638384342838011,0.7029700815801447,B,890,Correct
1,relearn,15,222,B,76.43244522311807,59.14339235913727,3.821622261155903,0.9290222347192219,B,841,Correct
1,relearn,15,223,B,58.79406904324148,26.22081943444619,2.939703452162074,0.41187566853180313,B,759,Correct
1,relearn,15,224,A,49.7733969917081,63.64126056156488,2.488669849585405,0.9996745832270304,B,1684,Incorrect
1,relearn,15,225,A,50.36020156323694,63.75585725468096,2.518010078161847,1.0014746638731262,A,708,Correct
1,relearn,15,226,B,54.07680096562411,29.622647767318206,2.7038400482812057,0.4653114630284248,B,1266,Correct
1,relearn,15,227,B,35.63715074971772,14.321274216289211,1.7818575374858858,0.22495804933969551,A,664,Incorrect
1,relearn,15,228,A,31.703067360637007,51.37093347473018,1.5851533680318506,0.8069327360613116,A,548,Correct
1,relearn,15,229,A,35.68173378409848,67.32768577436664,1.784086689204924,1.0575808150597614,A,673,Correct
1,relearn,15,230,A,37.30593520718543,45.01305290259499,1.8652967603592714,0.7070633815722057,A,584,Correct
1,relearn,15,231,A,16.865463084696557,47.376719455499554,0.8432731542348278,0.7441917689629102,A,414,Correct
1,relearn,15,232,A,48.70385623413652,72.98315837197853,2.4351928117068264,1.146416770885941,B,725,Incorrect
1,relearn,15,233,B,64.18847611690899,48.696092250750816,3.209423805845449,0.764916428367448,B,657,Correct
1,relearn,15,234,B,42.66911222690974,16.858457392991163,2.133455611345487,0.2648120294833879,A,1302,Incorrect
1,relearn,15,235,B,71.10209377952097,38.79243523490552,3.5551046889760483,0.6093501477441851,B,830,Correct
1,relearn,15,236,B,54.33152006503644,31.475592807301943,2.7165760032518222,0.4944174556540176,B,740,Correct
1,relearn,15,237,A,22.382729045133956,46.935675246772114,1.1191364522566978,0.737263862732678,A,618,Correct
1,relearn,15,238,B,53.02804625676805,30.20772116235605,2.6514023128384023,0.4745017744267334,A,2034,Incorrect
1,relearn,15,239,A,49.670781462220184,69.38793339191838,2.483539073111009,1.0899431089591434,A,2601,Correct
1,relearn,15,240,A,41.60991343528713,64.82574558443596,2.0804956717643566,1.0182804304577249,A,625,Correct
1,relearn,15,241,A,23.219215716540937,34.928364871783636,1.1609607858270468,0.5486534724154963,A,771,Correct
1,relearn,15,242,B,53.89973880673709,33.92412594751899,2.6949869403368547,0.5328789242809027,B,1810,Correct
1,relearn,15,243,B,72.64402837261574,39.97141144247692,3.6322014186307867,0.6278694627065025,B,533,Correct
1,relearn,15,244,A,55.902737487803066,84.69287952128347,2.795136874390153,1.3303526405771477,B,818,Incorrect
1,relearn,15,245,A,63.76270151551929,82.10830217006789,3.1881350757759646,1.2897541944810806,B,918,Incorrect
1,relearn,15,246,A,21.59658829743761,45.025840688634005,1.0798294148718803,0.7072642516455849,A,547,Correct
1,relearn,15,247,B,76.22110929265088,49.23663352417955,3.811055464632544,0.7734072308352771,B,1060,Correct
1,relearn,15,248,B,67.73040229796563,58.510098802406404,3.386520114898281,0.9190744827922646,B,585,Correct
1,relearn,15,249,B,40.038868284308165,26.256450240528565,2.0019434142154084,0.41243535592495256,A,547,Incorrect
1,relearn,15,250,B,68.97679507954872,46.573654552881955,3.448839753977436,0.7315772549708138,B,1352,Correct
1,relearn,15,251,A,24.230008735937265,47.06685631026808,1.2115004367968631,0.7393244500595231,A,1642,Correct
1,relearn,15,252,B,44.13482417870814,30.278685426853563,2.206741208935407,0.4756164784867974,A,1139,Incorrect
1,relearn,15,253,A,19.85036186914228,32.68915988595536,0.992518093457114,0.5134801227486977,A,567,Correct
1,relearn,15,254,A,37.386454349899275,56.32298813305419,1.8693227174949638,0.8847194287351408,A,1105,Correct
1,relearn,15,255,B,43.04430628319756,18.442706818401756,2.1522153141598777,0.2896973612650067,B,1740,Correct
1,relearn,15,256,A,62.33264707991847,84.16256330392405,3.1166323539959238,1.3220224529144682,B,1340,Incorrect
1,relearn,15,257,B,83.97175149232957,64.4025699197392,4.198587574616479,1.0116332026607782,B,686,Correct
1,relearn,15,258,B,76.2591194465021,50.37351542290231,3.812955972325105,0.7912653299404102,B,552,Correct
1,relearn,15,259,B,67.54775913545772,47.02749663833662,3.3773879567728864,0.738706189778585,B,473,Correct
1,relearn,15,260,B,87.13440481683381,60.399635592726455,4.356720240841691,0.94875525728805,B,636,Correct
1,relearn,15,261,A,27.14168122560659,49.79125387673014,1.3570840612803294,0.7821191869607985,A,756,Correct
1,relearn,15,262,B,73.77707327488855,42.723136932593164,3.6888536637444274,0.6710934656287273,B,889,Correct
1,relearn,15,263,A,32.40478055989185,65.39176496847757,1.6202390279945922,1.0271714421511977,A,836,Correct
1,relearn,15,264,A,61.73527306110527,80.37025072444382,3.0867636530552636,1.2624529462154124,A,802,Correct
1,relearn,15,265,B,50.598477019665566,24.73860123732006,2.529923850983278,0.38859303953626034,B,1469,Correct
1,relearn,15,266,B,49.9052802862263,42.21686290731779,2.495264014311315,0.6631409318361849,B,869,Correct
1,relearn,15,267,B,68.5659631218807,42.07461388517603,3.4282981560940353,0.6609064894214804,B,612,Correct
1,relearn,15,268,B,84.9405448908104,57.849192976988846,4.24702724454052,0.9086929983630321,B,597,Correct
1,relearn,15,269,B,58.03308552012751,49.25449436002908,2.9016542760063753,0.7736877881887362,B,610,Correct
1,relearn,15,270,A,55.85207228431146,80.7747313678118,2.7926036142155732,1.268806513304033,A,1412,Correct
1,relearn,15,271,B,76.19772586808024,46.405739548321215,3.809886293404012,0.7289396522470363,B,649,Correct
1,relearn,15,272,A,37.98861641626323,48.316999913578385,1.8994308208131614,0.7589616598599827,B,1616,Incorrect
1,relearn,15,273,A,35.76606668954059,67.98123220798695,1.7883033344770294,1.0678466984329682,A,760,Correct
1,relearn,15,274,A,19.05852308100138,44.95079613913583,0.952926154050069,0.7060854546186078,A,838,Correct
1,relearn,15,275,A,51.6156413481781,76.16616995257434,2.580782067408905,1.196415399875396,A,1061,Correct
1,relearn,15,276,B,49.176010543969134,30.855247361390184,2.458800527198457,0.48467309217619625,B,1107,Correct
1,relearn,15,277,A,59.221373922439156,77.79446495234602,2.961068696121958,1.2219925979211945,B,647,Incorrect
1,relearn,15,278,A,32.18199624451793,65.5350578504768,1.6090998122258966,1.0294222814782,A,1186,Correct
1,relearn,15,279,A,47.42449887101591,63.071625734216106,2.3712249435507955,0.9907267802828912,B,1803,Incorrect
1,relearn,15,280,A,37.035195864097645,66.60521395395541,1.8517597932048824,1.0462322542426135,B,695,Incorrect
1,relearn,15,281,B,68.76485735269056,35.997088129373324,3.438242867634528,0.5654409380893178,B,678,Correct
1,relearn,15,282,B,61.9912398329125,33.310756471734315,3.0995619916456247,0.5232441390855959,B,495,Correct
1,relearn,15,283,A,28.49681537527367,61.33434269322255,1.4248407687636837,0.9634376020889339,A,706,Correct
1,relearn,15,284,A,59.131702567330834,73.761085502528,2.9565851283665414,1.1586364216777527,A,668,Correct
1,relearn,15,285,A,23.408401222709234,36.75645354663956,1.1704200611354616,0.5773690221706868,A,664,Correct
1,relearn,15,286,B,81.47418628789012,62.63586130767539,4.073709314394506,0.9838818086773109,B,1073,Correct
1,relearn,15,287,A,39.05378471714635,67.99372168431634,1.9526892358573176,1.068042882668386,A,730,Correct
1,relearn,15,288,B,42.17013656239086,17.243057778904046,2.108506828119543,0.2708533182181464,B,1565,Correct
1,relearn,15,289,B,41.51225225275485,30.89616855987744,2.0756126126377423,0.4853158808589146,B,590,Correct
1,relearn,15,290,B,58.68334489448769,30.717499931707437,2.9341672447243843,0.48250936061048527,B,1005,Correct
1,relearn,15,291,B,57.92807687395821,31.759195450510497,2.8964038436979105,0.4988722755562307,B,513,Correct
1,relearn,15,292,A,34.92071235272634,45.62654252507447,1.7460356176363172,0.7167000540273812,B,1459,Incorrect
1,relearn,15,293,B,43.38773896841482,22.644086484796418,2.1693869484207413,0.3556924787394417,A,689,Incorrect
1,relearn,15,294,A,65.35043396698597,88.35626089511774,3.2675216983492987,1.387896900633825,A,850,Correct
1,relearn,15,295,A,66.2659489583866,85.14857009740281,3.3132974479193305,1.337510611408381,A,431,Correct
1,relearn,15,296,B,58.264734830147816,37.95207188181496,2.9132367415073905,0.5961497510621081,B,705,Correct
1,relearn,15,297,A,44.78438356439334,74.05636878291564,2.239219178219667,1.1632747205997214,A,909,Correct
1,relearn,15,298,A,20.379842788410706,45.63264519360669,1.0189921394205355,0.7167959145205218,A,2000,Correct
1,relearn,15,299,A,39.35909794105801,64.52973335675404,1.9679548970529004,1.0136306812584335,A,786,Correct
1,relearn,15,300,A,26.675609909607275,56.32575516891457,1.3337804954803636,0.8847628932327966,A,773,Correct
1,relearn,15,301,B,52.5370084827222,30.72045244340356,2.62685042413611,0.4825557385557561,B,1375,Correct
1,relearn,15,302,B,58.103458680391114,33.05107011852372,2.9051729340195553,0.5191649953881762,B,1531,Correct
1,relearn,15,303,B,47.62543634191469,27.193876340994137,2.3812718170957345,0.4271604106774823,B,559,Correct
1,relearn,15,304,A,45.85355337829583,53.96138969479056,2.2926776689147914,0.8476235272132501,B,3401,Correct
1,relearn,15,305,B,86.36355716323106,65.51967606301521,4.318177858161553,1.029180664925758,B,1096,Correct
1,relearn,15,306,A,39.56902065536812,64.22894300576405,1.978451032768406,1.0089058774737294,B,1418,Incorrect
1,relearn,15,307,B,88.94181237110976,63.83121424228528,4.447090618555489,1.002658368666398,B,599,Correct
1,relearn,15,308,B,71.05728050839829,45.32740520023415,3.552864025419915,0.712001215916717,B,568,Correct
1,relearn,15,309,A,50.05300142981588,80.76571025089612,2.5026500714907938,1.2686648099308857,A,569,Correct
1,relearn,15,310,A,69.58549039223686,86.17873341137022,3.479274519611843,1.3536923789041695,B,432,Incorrect
1,relearn,15,311,B,63.90126560198478,51.9632336957031,3.195063280099239,0.8162365661759523,B,597,Incorrect
1,relearn,15,312,A,24.891247015292777,45.2294310057412,1.2445623507646388,0.7104622408684148,A,706,Correct
1,relearn,15,313,A,52.58810794822926,61.710083620587035,2.6294053974114626,0.9693397267742401,B,1509,Correct
1,relearn,15,314,A,62.86437822928616,77.9694027625617,3.143218911464308,1.2247405146182377,B,618,Correct
1,relearn,15,315,B,59.186069883704825,47.125945282991204,2.9593034941852414,0.7402526174725987,A,2076,Incorrect
1,relearn,15,316,B,47.614940749336625,18.42311282433722,2.3807470374668314,0.28938957952596855,A,716,Correct
1,relearn,15,317,A,61.14876096470117,81.48295374252922,3.0574380482350585,1.2799312443516335,B,851,Correct
1,relearn,15,318,B,84.15546440664329,54.59088275373756,4.2077732203321645,0.8575115810606183,B,1572,Correct
1,relearn,15,319,A,49.55954099980101,59.648533745803064,2.4779770499900504,0.9369569770660888,B,1155,Correct
1,relearn,15,320,B,45.63199289259438,36.10234671712143,2.2815996446297193,0.5670943361193014,B,1450,Incorrect
1,relearn,15,321,B,32.83359878401062,15.091044486232231,1.641679939200531,0.23704957246471967,A,766,Correct
1,relearn,15,322,A,22.797953738507644,47.560930644684646,1.1398976869253823,0.7470853515561747,A,599,Incorrect
1,relearn,15,323,A,55.19743570032149,66.47740493255382,2.7598717850160743,1.0442246348291246,A,687,Correct
1,relearn,15,324,A,34.47293923511132,63.60731857219031,1.7236469617555659,0.9991414237046935,A,698,Incorrect
1,relearn,15,325,B,64.15104019532271,44.82043115827075,3.207552009766135,0.7040376862877522,B,743,Correct
1,relearn,15,326,A,29.015166047004982,44.90025612957018,1.450758302350249,0.7052915740047887,B,1059,Correct
1,relearn,15,327,A,65.86035768281508,83.72243878922481,3.2930178841407542,1.315108993204249,A,1113,Incorrect
1,relearn,15,328,A,16.70801263062996,43.4217977725979,0.8354006315314979,0.682068004440276,A,679,Incorrect
1,relearn,15,329,A,45.79627116613061,66.8811859473768,2.2898135583065304,1.0505672121782594,B,709,Incorrect
1,relearn,15,330,B,68.03978556206319,37.10823452895456,3.401989278103159,0.5828947849192538,B,553,Incorrect
1,relearn,15,331,A,32.90329567797534,42.53562673555106,1.645164783898767,0.668148062341224,A,700,Incorrect
1,relearn,15,332,A,36.449033696638935,59.90752683986283,1.8224516848319467,0.9410252310742321,A,1120,Incorrect
1,relearn,15,333,B,33.847407642347015,18.9723775991268,1.6923703821173506,0.29801741043274155,B,1234,Correct
1,relearn,15,334,A,44.816611244401415,57.2815850549469,2.240830562220071,0.8997770339730005,B,951,Correct
1,relearn,15,335,B,55.64074080203265,33.370440553624555,2.782037040101633,0.5241816544516091,B,749,Incorrect
1,relearn,15,336,A,21.66519370111145,33.87832785942663,1.0832596850555725,0.5321595295954057,A,765,Incorrect
1,relearn,15,337,A,58.18111721234601,72.75018386187293,2.9090558606173005,1.1427572158388335,B,2656,Correct
1,relearn,15,338,B,54.734356439479,26.769499187691398,2.7367178219739503,0.42049430994164616,A,1031,Incorrect
1,relearn,15,339,A,55.6739108143396,70.36580747618987,2.7836955407169803,1.1053035191555591,B,573,Incorrect
1,relearn,15,340,A,47.50446835786516,76.7825242943375,2.375223417893258,1.2060970712358525,A,675,Incorrect
1,relearn,15,341,A,42.214440627147454,67.3866642574756,2.1107220313573727,1.0585072469060361,B,1066,Correct
1,relearn,15,342,B,49.84430796132622,32.234097338189564,2.4922153980663113,0.5063320169637732,B,669,Correct
1,relearn,15,343,B,77.24611104257585,59.39099085080081,3.8623055521287926,0.9329115027314722,B,723,Correct
1,relearn,15,344,A,37.92845119305795,59.32760260948782,1.8964225596528976,0.9319158025653079,B,962,Incorrect
1,relearn,15,345,A,12.072079262664879,35.134065406727956,0.6036039631332439,0.551884608862599,A,682,Incorrect
1,relearn,15,346,B,54.176386261848734,40.220163386955946,2.7088193130924365,0.6317768491132099,B,1994,Correct
1,relearn,15,347,B,39.86732091106988,19.920384205702888,1.9933660455534943,0.31290866338661166,B,1311,Correct
1,relearn,15,348,A,20.90248222771044,39.50120188162853,1.0451241113855219,0.6204834281964576,B,1214,Correct
1,relearn,15,349,A,18.627429188085703,45.43514579882286,0.9313714594042851,0.7136936012818152,B,1025,Correct
1,relearn,15,350,B,82.79109304122669,65.79653651310132,4.139554652061334,1.0335295787060585,A,505,Incorrect
1,relearn,15,351,B,49.98343121481233,31.29712319783011,2.499171560740616,0.49161406158398885,B,757,Correct
1,relearn,15,352,B,53.86872148555219,30.09410093343994,2.6934360742776096,0.4727170320444233,B,410,Incorrect
1,relearn,15,353,A,25.300554099218594,42.69863383741219,1.2650277049609298,0.6707085719096735,B,568,Incorrect
1,relearn,15,354,B,85.44099725147463,58.058335526418844,4.2720498625737315,0.9119782018472437,B,634,Incorrect
1,relearn,15,355,A,31.340580253189906,54.24999563604281,1.5670290126594952,0.8521569387373522,A,827,Correct
1,relearn,15,356,A,40.526492835199925,72.36524973697988,2.026324641759996,1.1367106847444335,A,465,Incorrect
1,relearn,15,357,A,58.928716393447644,82.51353566159229,2.946435819672382,1.2961195872808884,A,669,Incorrect
1,relearn,15,358,A,45.387002117864405,64.58416538354358,2.26935010589322,1.0144856975358436,B,712,Incorrect
1,relearn,15,359,B,41.6192039849756,20.924876645117635,2.08096019924878,0.328687193727871,A,1250,Incorrect
1,relearn,15,360,A,52.822461189500096,77.01090381720525,2.641123059475005,1.209684448392211,A,777,Correct
1,relearn,15,361,B,83.88960065721648,54.51009323915231,4.194480032860824,0.8562425423330778,B,854,Correct
1,relearn,15,362,A,42.19754296902359,69.97078088715747,2.1098771484511794,1.0990984560051753,B,745,Correct
1,relearn,15,363,B,81.59963923533222,66.39856306317742,4.079981961766611,1.0429861896409838,B,788,Correct
1,relearn,15,364,A,34.87737985768845,53.70465496506734,1.7438689928844227,0.8435907475091509,B,1517,Incorrect
1,relearn,15,365,A,35.90306060913897,49.80320806189269,1.7951530304569485,0.7823069628622302,A,741,Incorrect
1,relearn,15,366,A,29.25529045789238,54.02991304773015,1.4627645228946191,0.8486998895242217,A,651,Correct
1,relearn,15,367,A,33.906469208681735,43.81677912584878,1.6953234604340865,0.6882723570286656,A,490,Incorrect
1,relearn,15,368,B,77.09402353905064,56.67517473935497,3.8547011769525317,0.890251563010377,A,954,Incorrect
1,relearn,15,369,A,22.559555221799876,42.11338116566037,1.127977761089994,0.661515444439327,A,822,Correct
1,relearn,15,370,A,57.07350149446681,72.95902918738709,2.853675074723341,1.1460377505406927,B,1100,Incorrect
1,relearn,15,371,A,41.59378538861586,65.84641421233738,2.079689269430793,1.0343130557735483,A,1042,Incorrect
1,relearn,15,372,B,44.0713397294811,21.890232637765887,2.2035669864740552,0.3438509702008841,B,641,Incorrect
1,relearn,15,373,A,47.81874614179505,56.961539888557255,2.390937307089753,0.8947497762552672,B,453,Correct
1,relearn,15,374,A,10.405481058082003,32.99751830752093,0.5202740529041001,0.5183238055080123,A,719,Incorrect
1,relearn,15,375,A,57.265120858972594,78.46053494025705,2.8632560429486293,1.2324552008251843,A,7950,Correct
1,relearn,15,376,B,60.043933518733425,32.66426102392315,3.002196675936671,0.513089012338482,B,970,Correct
1,relearn,15,377,B,48.12268214705574,36.66500819342178,2.406134107352787,0.5759326019213172,B,1337,Incorrect
1,relearn,15,378,A,47.79981391452405,62.96076863676736,2.389990695726203,0.988985441068175,A,1064,Correct
1,relearn,15,379,A,25.490305623313972,45.02317548127488,1.2745152811656986,0.7072223866662863,A,684,Incorrect
1,relearn,15,380,A,32.93469316265092,64.68840704117476,1.6467346581325462,1.016123121664904,B,778,Incorrect
1,relearn,15,381,B,60.531890585480085,39.846502679917116,3.0265945292740044,0.6259074004523681,B,608,Correct
1,relearn,15,382,A,36.153259760240346,68.67919869256399,1.8076629880120174,1.0788103303349637,A,718,Incorrect
1,relearn,15,383,A,38.684820508196474,56.31118918113015,1.9342410254098237,0.8845340912317178,A,710,Correct
1,relearn,15,384,B,64.66240185954538,44.59382290465115,3.2331200929772694,0.7004781321636815,B,1076,Correct
1,relearn,15,385,B,53.0253259725042,29.43248339999414,2.65126629862521,0.4623243681316257,B,1049,Incorrect
1,relearn,15,386,A,27.176602456470565,50.21471200832532,1.3588301228235284,0.78877085173741,A,1304,Correct
1,relearn,15,387,A,30.938767571235076,59.34033412902019,1.5469383785617539,0.9321157888064675,A,1447,Incorrect
1,relearn,15,388,B,76.20866868540635,64.02007842180032,3.810433434270317,1.0056250402608515,B,537,Correct
1,relearn,15,389,B,56.12562034469326,37.472226225288864,2.8062810172346633,0.5886123531151115,B,1696,Incorrect
1,relearn,15,390,A,22.39240119301346,44.4713659032663,1.119620059650673,0.6985545820840252,B,1212,Incorrect
1,relearn,15,391,B,40.87578593494486,23.52139431926075,2.043789296747243,0.36947319797789135,B,1869,Incorrect
1,relearn,15,392,A,28.48596246040039,48.44368392256504,1.4242981230200196,0.7609516076197816,B,1082,Incorrect
1,relearn,15,393,A,15.448077523363459,37.872305593001016,0.7724038761681729,0.5948967851273982,B,1361,Correct
1,relearn,15,394,A,58.01783800444686,70.37108512483078,2.9008919002223426,1.1053864202665518,A,1289,Incorrect
1,relearn,15,395,A,36.97897316216843,50.89912173153405,1.8489486581084214,0.7995215345297998,B,1037,Correct
1,relearn,15,396,A,42.27634344006714,67.13914004409911,2.113817172003357,1.0546191456543903,A,4116,Incorrect
1,relearn,15,397,A,22.971178716137192,52.173321529424115,1.1485589358068595,0.8195366181510849,A,1312,Correct
1,relearn,15,398,A,20.082140948216985,50.4919644256006,1.0041070474108493,0.7931259225239201,A,738,Incorrect
1,relearn,15,399,B,57.36380124923463,27.88277794012054,2.8681900624617316,0.43798165169179115,A,1046,Incorrect
1,relearn,15,400,A,51.51063817910493,63.567777534715745,2.575531908955247,0.9985203145404663,B,3713,Correct
1,relearn,15,401,A,35.98717207234538,44.343714583499526,1.7993586036172688,0.6965494398420234,B,600,Correct
1,relearn,15,402,A,26.956432408618106,40.26305731338667,1.3478216204309053,0.6324506253340018,B,807,Correct
1,relearn,15,403,B,64.66120806321803,34.78491496600073,3.2330604031609016,0.5464001665646677,A,901,Incorrect
1,relearn,15,404,B,41.33211533469732,31.382762228437542,2.0666057667348663,0.4929592763310731,B,2261,Incorrect
1,relearn,15,405,A,45.35552132521043,53.16705099784933,2.2677760662605215,0.8351460841393867,B,1000,Incorrect
1,relearn,15,406,A,57.64826690455974,73.89822693295758,2.8824133452279868,1.1607906342294547,A,814,Correct
1,relearn,15,407,A,53.984070990357154,63.71777238278326,2.6992035495178577,1.0008764281042923,B,1258,Correct
1,relearn,15,408,A,67.16639160233589,84.82006026902215,3.358319580116795,1.3323503910910175,A,640,Correct
1,relearn,15,409,A,33.008912878247386,63.002476069412836,1.6504456439123691,0.9896405798881704,B,723,Incorrect
1,relearn,15,410,A,17.951702688912864,47.82004759497695,0.8975851344456431,0.7511555510934692,B,2727,Incorrect
1,relearn,15,411,B,47.457012206580764,25.97956266674788,2.372850610329038,0.40808601608665396,B,2078,Incorrect
1,relearn,15,412,B,64.60405026758362,50.619880265042305,3.2302025133791807,0.7951352198312592,A,1004,Correct
1,relearn,15,413,B,40.07316313698715,16.595527744627233,2.003658156849357,0.2606819402248325,B,1477,Correct
1,relearn,15,414,A,57.70089455024866,71.4884359816146,2.885044727512433,1.1229377264823233,A,1142,Incorrect
1,relearn,15,415,A,29.326609089463805,55.50407803992451,1.4663304544731903,0.871856019072507,B,980,Incorrect
1,relearn,15,416,B,83.12957131642105,67.15945544214188,4.156478565821052,1.05493825918062,B,820,Correct
1,relearn,15,417,B,46.6676902707774,38.848869052654386,2.3333845135388698,0.6102366080804544,A,1722,Correct
1,relearn,15,418,A,46.959171009593334,76.05148441248578,2.3479585504796665,1.19461392362432,A,1065,Incorrect
1,relearn,15,419,B,52.135122007626805,28.826591179760516,2.6067561003813404,0.45280703539185985,A,750,Incorrect
1,relearn,15,420,A,66.32019773299918,82.88105499103779,3.316009886649959,1.30189256740808,B,901,Correct
1,relearn,15,421,B,56.55570726252611,49.62594581483323,2.8277853631263055,0.7795225339966261,A,1157,Correct
1,relearn,15,422,A,51.22480513890913,66.93082057898656,2.5612402569454567,1.0513468711484035,A,1329,Incorrect
1,relearn,15,423,A,31.974910495165556,51.70109921712286,1.5987455247582778,0.8121189674151509,A,875,Correct
1,relearn,15,424,A,12.941008018125942,37.2379867197841,0.6470504009062971,0.58493292756674,A,820,Correct
1,relearn,15,425,A,21.39504315436961,47.4523684250081,1.0697521577184803,0.7453800601972085,A,1464,Correct
1,relearn,15,426,A,28.245128558922403,43.00770652955677,1.41225642794612,0.6755634744050066,A,854,Correct
1,relearn,15,427,B,67.36170332309528,57.18889775518109,3.3680851661547644,0.8983211052728736,A,1123,Incorrect
1,relearn,15,428,B,53.83864774721535,45.600803115011225,2.6919323873607675,0.7162957403195691,B,1379,Correct
1,relearn,15,429,A,22.120900022248872,40.34067463361704,1.1060450011124436,0.6336698353491371,A,770,Incorrect
1,relearn,15,430,B,42.11075816126428,28.503678064279974,2.105537908063214,0.44773472803515246,A,2661,Correct
1,relearn,15,431,A,49.620431094242065,64.60629906676982,2.481021554712103,1.0148333726189458,B,712,Incorrect
1,relearn,15,432,A,59.03780285780911,73.2926167766589,2.951890142890455,1.1512777321396184,B,789,Correct
1,relearn,15,433,B,83.71911486143799,62.23763715642802,4.1859557430719,0.9776265183371071,B,1891,Correct
1,relearn,15,434,A,25.56556550129006,48.76756481999489,1.278278275064503,0.7660391168597999,A,3004,Correct
1,relearn,15,435,B,73.96173355319955,62.58247986369538,3.698086677659978,0.9830432949160828,B,2024,Incorrect
1,relearn,15,436,A,60.26398941647268,80.58607117614348,3.013199470823634,1.2658430459431826,B,739,Incorrect
1,relearn,15,437,B,63.759182124431085,34.31105139635406,3.187959106221554,0.5389567350186386,A,1397,Correct
1,relearn,15,438,B,31.99204818551236,11.68480915260455,1.599602409275618,0.18354455296210617,B,1692,Correct
1,relearn,15,439,A,29.9671985213172,48.59413697145202,1.49835992606586,0.7633149185852491,A,1894,Correct
1,relearn,15,440,B,59.730294858798686,50.37355729059745,2.986514742939934,0.7912659875966275,B,1564,Incorrect
1,relearn,15,441,B,45.66125237594661,15.976208516968647,2.2830626187973304,0.25095369654563693,A,811,Incorrect
1,relearn,15,442,B,77.47673988535018,55.165637142635596,3.873836994267509,0.8665398018895212,B,645,Correct
1,relearn,15,443,A,19.991789720624443,49.67017798869513,0.9995894860312221,0.7802173313589105,A,1244,Correct
1,relearn,15,444,B,79.39010665812077,59.54379215308362,3.9695053329060386,0.9353116999750253,B,914,Correct
1,relearn,15,445,A,58.637313756077404,69.25771657810698,2.93186568780387,1.0878976680309245,B,1491,Incorrect
1,relearn,15,446,B,40.77684805050695,17.91217000764263,2.0388424025253475,0.28136370852930753,A,763,Correct
1,relearn,15,447,A,50.85295590435294,76.19435775616839,2.542647795217647,1.1968581728588554,B,2131,Correct
1,relearn,15,448,B,54.437465019993965,46.36973436449067,2.7218732509996983,0.7283740841419704,B,1681,Incorrect
1,relearn,15,449,A,32.8809336251808,51.468796205328054,1.6440466812590402,0.8084699602388442,A,753,Incorrect
1,relearn,15,450,A,53.94128465571088,64.55534918464058,2.697064232785544,1.0140330537419533,B,2920,Incorrect
1,relearn,15,451,B,50.19053819456951,26.527076482674033,2.509526909728476,0.4166863429959166,A,1277,Correct
1,relearn,15,452,B,71.59948465804449,44.32793320648488,3.5799742329022246,0.6963015465515597,B,987,Correct
1,relearn,15,453,B,49.41686229591912,28.74701535255293,2.4708431147959558,0.4515570612210664,B,1529,Correct
1,relearn,15,454,B,69.94107307863018,53.51945216054939,3.4970536539315096,0.8406815886586618,B,1576,Incorrect
1,relearn,15,455,B,55.09513757212726,42.02152629983041,2.754756878606363,0.6600725915808875,B,2527,Incorrect
1,relearn,15,456,B,56.19483599673612,24.279769195795083,2.809741799836806,0.3813857226818279,B,670,Correct
1,relearn,15,457,A,69.49511030467336,88.13121901618317,3.4747555152336678,1.3843619510657705,A,727,Incorrect
1,relearn,15,458,A,59.99496597920856,85.93028656908882,2.9997482989604283,1.3497897850315754,B,2930,Incorrect
1,relearn,15,459,B,59.84989476033397,32.11523442615355,2.9924947380166986,0.50446492270759,B,722,Incorrect
1,relearn,15,460,A,34.03117578761943,60.5152936814308,1.7015587893809714,0.9505720102970592,A,890,Correct
1,relearn,15,461,B,75.2137100467451,60.07646122653561,3.7606855023372554,0.9436788462147817,A,871,Incorrect
1,relearn,15,462,B,51.390725131808495,21.177445653710954,2.5695362565904247,0.33265453843747717,A,1859,Incorrect
1,relearn,15,463,A,37.60768783259545,49.896719392065556,1.8803843916297724,0.7837758354017226,B,1029,Incorrect
1,relearn,15,464,A,41.61373042383928,74.22887068154701,2.080686521191964,1.1659843740870743,B,851,Correct
1,relearn,15,465,A,21.497181036355858,47.27111884228508,1.074859051817793,0.7425329984094642,A,743,Incorrect
1,relearn,15,466,A,14.321237130004363,39.26986293664115,0.7160618565002181,0.6168495645461496,A,1040,Incorrect
1,relearn,15,467,A,18.102757690490485,40.85794490032147,0.9051378845245242,0.6417950976981324,A,1105,Correct
1,relearn,15,468,B,38.499457511392066,14.579261493179768,1.9249728755696032,0.2290105040086906,B,830,Incorrect
1,relearn,15,469,A,52.58747625276539,60.82150216734744,2.6293738126382697,0.955381921946172,B,1216,Correct
1,relearn,15,470,B,77.62115352402336,51.81664166698994,3.881057676201168,0.8139339039735518,B,651,Incorrect
1,relearn,15,471,B,65.65193120459337,48.74236073007989,3.2825965602296687,0.7656432119412131,B,1830,Correct
1,relearn,15,472,B,50.674684368717934,43.17374367173789,2.5337342184358964,0.6781715797355028,B,2278,Correct
1,relearn,15,473,B,55.84626445513459,31.178598959471152,2.7923132227567296,0.4897522872014847,A,2194,Correct
1,relearn,15,474,B,42.77587543977206,24.62022948654368,2.138793771988603,0.38673366042310214,B,1454,Correct
1,relearn,15,475,A,46.93228170533084,73.10359188723697,2.346614085266542,1.1483085361198504,A,3119,Correct
1,relearn,15,476,A,48.83419743250255,68.99668554789318,2.4417098716251275,1.0837974021965313,A,1592,Correct
1,relearn,15,477,B,46.642429221590994,16.3082065338656,2.3321214610795495,0.25616870920008616,A,1728,Incorrect
1,relearn,15,478,A,24.549452840171256,47.39920475110834,1.2274726420085629,0.744544967160402,B,2880,Correct
1,relearn,15,479,B,67.83325146198996,38.730739823765745,3.391662573099498,0.6083810384922005,A,881,Correct
1,relearn,15,480,A,46.058591699928584,63.793125515208125,2.302929584996429,1.002060072340547,A,1306,Correct
1,relearn,15,481,A,50.18884807905933,58.24037443389573,2.5094424039529666,0.9148376623192281,B,760,Incorrect
1,relearn,15,482,B,57.57377218185326,32.14898165024852,2.878688609092663,0.504995022864069,B,1096,Correct
1,relearn,15,483,A,46.52081211560394,64.44611293920366,2.326040605780197,1.0123171748111017,A,3189,Correct
1,relearn,15,484,A,33.44160978366845,43.648688979850135,1.6720804891834222,0.6856320031896148,100,804,Correct
1,relearn,15,485,A,33.881899854074376,43.62221911930165,1.694094992703719,0.6852162155924113,A,2130,Correct
1,relearn,15,486,A,52.96282342868552,72.45461016216464,2.648141171434276,1.138114355020844,A,1054,Incorrect
1,relearn,15,487,A,45.301448392773565,61.50146499876473,2.2650724196386784,0.9660627531256454,A,704,Incorrect
1,relearn,15,488,B,44.37318772102711,27.32979738984439,2.2186593860513555,0.4292954535201632,B,801,Correct
1,relearn,15,489,B,85.31204421961286,63.71050355413566,4.265602210980643,1.000762249610895,B,795,Incorrect
1,relearn,15,490,B,69.21566078142001,39.16981251939429,3.460783039071001,0.6152779762670931,B,988,Correct
1,relearn,15,491,B,76.83833671111802,59.69856698483814,3.841916835555901,0.9377428973470284,B,884,Correct
1,relearn,15,492,B,42.829830373028145,24.94147999984254,2.141491518651407,0.39177985168581037,A,1417,Incorrect
1,relearn,15,493,A,21.223360821778396,45.65261747904964,1.06116804108892,0.7171096384466366,A,739,Incorrect
1,relearn,15,494,B,63.34190363631487,48.29267931796586,3.1670951818157436,0.7585796328374463,B,733,Correct
1,relearn,15,495,A,27.277345037809706,41.64881959084206,1.3638672518904853,0.6542181282863804,A,2304,Incorrect
1,relearn,15,496,B,57.83428510307969,31.075145111892226,2.891714255153984,0.488127237963787,B,2036,Incorrect
1,relearn,15,497,B,54.31096519411318,33.43541873207714,2.715548259705659,0.5252023292919604,B,752,Correct
1,relearn,15,498,B,72.70951054881222,49.81203266115939,3.6354755274406108,0.782445579343366,B,2000,Incorrect
1,relearn,15,499,A,21.615387541911165,38.97311607120851,1.0807693770955582,0.6121882756840548,A,602,Correct
1,relearn,15,500,A,47.39493589058805,58.14190781727552,2.3697467945294024,0.9132909523222389,A,4979,Incorrect
1,relearn,15,501,A,46.56938307125709,68.78433032817763,2.328469153562855,1.0804617342054823,B,7021,Incorrect
1,relearn,15,502,B,40.391906834426706,15.635118535453792,2.0195953417213355,0.24559586764493618,A,5968,Incorrect
1,relearn,15,503,B,52.14791586837371,33.41666999491601,2.6073957934186853,0.5249078248173131,B,1364,Incorrect
1,relearn,15,504,B,38.38460641080411,24.855008813661783,1.9192303205402055,0.3904215654695471,A,681,Incorrect
1,relearn,15,505,A,19.955460210174795,33.93586275907694,0.9977730105087397,0.5330632856857378,A,736,Correct
1,relearn,15,506,B,68.96281414921368,48.68870652084753,3.4481407074606842,0.7648004135934202,B,2637,Correct
1,relearn,15,507,B,78.43701342113798,52.096420551925405,3.921850671056899,0.8183286604212658,B,653,Correct
1,relearn,15,508,B,73.27440056446929,58.78701484235599,3.663720028223464,0.9234242697760986,B,637,Correct
1,relearn,15,509,B,31.95827850086323,11.624737314934187,1.5979139250431615,0.18260094674254188,A,702,Correct
1,relearn,15,510,A,12.16318835775705,34.44361300820348,0.6081594178878525,0.5410390079483094,A,553,Incorrect
1,relearn,15,511,B,72.21598362629923,57.882219518365886,3.610799181314962,0.90921177806185,B,923,Incorrect
1,relearn,15,512,B,38.76950162760212,14.904268480064168,1.938475081380106,0.2341157018204975,A,2696,Correct
1,relearn,15,513,B,55.782565425186675,42.11292652348893,2.789128271259334,0.6615083029367977,A,1425,Correct
1,relearn,15,514,B,79.6759951532562,58.099061576497505,3.9837997576628097,0.912617925145928,B,1023,Incorrect
1,relearn,15,515,A,46.20610937368025,54.963462572241326,2.3103054686840125,0.8633640511640546,A,987,Correct
1,relearn,15,516,A,44.33377285004024,54.35502545271176,2.216688642502012,0.8538067432396274,B,1222,Incorrect
1,relearn,15,517,B,83.4039856726753,65.9416174316272,4.170199283633765,1.035808504445143,B,737,Correct
1,relearn,15,518,A,34.54029070126546,67.03812031821901,1.727014535063273,1.0530323315109276,A,739,Correct
1,relearn,15,519,A,31.21705262377481,52.06358739568091,1.5608526311887405,0.8178129184090066,A,632,Incorrect
1,relearn,15,520,A,52.32031128362762,67.55102725221339,2.616015564181381,1.0610890547899874,A,715,Correct
1,relearn,15,521,B,47.31212156587026,27.17798155845618,2.3656060782935127,0.42691073601722407,B,749,Correct
1,relearn,15,522,A,10.77074212145672,34.21232882743747,0.538537106072836,0.5374060045323792,B,1628,Incorrect
1,relearn,15,523,A,22.771560955604816,36.41188784424365,1.1385780477802407,0.5719565967740567,B,1167,Incorrect
1,relearn,15,524,B,75.33749584391794,52.07995016311689,3.766874792195897,0.818069944158853,B,1664,Incorrect
1,relearn,15,525,A,27.189006761912427,59.060862331060626,1.3594503380956215,0.927725856069691,A,962,Correct
1,relearn,15,526,A,55.26145878216711,77.5117643124109,2.7630729391083553,1.217551946653268,A,720,Correct
1,relearn,15,527,A,38.08450520077647,51.96955905500704,1.9042252600388236,0.8163359246875552,B,798,Incorrect
1,relearn,15,528,A,48.84084180181346,76.07673114355418,2.442042090090673,1.195010498348578,A,980,Incorrect
1,relearn,15,529,A,55.612253727472876,75.01421651505392,2.780612686373644,1.1783205575924376,B,1426,Correct
1,relearn,15,530,A,32.462585291636366,63.61208149347239,1.6231292645818183,0.9992162394972405,A,1338,Incorrect
1,relearn,15,531,B,32.5382454380158,15.912147953438769,1.6269122719007898,0.24994743556678548,A,758,Correct
1,relearn,15,532,B,58.81983030089094,33.73390906351053,2.940991515044547,0.5298910044539541,B,1667,Incorrect
1,relearn,15,533,A,33.60062554372882,52.663129567633185,1.680031277186441,0.8272305048236192,B,706,Correct
1,relearn,15,534,B,46.62109597058714,37.675369119841385,2.331054798529357,0.5918033142408873,B,753,Incorrect
1,relearn,15,535,B,45.56780355097787,34.41828201923196,2.2783901775488937,0.540641109704004,A,818,Incorrect
1,relearn,15,536,B,42.10289481563833,32.04283753506749,2.1051447407819164,0.5033277150016965,B,646,Incorrect
1,relearn,15,537,B,47.84952907519779,17.62794027321202,2.3924764537598895,0.2768990383012126,B,1448,Correct
1,relearn,15,538,A,61.42967287605403,71.53356271361504,3.0714836438027016,1.1236465755309888,A,1383,Incorrect
1,relearn,15,539,B,51.32966555608374,25.339117665141643,2.566483277804187,0.39802592952628163,B,4090,Correct
1,relearn,15,540,A,26.765964693982205,37.94995814427784,1.3382982346991101,0.5961165485505171,B,2104,Incorrect
1,relearn,15,541,A,53.66825576626682,81.8854939842699,2.683412788313341,1.2862543316827677,A,828,Incorrect
1,relearn,15,542,B,44.51217656013378,27.393802686248094,2.2256088280066892,0.4303008463650268,A,836,Correct
1,relearn,15,543,A,44.72414589956739,67.01758418991922,2.2362072949783696,1.0527097507619283,B,992,Correct
1,relearn,15,544,B,44.873400885111586,17.528405565436394,2.243670044255579,0.2753355507675871,A,959,Correct
1,relearn,15,545,A,20.125428240133864,47.2463262930427,1.0062714120066931,0.7421435579566461,B,1540,Correct
1,relearn,15,546,A,32.69591818344607,65.64669681719656,1.6347959091723032,1.0311759022667057,A,906,Correct
1,relearn,15,547,B,88.5725217333409,67.79913775034031,4.4286260866670455,1.0649863653809575,B,1292,Incorrect
1,relearn,15,548,B,62.381150945540305,45.21482982705137,3.1190575472770155,0.7102328860898862,B,2422,Incorrect
1,relearn,15,549,B,60.764798407646765,53.230415079404764,3.0382399203823383,0.8361414048049667,A,1163,Correct
1,relearn,15,550,B,48.21825655201208,26.47709451990424,2.4109128276006038,0.41590122816066866,B,1605,Correct
1,relearn,15,551,B,73.43834957035186,59.702782183493156,3.671917478517593,0.9378091095326684,B,1660,Correct
1,relearn,15,552,B,81.64462566555193,52.32176633702824,4.082231283277596,0.8218683837362482,B,971,Incorrect
1,relearn,15,553,B,64.98897198695768,54.69130840600737,3.249448599347884,0.8590890635176324,A,976,Incorrect
1,relearn,15,554,B,34.58470699564975,11.301014972856134,1.7292353497824877,0.17751592808416544,A,708,Correct
1,relearn,15,555,B,84.14113633351555,60.23403829701073,4.207056816675777,0.9461540610496758,B,1709,Incorrect
1,relearn,15,556,A,52.687357244119276,71.17805206734332,2.634367862205964,1.1180622273579877,B,896,Incorrect
1,relearn,15,557,A,36.14909779944355,45.08425615673184,1.8074548899721776,0.7081818396727458,A,694,Correct
1,relearn,15,558,A,29.781590631204722,47.33744013636448,1.489079531560236,0.7435747708607464,A,814,Correct
1,relearn,15,559,A,50.8517756055825,69.4825471411398,2.542588780279125,1.0914292982565563,100,534,Correct
1,relearn,15,560,A,41.347584653708466,60.14698497328629,2.0673792326854232,0.9447866306382595,A,737,Incorrect
1,relearn,15,561,B,67.2701010848078,41.50456870687218,3.3635050542403904,0.6519522406996123,A,1157,Correct
1,relearn,15,562,A,63.35249628350873,86.53257981878612,3.1676248141754364,1.3592505852743542,A,1898,Incorrect
1,relearn,15,563,B,34.04608557389288,15.103525957991028,1.7023042786946438,0.2372456309646368,B,2638,Incorrect
1,relearn,15,564,B,60.32548560530317,27.39010790730682,3.0162742802651588,0.43024280891313404,A,930,Incorrect
1,relearn,15,565,B,60.72173384542782,38.65975153189649,3.036086692271391,0.6072659570110638,B,886,Correct
1,relearn,15,566,B,35.40837057346744,18.613407816992375,1.7704185286733718,0.29237872628067035,B,1503,Correct
1,relearn,15,567,B,61.88332804021813,54.74407190997191,3.0941664020109068,0.8599178706997954,B,1653,Incorrect
1,relearn,15,568,A,23.92131383486306,46.08284157335311,1.196065691743153,0.7238675827169421,A,1459,Incorrect
1,relearn,15,569,B,41.30875130123818,17.249778067499058,2.065437565061909,0.2709588802645469,B,659,Incorrect
1,relearn,15,570,A,28.534217839988976,40.97508363516071,1.4267108919994487,0.6436351086422412,A,994,Incorrect
1,relearn,15,571,A,36.49770609977431,66.98314250126157,1.8248853049887157,1.052168741981608,A,1152,Incorrect
1,relearn,15,572,B,41.111588252951655,32.15671475446877,2.055579412647583,0.505116494181108,B,893,Incorrect
1,relearn,15,573,B,48.62304794785581,25.28674195151225,2.4311523973927907,0.3972032137404585,B,925,Incorrect
1,relearn,15,574,B,61.756288875912254,46.46463965257729,3.0878144437956125,0.729864852921169,A,678,Incorrect
1,relearn,15,575,B,38.275057601392035,20.885586090795552,1.9137528800696018,0.32807001914380235,B,749,Correct
1,relearn,15,576,B,80.55553202593899,61.296853332280826,4.027776601296949,0.9628487205843224,B,669,Incorrect
1,relearn,15,577,B,59.8551456356469,43.34835227549203,2.9927572817823447,0.6809143252695408,A,824,Correct
1,relearn,15,578,B,50.4866940588433,43.21189408878967,2.5243347029421646,0.6787708450852092,A,526,Incorrect
1,relearn,15,579,B,70.11817358462407,47.91744754688134,3.5059086792312035,0.7526855059602835,B,2082,Correct
1,relearn,15,580,B,57.241960570462254,25.09240468460313,2.862098028523113,0.3941505710902566,B,3636,Incorrect
1,relearn,15,581,B,34.727852073614756,14.55780101580422,1.736392603680738,0.2286734036183628,A,2213,Incorrect
1,relearn,15,582,A,48.111008021222574,74.8075695112287,2.4055504010611286,1.1750745540469194,B,711,Correct
1,relearn,15,583,B,32.42358530193401,11.992700435476412,1.6211792650967005,0.18838089792397905,A,1715,Correct
1,relearn,15,584,B,65.46052210815296,45.490135268965766,3.273026105407648,0.714557373858944,B,2106,Correct
1,relearn,15,585,A,60.03693638525216,76.10379280101697,3.001846819262608,1.1954355818699733,B,787,Incorrect
1,relearn,15,586,B,53.32427054548182,34.22637295258702,2.666213527274091,0.537626609134359,B,660,Correct
1,relearn,15,587,B,75.08192885844964,46.28637176767409,3.7540964429224823,0.7270646275332547,A,748,Correct
1,relearn,15,588,B,44.044753770870415,27.46505833290304,2.2022376885435206,0.4314201274453166,A,2101,Correct
1,relearn,15,589,B,74.52844597343814,50.94102293397093,3.7264222986719067,0.8001797170785613,B,1250,Incorrect
1,relearn,15,590,B,84.20414750196771,58.87975442218661,4.210207375098386,0.9248810196895629,B,614,Correct
1,relearn,15,591,B,62.54830646583518,34.052685301804175,3.127415323291759,0.5348983298957657,100,3329,Incorrect
1,relearn,15,592,A,55.13791863816753,71.861662444146,2.7568959319083763,1.1288003540463933,B,942,Correct
1,relearn,15,593,B,71.2948913768082,61.50728531589763,3.56474456884041,0.9661541784533767,A,1563,Correct
1,relearn,15,594,A,27.01234197165884,45.77364205522238,1.350617098582942,0.7190106880436773,B,2401,Incorrect
1,relearn,15,595,A,43.91481955145236,63.34602448347158,2.1957409775726178,0.9950370257569675,B,750,Correct
1,relearn,15,596,B,52.14344005961129,30.322553675052887,2.607172002980564,0.47630555931814167,A,603,Correct
1,relearn,15,597,A,22.597295920722708,48.51964055247707,1.1298647960361352,0.7621447315723969,B,416,Incorrect
1,relearn,15,598,A,61.51530375000978,88.31751587979844,3.0757651875004886,1.3872882953563734,B,692,Incorrect
1,relearn,15,599,B,38.45886620812942,11.813764498952136,1.922943310406471,0.18557017880573964,B,437,Correct
1,relearn,15,600,B,31.244672282064098,11.106601861112626,1.5622336141032047,0.17446209406609076,B,608,Correct
1,relearn,15,601,A,16.984812487888835,47.29254522181445,0.8492406243944417,0.7428695631920769,B,1261,Incorrect
1,relearn,15,602,B,37.06638637597743,21.055512512166633,1.8533193187988715,0.3307392171289533,B,1163,Correct
1,relearn,15,603,A,42.26897963649266,72.07996608785028,2.1134489818246327,1.1322294596629594,A,2534,Correct
1,relearn,15,604,B,43.89068883818523,23.072327580244,2.194534441909261,0.36241927413655856,B,695,Correct
1,relearn,15,605,A,15.581450983082913,35.56225275978714,0.7790725491541457,0.5586105600762532,B,2047,Incorrect
1,relearn,15,606,B,69.18358219534532,36.73934196148323,3.459179109767266,0.5771002340195945,B,652,Correct
1,relearn,15,607,B,56.02980605302559,45.745590541403,2.8014903026512794,0.7185700558949918,A,1101,Incorrect
1,relearn,15,608,A,44.71225020928657,59.611901769245726,2.2356125104643287,0.9363815633238938,B,653,Incorrect
1,relearn,15,609,A,51.11350778427648,76.53016256470791,2.5556753892138238,1.2021329824565947,A,983,Correct
1,relearn,15,610,A,60.51081484669574,75.36623947059977,3.025540742334787,1.1838501212476267,A,945,Correct
1,relearn,15,611,A,62.32690405527034,84.17723379604637,3.116345202763517,1.3222528964658486,A,650,Correct
1,relearn,15,612,A,65.44535786519992,83.74519080194875,3.272267893259996,1.3154663809843887,A,664,Correct
1,relearn,15,613,A,19.14820669306778,42.79384823150146,0.957410334653389,0.6722041961146077,B,773,Incorrect
1,relearn,15,614,B,37.27453441847592,15.423065664608632,1.8637267209237962,0.2422649489388373,B,995,Correct
1,relearn,15,615,A,24.353688329918022,42.805718837410524,1.217684416495901,0.6723906591561956,B,698,Incorrect
1,relearn,15,616,B,40.24422494306688,25.269065709309732,2.012211247153344,0.39692555597722606,B,727,Correct
1,relearn,15,617,B,59.58936958852878,49.18359245382741,2.9794684794264388,0.7725740636504929,B,906,Correct
1,relearn,15,618,B,63.853334476871765,35.81014600863392,3.192666723843588,0.562504458123511,B,1210,Correct
1,relearn,15,619,A,68.66841305989314,86.68460741364166,3.4334206529946574,1.3616386291500595,A,925,Correct
1,relearn,15,620,B,54.01097376842147,37.64341383491117,2.7005486884210734,0.5913013617989866,B,647,Correct
1,relearn,15,621,B,78.9174550088182,65.02842032888026,3.94587275044091,1.021464037898797,B,1034,Correct
1,relearn,15,622,B,76.28735345041495,56.22432034724039,3.814367672520748,0.8831695587798478,B,693,Correct
1,relearn,15,623,A,31.544274113665843,62.71090750556137,1.577213705683292,0.985060631597103,A,1129,Correct
1,relearn,15,624,B,79.97127813390338,58.72188700022774,3.9985639066951695,0.9224012440242272,B,932,Correct
1,relearn,15,625,B,53.23083721373484,44.55972181587519,2.6615418606867416,0.6999424735137917,B,619,Correct
1,relearn,15,626,B,82.595512036136,51.75596336108958,4.1297756018068,0.8129807713733077,B,646,Correct
1,relearn,15,627,B,56.82989883957584,40.823115069594,2.8414949419787923,0.6412479919964365,B,645,Correct
1,relearn,15,628,A,33.43266679121501,47.32795130487581,1.6716333395607506,0.7434257206442666,B,672,Incorrect
1,relearn,15,629,A,24.5507623925553,35.92785050519589,1.227538119627765,0.5643533560319788,B,821,Incorrect
1,relearn,15,630,A,40.100965622867626,68.12307114950961,2.0050482811433814,1.070074699316371,A,992,Correct
1,relearn,15,631,A,34.65624896780799,42.42618814969557,1.7328124483903995,0.6664290050545096,B,872,Incorrect
1,relearn,15,632,B,55.59919096175294,40.09281065373333,2.7799595480876467,0.6297763970576761,B,672,Correct
1,relearn,15,633,A,20.915257951231368,45.965209256494944,1.0457628975615685,0.7220198186046105,A,1541,Correct
1,relearn,15,634,A,56.1722658697842,78.36423759900771,2.80861329348921,1.2309425657260382,A,1222,Correct
1,relearn,15,635,B,48.58671438970989,34.39502353594321,2.4293357194854948,0.5402757663028361,B,1357,Correct
1,relearn,15,636,B,85.47624750149373,62.518836612496116,4.273812375074686,0.9820435890639918,A,1830,Incorrect
1,relearn,15,637,A,38.496166970375285,70.50905434108142,1.9248083485187641,1.1075536356475246,B,848,Incorrect
1,relearn,15,638,B,58.539607498337546,31.138697566076942,2.9269803749168775,0.48912551757970846,B,709,Correct
1,relearn,15,639,A,66.31199260908201,77.47324386608786,3.3155996304541007,1.2169468688973606,A,961,Correct
1,relearn,15,640,A,31.475451798572053,48.66659109538456,1.5737725899286028,0.764453025302593,B,694,Incorrect
1,relearn,15,641,A,29.990374627131445,48.20121135701714,1.4995187313565723,0.7571428574666698,A,851,Correct
1,relearn,15,642,A,53.28426893960518,71.53232317377352,2.664213446980259,1.123627104884689,B,760,Incorrect
1,relearn,15,643,B,72.24298894844469,42.9570981787835,3.6121494474222344,0.6747685202900086,B,629,Correct
1,relearn,15,644,A,33.0064402043618,56.65781183674534,1.6503220102180902,0.8899788271739598,A,1900,Correct
1,relearn,15,645,B,73.70667720450172,52.85812789836838,3.685333860225086,0.830293531440119,B,642,Correct
1,relearn,15,646,A,46.28722689867726,73.1368511658126,2.314361344933863,1.148830971646035,A,901,Correct
1,relearn,15,647,A,68.31670427946979,84.15952616132773,3.415835213973489,1.321974745590126,A,766,Correct
1,relearn,15,648,B,71.43822941086617,60.32249893257798,3.5719114705433084,0.9475435974638255,B,968,Correct
1,relearn,15,649,A,61.70568077944462,81.84805464819112,3.085284038972231,1.2856662359668656,A,922,Correct
1,relearn,15,650,B,56.310072601343236,48.70274806296354,2.8155036300671616,0.765020977621204,B,699,Correct
1,relearn,15,651,A,17.603827332652667,36.276960792448406,0.8801913666326334,0.5698371676006043,A,899,Correct
1,relearn,15,652,A,49.02867696205494,63.28231493738431,2.451433848102747,0.9940362785472109,B,1408,Incorrect
1,relearn,15,653,B,48.32313184789865,18.47510685231451,2.4161565923949326,0.29020629980758855,B,551,Correct
1,relearn,15,654,B,43.59893053279775,17.219324975619035,2.1799465266398874,0.2704805242159,B,547,Correct
1,relearn,15,655,A,62.352997881373746,87.321311323461,3.117649894068687,1.3716399507780617,A,747,Correct
1,relearn,15,656,A,27.305883964938893,51.61921510658357,1.3652941982469446,0.8108327348145712,A,1060,Correct
1,relearn,15,657,B,40.52654373020698,21.118517039029708,2.026327186510349,0.331728889922633,B,781,Correct
1,relearn,15,658,B,74.8534311776446,49.41018258740943,3.74267155888223,0.7761333331456789,B,947,Correct
1,relearn,15,659,A,40.759863908112216,50.62501785567496,2.0379931954056105,0.7952159209162029,A,1861,Correct
1,relearn,15,660,B,71.54167048906281,62.110309431131256,3.5770835244531405,0.9756264591051539,A,1317,Incorrect
1,relearn,15,661,B,40.39405751627176,29.82342686083642,2.0197028758135875,0.468465293654381,B,512,Correct
1,relearn,15,662,A,36.43749956326416,65.21595063441329,1.8218749781632082,1.0244097570497368,A,1171,Correct
1,relearn,15,663,A,37.73965667705163,60.41908840326675,1.8869828338525816,0.9490608213214754,A,2119,Correct
1,relearn,15,664,A,12.444488815109896,31.527119048299593,0.6222244407554948,0.49522682795494416,A,1039,Correct
1,relearn,15,665,A,38.08874440928871,52.94999742775691,1.9044372204644355,0.8317366146331977,A,1628,Correct
1,relearn,15,666,A,58.901793474262504,86.25859308155412,2.945089673713125,1.354946811670009,A,789,Correct
1,relearn,15,667,A,54.28822688953314,73.28697942918176,2.714411344476657,1.1511891808925183,A,493,Correct
1,relearn,15,668,A,26.32907153265497,54.4407668911367,1.3164535766327488,0.8551535666049475,A,1289,Correct
1,relearn,15,669,A,57.29318818950412,71.56584233533927,2.8646594094752063,1.1241536226433364,A,1067,Correct
1,relearn,15,670,B,53.50017986848879,28.635941067746245,2.6750089934244397,0.4498123104353093,B,698,Correct
1,relearn,15,671,A,25.135542315141926,49.10912898300831,1.2567771157570962,0.7714043941860625,A,1207,Correct
1,relearn,15,672,A,41.06248827305324,71.36767061532271,2.0531244136526623,1.12104074854457,B,940,Incorrect
1,relearn,15,673,A,35.38133383618019,61.79883546481559,1.7690666918090097,0.9707338374833452,A,1383,Correct
1,relearn,15,674,B,89.77726366223588,66.01770607790654,4.488863183111794,1.037003702106007,B,1615,Correct
1,relearn,15,675,A,36.74157111124988,45.36591542718,1.837078555562494,0.7126061331470227,B,1375,Incorrect
1,relearn,15,676,A,52.3523605601595,71.76313453515704,2.6176180280079744,1.1272526812711265,B,772,Incorrect
1,relearn,15,677,A,56.55366334959444,70.23654135145655,2.8276831674797216,1.1032730116164582,B,789,Incorrect
1,relearn,15,678,A,18.85584346515623,49.31653444567419,0.9427921732578115,0.7746623115751902,A,1255,Correct
1,relearn,15,679,A,55.1619119755772,70.85946857041597,2.75809559877886,1.1130579294904783,A,476,Correct
1,relearn,15,680,B,62.40858939245826,37.50539118785648,3.120429469622913,0.5891333071289064,B,957,Correct
1,relearn,15,681,A,69.55688264105602,88.13956666500724,3.477844132052801,1.384493075626873,A,594,Correct
1,relearn,15,682,B,42.90443534305126,21.230809672870034,2.145221767152563,0.3334927784902581,B,688,Correct
1,relearn,15,683,B,78.1341717645192,52.58393997396726,3.9067085882259596,0.8259865975951111,B,967,Correct
1,relearn,15,684,B,81.86794114893367,65.73994973518896,4.093397057446683,1.0326407156771595,A,893,Incorrect
1,relearn,15,685,A,42.91496320499429,59.59883854474643,2.145748160249714,0.9361763666732978,B,452,Incorrect
1,relearn,15,686,B,38.96893282484481,19.241138615044658,1.9484466412422408,0.30223909859863596,B,818,Correct
1,relearn,15,687,A,41.87300726806884,58.07381724906264,2.0936503634034422,0.9122213881778569,A,1459,Correct
1,relearn,15,688,B,36.56610033568968,14.319013847172851,1.828305016784484,0.22492254354464375,B,543,Correct
1,relearn,15,689,A,44.27277618000546,60.30444868742246,2.213638809000273,0.9472600648759452,A,573,Correct
1,relearn,15,690,B,81.70099382109215,61.67044287202898,4.085049691054608,0.9687170513519763,A,1090,Incorrect
1,relearn,15,691,A,65.93978544557868,83.37315779968021,3.2969892722789336,1.3096225002502895,A,690,Correct
1,relearn,15,692,B,71.35439576997777,57.82434147282818,3.5677197884988887,0.908302631848523,B,510,Correct
1,relearn,15,693,A,41.57649399414007,60.835861194539966,2.0788246997070035,0.9556074730178759,B,941,Incorrect
1,relearn,15,694,B,53.68334362180807,39.13290066397339,2.6841671810904035,0.6146981661979897,B,802,Correct
1,relearn,15,695,B,55.067654406826634,47.5038508383193,2.7533827203413317,0.7461887440544464,A,784,Incorrect
1,relearn,15,696,B,49.67826430338637,31.89865731954995,2.483913215169318,0.5010629374723821,B,612,Correct
1,relearn,15,697,A,56.26294276368532,77.96379212268371,2.8131471381842656,1.2246523828931246,A,646,Correct
1,relearn,15,698,A,48.952313957101296,61.20949723861554,2.4476156978550647,0.9614765342737966,B,1305,Incorrect
1,relearn,15,699,B,65.16784720209135,48.93992765398418,3.2583923601045677,0.7687465859248632,B,657,Correct
1,relearn,15,700,B,67.87471457297197,51.43158455190942,3.3937357286485987,0.8078854409538045,B,1495,Correct
1,relearn,15,701,B,72.5300807572015,46.078705661274725,3.6265040378600752,0.7238026159619354,B,689,Correct
1,relearn,15,702,B,44.77030930084586,20.09676638574144,2.238515465042293,0.315679268191778,A,742,Incorrect
1,relearn,15,703,A,33.26056336084654,54.84697568251196,1.663028168042327,0.861534279378988,A,1050,Correct
1,relearn,15,704,A,35.54246712931606,67.53403836822183,1.777123356465803,1.0608221940242848,A,581,Correct
1,relearn,15,705,A,39.03817818485071,55.75296449472302,1.9519089092425355,0.8757655183623719,A,1167,Correct
1,relearn,15,706,B,38.66752927833524,13.955669614604883,1.9333764639167617,0.219215145685845,B,801,Correct
1,relearn,15,707,A,20.042131451966206,50.21173730899697,1.0021065725983105,0.7887241252696269,A,1271,Correct
1,relearn,15,708,B,37.668153961509915,20.70629992220409,1.8834076980754957,0.32525379859311637,B,1340,Correct
1,relearn,15,709,B,65.76265966543534,48.70825020531075,3.2881329832717667,0.7651074050710889,A,1675,Incorrect
1,relearn,15,710,B,78.00939367851232,53.45443354781091,3.900469683925616,0.8396602786780325,A,829,Incorrect
1,relearn,15,711,B,68.01228124512089,57.91657101079048,3.400614062256045,0.9097513700430547,B,952,Correct
1,relearn,15,712,B,81.82646887486484,61.39557162551331,4.091323443743242,0.9643993839082928,B,557,Correct
1,relearn,15,713,B,57.52425707753862,46.563586782945436,2.8762128538769307,0.7314191108104608,B,1635,Correct
1,relearn,15,714,A,28.648854528208897,57.198254572239456,1.432442726410445,0.8984680818115314,B,1358,Incorrect
1,relearn,15,715,B,41.856484146230144,22.30943142002899,2.0928242073115073,0.3504357292746419,B,1012,Correct
1,relearn,15,716,A,38.97938585507665,63.23394637074623,1.9489692927538327,0.9932765068791366,A,796,Correct
1,relearn,15,717,A,38.84092432668631,49.55435058321608,1.9420462163343157,0.7783979187282235,A,499,Correct
1,relearn,15,718,B,59.26700470540972,49.016732714515086,2.963350235270486,0.7699530369944754,A,915,Incorrect
1,relearn,15,719,B,51.17340441634899,33.610183379916954,2.5586702208174494,0.5279475259607642,B,780,Correct
1,relearn,15,720,B,74.43453771601594,60.74313298087264,3.721726885800797,0.9541509016436867,A,1590,Incorrect
1,relearn,15,721,B,81.68156370536866,58.0501401845467,4.084078185268433,0.9118494697181478,A,695,Incorrect
1,relearn,15,722,B,45.86659806386449,27.91252665596575,2.2933299031932246,0.43844894342755636,A,786,Incorrect
1,relearn,15,723,A,48.41299881576943,59.48495839917964,2.420649940788471,0.9343875415297861,B,1440,Incorrect
1,relearn,15,724,B,78.86206404296412,59.96524000236296,3.943103202148206,0.9419317873108614,A,819,Incorrect
1,relearn,15,725,A,17.048520433910518,34.548369864126364,0.8524260216955258,0.5426845247932118,A,591,Correct
1,relearn,15,726,B,54.783390901615434,33.329324693014996,2.739169545080772,0.5235358080234239,B,999,Correct
1,relearn,15,727,B,65.5207222323855,57.80235297256462,3.2760361116192747,0.9079572372940657,A,1017,Incorrect
1,relearn,15,728,A,62.67219946661866,84.40488301403181,3.1336099733309326,1.3258288020199414,A,771,Correct
1,relearn,15,729,B,73.60615482177968,63.854987125577864,3.680307741088984,1.0030317922439311,B,622,Correct
1,relearn,15,730,A,49.56659457593382,78.30304732718517,2.478329728796691,1.2299813911838942,100,1464,Correct
1,relearn,15,731,B,82.34308868074865,58.90808045247974,4.117154434037433,0.9253259639329342,B,1472,Correct
1,relearn,15,732,A,29.59245368328382,44.16571137511438,1.479622684164191,0.6937533719831325,A,1748,Correct
1,relearn,15,733,A,59.29553831472437,73.9008915134735,2.964776915736218,1.1608324893623232,A,1059,Correct
1,relearn,15,734,B,52.32011036386263,44.91869602680401,2.616005518193132,0.7055812272332024,B,1169,Correct
1,relearn,15,735,A,23.13615925803619,51.9498219999465,1.1568079629018095,0.8160258957516467,A,1470,Correct
1,relearn,15,736,A,15.49542339753221,42.83214728814794,0.7747711698766104,0.6728057962896078,A,647,Correct
1,relearn,15,737,A,53.05052257679576,62.515253605140856,2.6525261288397877,0.9819873073160668,A,2310,Correct
1,relearn,15,738,A,24.08956382318021,42.799141605162276,1.2044781911590106,0.6722873442336353,A,1106,Correct
1,relearn,15,739,A,60.01181869713942,68.62886717800083,3.000590934856971,1.0780197247529855,A,1392,Correct
1,relearn,15,740,A,60.28179015889035,87.81199783810652,3.0140895079445174,1.3793476365261912,A,744,Correct
1,relearn,15,741,A,65.9426415943896,84.37333711353834,3.2971320797194803,1.3253332801737354,A,652,Correct
1,relearn,15,742,B,66.24780846708201,52.62609233154073,3.3123904233541004,0.8266487252795326,B,615,Correct
1,relearn,15,743,A,34.76331451148146,65.5278502399919,1.7381657255740732,1.0293090645974536,A,1395,Correct
1,relearn,15,744,B,73.51838978160768,49.130835403915526,3.6759194890803837,0.7717453578483516,B,1001,Correct
1,relearn,15,745,B,78.37442617696553,52.157606948126926,3.9187213088482764,0.8192897740852975,B,1192,Correct
1,relearn,15,746,B,40.33038765488871,19.939734986556413,2.0165193827444354,0.313212624741465,A,1223,Incorrect
1,relearn,15,747,A,56.23925573186123,80.47562864297808,2.811962786593061,1.2641082186890014,B,953,Incorrect
1,relearn,15,748,B,66.50810659901153,54.6245425150498,3.325405329950576,0.8580403073549188,B,580,Correct
1,relearn,15,749,B,32.891670580279516,20.638770041343413,1.6445835290139756,0.3241930417050679,A,756,Incorrect
1,relearn,15,750,B,63.38465543340494,47.56487704864299,3.169232771670247,0.747147341524593,B,617,Correct
1,relearn,15,751,B,32.479301366054614,10.99517799670954,1.6239650683027307,0.17271185209687415,B,400,Correct
1,relearn,15,752,A,33.846431895023116,55.71722025178789,1.6923215947511556,0.8752040491073065,A,1290,Correct
1,relearn,15,753,B,70.64510184583574,60.01488229036978,3.532255092291787,0.9427115665474094,A,1203,Incorrect
1,relearn,15,754,B,73.23570748190082,48.10508131002689,3.661785374095041,0.7556328502196007,B,764,Correct
1,relearn,15,755,B,62.851693538378335,36.82999393038587,3.1425846769189167,0.5785241918172846,B,621,Correct
1,relearn,15,756,B,46.362990462888206,22.423056297134597,2.3181495231444105,0.352220544670542,B,939,Correct
1,relearn,15,757,A,19.029561257603593,49.729123594485586,0.9514780628801796,0.7811432467694739,A,864,Correct
1,relearn,15,758,A,59.55137111069922,82.66642488477696,2.977568555534961,1.2985211655827387,A,736,Correct
1,relearn,15,759,A,58.843035762205076,77.91486117594434,2.942151788110254,1.2238837773790767,A,451,Correct
1,relearn,15,760,A,29.208203661330323,48.14311187982986,1.4604101830665162,0.7562302330131249,B,1716,Incorrect
1,relearn,15,761,B,50.32681138450296,30.988702068466903,2.516340569225148,0.48676939381289225,B,1027,Correct
1,relearn,15,762,B,35.5851198927174,12.650697538061436,1.77925599463587,0.19871669224180147,B,804,Correct
1,relearn,15,763,A,64.87492235063947,86.83209873729007,3.2437461175319733,1.36395541744427,A,596,Correct
1,relearn,15,764,B,57.70394633091184,40.834093615761724,2.885197316545592,0.6414204425963745,B,1407,Correct
1,relearn,15,765,B,62.57389647793168,54.56704032609345,3.128694823896584,0.8571370650829657,A,1104,Incorrect
1,relearn,15,766,A,54.042661613876106,79.67415581384407,2.7021330806938058,1.251518712928705,A,1284,Correct
1,relearn,15,767,B,49.379054499062136,30.913665977865847,2.4689527249531067,0.48559072965796035,B,554,Correct
1,relearn,15,768,A,59.88516899313943,71.82035280663254,2.9942584496569715,1.1281514637777192,A,698,Correct
1,relearn,15,769,A,56.61341099794775,72.90398229354666,2.8306705498973876,1.1451730759542327,A,589,Correct
1,relearn,15,770,A,49.45076375250089,58.378109484951125,2.4725381876250445,0.9170011994419154,B,1308,Incorrect
1,relearn,15,771,A,18.54382606758007,44.81768357608143,0.9271913033790036,0.7039945273676468,A,939,Correct
1,relearn,15,772,B,70.37680470910244,39.18549154660396,3.518840235455122,0.6155242618505797,B,867,Correct
1,relearn,15,773,A,46.4734313916866,75.84020449615976,2.32367156958433,1.1912951464594153,A,694,Correct
1,relearn,15,774,A,26.386934121517562,36.97864883645784,1.3193467060758781,0.5808592576214635,A,824,Correct
1,relearn,15,775,A,52.74571015807582,70.88690327963448,2.6372855079037913,1.1134888728951495,A,837,Correct
1,relearn,15,776,B,54.22285177476739,26.755186922722416,2.7111425887383693,0.42026949340923225,B,1100,Correct
1,relearn,15,777,A,13.371370029827087,37.730791692634014,0.6685685014913544,0.5926738899785291,A,670,Correct
1,relearn,15,778,A,49.91872027560425,74.52826160702682,2.4959360137802125,1.1706871957472684,A,1330,Correct
1,relearn,15,779,A,15.560934152612646,36.10650850197201,0.7780467076306323,0.5671597092828633,A,643,Correct
1,relearn,15,780,A,49.433318440707154,69.64392910453545,2.4716659220353576,1.0939642802096847,A,753,Correct
1,relearn,15,781,A,24.61399780667307,45.73801929727106,1.2306998903336535,0.7184511270702747,B,1016,Incorrect
1,relearn,15,782,A,25.403272499585597,44.8515986913133,1.2701636249792798,0.7045272647519372,A,940,Correct
1,relearn,15,783,A,47.830943344905954,76.91253392450912,2.3915471672452977,1.208139257731068,A,796,Correct
1,relearn,15,784,A,47.81247512118468,66.87005506148485,2.390623756059234,1.0503923686315288,A,1700,Correct
1,relearn,15,785,A,31.234139696807148,59.50056838688262,1.5617069848403573,0.9346327426432375,A,705,Correct
1,relearn,15,786,B,53.31123374401962,41.912345104607574,2.665561687200981,0.6583575773767764,B,723,Correct
1,relearn,15,787,B,50.03806898250448,43.27003338853041,2.501903449125224,0.679684095069961,B,564,Correct
1,relearn,15,788,A,22.885256289184277,49.85703038324063,1.1442628144592137,0.7831524019089593,A,775,Correct
1,relearn,15,789,A,41.37708074795384,67.83930522956842,2.068854037397692,1.065617314669239,A,669,Correct
1,relearn,15,790,B,56.65006492480785,44.50797283403028,2.8325032462403925,0.699129602407818,B,772,Correct
1,relearn,15,791,B,70.22745370186867,49.718417594229926,3.5113726850934337,0.7809750773107111,A,3364,Incorrect
1,relearn,15,792,A,68.25361097911214,81.23239786878196,3.4126805489556067,1.2759955218902428,A,1660,Correct
1,relearn,15,793,B,51.60321545135187,22.219928606275744,2.5801607725675932,0.34902982236382785,B,921,Correct
1,relearn,15,794,B,83.5215157847577,58.49570658370712,4.176075789237885,0.9188484103495917,A,1250,Incorrect
1,relearn,15,795,A,61.30404135102959,77.94869441817454,3.0652020675514797,1.2244152287052643,A,964,Correct
1,relearn,15,796,B,33.51574620582252,11.742824603395864,1.6757873102911263,0.1844558575321096,B,1670,Correct
1,relearn,15,797,A,18.27461704891479,39.22339021825016,0.9137308524457396,0.6161195727927022,A,1827,Correct
1,relearn,15,798,B,72.49600468088526,43.91911967331439,3.6248002340442635,0.6898799185890773,B,3117,Correct
1,relearn,15,799,B,81.01856452301583,66.05217164885806,4.050928226150791,1.0375450860285225,A,1274,Incorrect
1,relearn,15,800,A,60.47487401206631,74.07357186848233,3.0237437006033154,1.1635449460358984,B,1415,Incorrect
1,relearn,15,801,A,50.44608720988662,67.43172070906435,2.522304360494331,1.0592149919925764,B,836,Incorrect
1,relearn,15,802,B,42.92393367877024,31.237584277236582,2.1461966839385123,0.49067882640629235,B,762,Correct
1,relearn,15,803,B,68.6708648806008,39.65876864247072,3.43354324403004,0.6229584810880163,B,1143,Correct
1,relearn,15,804,B,47.617547493117435,27.275344969435615,2.3808773746558716,0.4284401169005312,B,846,Correct
1,relearn,15,805,A,24.207314671640937,38.29029743987785,1.210365733582047,0.6014625857044414,A,1503,Correct
1,relearn,15,806,A,36.3813135701994,62.531989146744756,1.8190656785099701,0.9822501885888499,A,1042,Correct
1,relearn,15,807,A,45.55972566395557,77.33547764668357,2.2779862831977784,1.214782842183394,A,813,Correct
1,relearn,15,808,B,76.94614707296063,45.91003737967968,3.8473073536480316,0.7211531807901724,B,1244,Correct
1,relearn,15,809,B,45.89862613377989,30.473922419634405,2.2949313066889947,0.47868325399794376,B,897,Correct
1,relearn,15,810,A,50.777960570735466,70.73593447802565,2.5388980285367735,1.1111174605048717,A,1912,Correct
1,relearn,15,811,B,83.16671051425989,62.642416575659546,4.158335525712994,0.9839847785860175,A,1913,Incorrect
1,relearn,15,812,B,53.36204837002503,26.35420539128177,2.668102418501251,0.41397089024223666,B,997,Correct
1,relearn,15,813,A,13.000224991536157,35.76381751738341,0.6500112495768079,0.5617767318846885,A,721,Correct
1,relearn,15,814,A,38.77950743165977,70.86432736619804,1.9389753715829885,1.1131342512761495,A,644,Correct
1,relearn,15,815,A,31.6750008361945,58.11546760787178,1.583750041809725,0.9128756304841278,A,1173,Correct
1,relearn,15,816,A,39.42185000139673,48.55474629360569,1.9710925000698365,0.7626961712645394,A,887,Correct
1,relearn,15,817,A,68.08141469131361,89.31657178409117,3.4040707345656807,1.4029814288036313,A,1173,Correct
1,relearn,15,818,A,27.0773472138433,51.999080379063756,1.3538673606921652,0.8167996445614593,B,2256,Incorrect
1,relearn,15,819,B,66.29037560463122,43.77869944136098,3.3145187802315608,0.6876742027434761,B,930,Correct
1,relearn,15,820,A,53.21898439142988,77.76959043998966,2.660949219571494,1.2216018699947926,A,1790,Correct
1,relearn,15,821,A,67.97849826983222,84.71209013375852,3.398924913491611,1.3306544001722607,A,1700,Correct
1,relearn,15,822,B,68.75689137304893,51.97694757245947,3.437844568652446,0.8164519832483025,B,1100,Correct
1,relearn,15,823,B,34.84755728690209,23.228869558500563,1.7423778643451044,0.3648782297809048,B,1020,Correct
1,relearn,15,824,A,60.73061137101175,74.14722237514795,3.036530568550587,1.1647018454892675,B,966,Incorrect
1,relearn,15,825,B,76.71936767374066,63.671642601231426,3.835968383687033,1.0001518231901179,B,1261,Correct
1,relearn,15,826,A,42.41482721872802,61.77291004144451,2.120741360936401,0.970326601885326,A,2019,Correct
1,relearn,15,827,A,39.411533020929674,52.37703686275304,1.9705766510464837,0.8227365711241335,A,953,Correct
1,relearn,15,828,A,23.467076893379033,54.30529738655783,1.1733538446689515,0.8530256166030954,A,690,Correct
1,relearn,15,829,B,32.91369026337715,18.890736981864972,1.6456845131688573,0.2967350026156201,B,754,Correct
1,relearn,15,830,A,32.49593533036846,51.808827374724316,1.624796766518423,0.8138111573576784,A,1549,Correct
1,relearn,15,831,A,44.11061985159907,59.798219536039255,2.2055309925799533,0.9393082359608528,A,1737,Correct
1,relearn,15,832,B,54.03944010061584,25.28758290717692,2.7019720050307923,0.39721642344114916,B,667,Correct
1,relearn,15,833,A,65.00410559913762,81.40541251178927,3.250205279956881,1.2787132295474188,A,667,Correct
1,relearn,15,834,A,38.84145881040574,64.10143824287428,1.9420729405202872,1.0069030373417682,A,825,Correct
1,relearn,15,835,A,35.74542917488038,55.86896220462058,1.7872714587440188,0.8775876061286092,B,561,Incorrect
1,relearn,15,836,B,55.39419956531513,22.95610025402898,2.769709978265756,0.3605935795656411,B,595,Correct
1,relearn,15,837,B,56.99618602902975,41.80951054560185,2.849809301451488,0.6567422559012388,B,602,Correct
1,relearn,15,838,B,70.27443349026444,55.85656315814611,3.513721674513222,0.8773928423620306,A,1442,Incorrect
1,relearn,15,839,B,67.67753850436729,51.65047775605776,3.383876925218365,0.8113238073641704,B,670,Correct
1,relearn,15,840,A,53.51389302018532,69.69260414794306,2.675694651009266,1.0947288660035972,A,1089,Correct
1,relearn,15,841,B,58.39216428123161,32.156108275876285,2.9196082140615807,0.5051069676376544,B,653,Correct
1,relearn,15,842,B,60.27053068979404,41.18699443527367,3.013526534489702,0.6469637957064972,B,901,Correct
1,relearn,15,843,B,53.56085511968684,32.30955429179827,2.6780427559843423,0.5075172920193701,B,634,Correct
1,relearn,15,844,A,57.33043810886279,68.63125761908647,2.8665219054431397,1.0780572737137528,A,767,Correct
1,relearn,15,845,B,54.71012640520995,23.70569510456047,2.7355063202604977,0.37236818794363336,B,623,Correct
1,relearn,15,846,A,64.31699955762627,83.1255619498665,3.2158499778813137,1.305733273736119,A,692,Correct
1,relearn,15,847,A,36.90263649998908,63.487689053205145,1.845131824999454,0.9972622876147119,B,1324,Incorrect
1,relearn,15,848,A,13.973623827386731,42.59311387466284,0.6986811913693366,0.6690510682107713,A,695,Correct
1,relearn,15,849,B,33.50821382487828,10.692890847096837,1.6754106912439142,0.16796353665438482,B,759,Correct
1,relearn,15,850,A,50.22315763460452,73.71414611885777,2.511157881730226,1.1578990995632408,A,663,Correct
1,relearn,15,851,B,44.499861012914515,34.56565437192892,2.224993050645726,0.542956029206879,B,625,Correct
1,relearn,15,852,B,83.09251995116796,53.83622636643814,4.154625997558398,0.845657466248996,A,1234,Incorrect
1,relearn,15,853,A,50.68958550266156,70.29891279280629,2.534479275133078,1.1042527399261488,A,769,Correct
1,relearn,15,854,A,20.181556690714846,49.54941016308209,1.0090778345357423,0.7783203147902307,A,875,Correct
1,relearn,15,855,A,24.531634765007265,43.74962517844091,1.2265817382503632,0.687217505289485,A,716,Correct
1,relearn,15,856,A,49.78246087010215,57.516823228194255,2.4891230435051073,0.9034721465575891,B,1726,Incorrect
1,relearn,15,857,B,41.85110551526926,27.36789499811299,2.092555275763463,0.429893889351443,B,613,Correct
1,relearn,15,858,A,29.43897064889997,46.71181311188039,1.4719485324449986,0.7337474445407141,B,684,Incorrect
1,relearn,15,859,B,65.2434177272096,52.98540461000698,3.26217088636048,0.8322927893514036,B,1465,Correct
1,relearn,15,860,B,72.04566832909424,45.14265959009128,3.6022834164547124,0.7090992386586779,B,824,Correct
1,relearn,15,861,B,68.73550473658995,41.41808653109652,3.4367752368294977,0.650593781859196,B,638,Correct
1,relearn,15,862,B,50.337733513655024,24.15519246891118,2.516886675682751,0.37942887603189435,B,699,Correct
1,relearn,15,863,B,81.9993457172364,57.05207810676632,4.09996728586182,0.8961719472612406,A,1079,Incorrect
1,relearn,15,864,B,43.3046550471756,26.422907181860587,2.16523275235878,0.415050055445091,B,612,Correct
1,relearn,15,865,A,24.667795304478403,41.98255701455449,1.23338976522392,0.6594604634791952,A,942,Correct
1,relearn,15,866,A,60.52559189739254,80.92902236046231,3.026279594869627,1.2712301105491626,A,1183,Correct
1,relearn,15,867,B,61.95182851375553,43.49807744543266,3.097591425687776,0.6832662027392556,B,793,Correct
1,relearn,15,868,B,38.78949790041797,15.264503504044498,1.9394748950208986,0.2397742603450093,B,1325,Correct
1,relearn,15,869,B,52.22478989503908,29.607146243113824,2.611239494751954,0.4650679656556252,B,670,Correct
1,relearn,15,870,A,52.76134335017562,67.067514075,2.638067167508781,1.0534940475627503,A,947,Correct
1,relearn,15,871,B,52.239192571776904,24.3703915742988,2.611959628588845,0.3828092156746185,B,583,Correct
1,relearn,15,872,A,41.980330816720794,71.6000125773815,2.0990165408360397,1.1246903675501927,A,611,Correct
1,relearn,15,873,A,17.0801684989433,37.31439527491843,0.854008424947165,0.5861331503441471,A,806,Correct
1,relearn,15,874,A,60.86677999075004,79.73531590217677,3.043338999537502,1.2524794133496997,A,681,Correct
1,relearn,15,875,A,39.207527928115944,61.391198744380596,1.9603763964057972,0.9643306948520851,A,1086,Correct
1,relearn,15,876,A,33.45000493863649,52.77727136185297,1.6725002469318244,0.8290234399345613,B,945,Incorrect
1,relearn,15,877,A,28.593041738989083,41.8534980556573,1.429652086949454,0.6574332100934382,A,697,Correct
1,relearn,15,878,A,19.962607187693546,48.228408214719764,0.9981303593846773,0.7575700647084662,A,613,Correct
1,relearn,15,879,B,55.79412506520037,35.72607219611337,2.789706253260018,0.5611838297646415,B,842,Correct
1,relearn,15,880,A,41.11363293693447,52.72287988149525,2.0556816468467236,0.8281690605590128,A,1150,Correct
1,relearn,15,881,B,68.2072953861848,57.69882257382298,3.41036476930924,0.9063309855935161,A,616,Incorrect
1,relearn,15,882,A,26.51495483808551,43.216288475327815,1.3257477419042756,0.6788398719475356,A,522,Correct
1,relearn,15,883,A,35.635592916762555,58.396194130092596,1.7817796458381279,0.9172852723835115,A,551,Correct
1,relearn,15,884,B,80.85298905280898,68.02199210653275,4.0426494526404495,1.0684869534221308,A,700,Incorrect
1,relearn,15,885,B,77.9854317691165,48.542489805577574,3.8992715884558256,0.7625036468007997,A,418,Incorrect
1,relearn,15,886,B,76.70284957443349,61.06920342289615,3.835142478721674,0.9592728041697559,B,334,Correct
1,relearn,15,887,B,81.73888869632404,65.06407285786638,4.086944434816202,1.0220240665145204,B,487,Correct
1,relearn,15,888,A,44.491531674211025,74.23645823701182,2.2245765837105513,1.166103559129609,A,1049,Correct
1,relearn,15,889,B,47.580028701650996,26.82501003651505,2.3790014350825497,0.42136627231594076,B,663,Correct
1,relearn,15,890,B,55.757998934286334,38.15608601173243,2.7878999467143166,0.5993543975209943,B,732,Correct
1,relearn,15,891,B,66.6281976196763,45.068966544544274,3.331409880983815,0.7079416710061223,B,871,Correct
1,relearn,15,892,A,37.19524535766165,44.852703165779396,1.8597622678830823,0.7045446137962811,B,1462,Incorrect
1,relearn,15,893,B,69.98691944743567,53.159117715197596,3.499345972371783,0.835021468426899,B,474,Correct
1,relearn,15,894,B,63.346824946161874,46.708312184613106,3.1673412473080935,0.7336924521037957,B,528,Correct
1,relearn,15,895,B,79.78734665882371,53.23700887405121,3.9893673329411854,0.8362449798890697,B,1102,Correct
1,relearn,15,896,B,56.32809134298899,44.25272875684355,2.8164045671494495,0.6951202378190073,B,742,Correct
1,relearn,15,897,B,57.262123342013695,46.61735006183003,2.8631061671006846,0.7322636224203447,B,739,Correct
1,relearn,15,898,A,18.737705640595262,40.96426865791619,0.9368852820297632,0.6434652273769407,A,732,Correct
