experiment,condition,subject,trial,cat,x,y,xt,yt,resp,rt,fb
1,relearn,19,0,A,62.55276349981284,71.89610815343475,3.127638174990642,1.1293414259826393,B,3372,Incorrect
1,relearn,19,1,A,18.17489173704604,46.98194579279591,0.908744586852302,0.7379906787700077,A,1758,Correct
1,relearn,19,2,B,56.98121699108713,39.20927565189174,2.8490608495543563,0.6158978617028011,A,2711,Incorrect
1,relearn,19,3,B,59.25721310006877,35.94811220027898,2.9628606550034386,0.5646716259940903,A,1970,Incorrect
1,relearn,19,4,B,59.96828888952076,51.97140242412219,2.998414444476038,0.8163648802619052,B,911,Correct
1,relearn,19,5,B,35.074625576324095,21.372566245376298,1.7537312788162047,0.3357194855241768,A,2507,Incorrect
1,relearn,19,6,B,42.86403775602605,31.25108662697164,2.1432018878013026,0.4908909208199617,B,791,Correct
1,relearn,19,7,B,84.81635223796056,67.41007266256499,4.240817611898028,1.0588749452733417,B,1639,Correct
1,relearn,19,8,A,44.60160814948133,72.41494683036056,2.2300804074740666,1.1374913248617813,B,1127,Incorrect
1,relearn,19,9,B,46.55435084548953,25.95619679794723,2.3277175422744762,0.40771898587780964,A,1512,Incorrect
1,relearn,19,10,B,77.99272554644502,47.88938315281778,3.8996362773222506,0.7522446714891956,B,2043,Correct
1,relearn,19,11,A,30.50110863527565,43.939100507705476,1.5250554317637823,0.6901937768017554,A,2550,Correct
1,relearn,19,12,B,75.36670371060745,50.96468640706196,3.768335185530373,0.8005514220446672,B,1115,Correct
1,relearn,19,13,B,39.45374619720562,19.81472496683409,1.9726873098602808,0.3112489719435411,A,3371,Incorrect
1,relearn,19,14,B,57.34001289368528,41.93190903222886,2.8670006446842637,0.6586648868332283,B,1085,Correct
1,relearn,19,15,B,63.012338175761215,29.78540162269544,3.1506169087880607,0.4678679946104074,B,1178,Correct
1,relearn,19,16,A,47.90710431300511,59.491039751891584,2.3953552156502553,0.9344830671948049,A,1470,Correct
1,relearn,19,17,A,46.03029109751953,69.30880878340342,2.3015145548759763,1.0887002225149995,A,851,Correct
1,relearn,19,18,B,83.0719680690776,54.9831743720773,4.15359840345388,0.8636736833918232,B,2230,Correct
1,relearn,19,19,B,42.969158766290334,21.1748508244485,2.1484579383145164,0.33261377895473593,A,1016,Incorrect
1,relearn,19,20,B,71.04949998808408,60.97720901754414,3.5524749994042044,0.9578277594296297,B,1690,Correct
1,relearn,19,21,A,38.82773115954783,57.8010884287281,1.9413865579773915,0.9079373738859311,A,2267,Correct
1,relearn,19,22,B,52.798686427043705,29.10263562263792,2.6399343213521855,0.45714313136089946,B,757,Correct
1,relearn,19,23,A,22.998182744008947,38.086027822511,1.1499091372004473,0.5982539260580851,A,3109,Correct
1,relearn,19,24,A,36.97949246366515,48.84122077917057,1.8489746231832578,0.7671961019609971,B,1135,Incorrect
1,relearn,19,25,B,69.49345928333719,42.28811365188286,3.4746729641668592,0.6642601359146272,B,573,Correct
1,relearn,19,26,A,29.657124389276674,43.21475253803729,1.4828562194638337,0.6788157455009941,A,658,Correct
1,relearn,19,27,A,26.30106118952875,38.66068563777863,1.3150530594764374,0.6072806299119489,A,498,Correct
1,relearn,19,28,A,42.19827679926197,73.05304816091781,2.1099138399630983,1.1475145971234038,A,1214,Correct
1,relearn,19,29,A,26.042040477360153,48.85337697603035,1.3021020238680077,0.7673870510547485,A,1412,Correct
1,relearn,19,30,B,72.41670054837263,54.229793410817415,3.620835027418632,0.8518396029255808,B,503,Correct
1,relearn,19,31,A,24.908576871790565,44.4251186263681,1.2454288435895282,0.6978281315572655,A,809,Correct
1,relearn,19,32,A,23.936236129564357,42.63036326661485,1.1968118064782178,0.669636180291307,A,683,Correct
1,relearn,19,33,B,48.15191547232511,21.82046893514798,2.407595773616255,0.34275512452272594,A,1775,Incorrect
1,relearn,19,34,B,51.831107644221895,27.7518722012538,2.5915553822110944,0.4359253891541087,B,578,Correct
1,relearn,19,35,A,44.20956610111691,52.2462210699076,2.2104783050558456,0.82068172145525,B,977,Incorrect
1,relearn,19,36,A,27.994787482257017,58.484063162208926,1.3997393741128508,0.918665515912385,A,1117,Correct
1,relearn,19,37,B,52.966785245490506,21.622661758423284,2.648339262274525,0.33964797665659774,A,2033,Incorrect
1,relearn,19,38,A,32.819408108531995,65.656526999486,1.6409704054265999,1.0313303144090258,B,901,Incorrect
1,relearn,19,39,A,67.5538954401958,87.57152803067751,3.37769477200979,1.3755703456240456,B,569,Incorrect
1,relearn,19,40,B,45.45546648357093,36.68689921237219,2.2727733241785466,0.5762764652428882,B,1012,Correct
1,relearn,19,41,B,36.16761464825474,25.5326250866316,1.8083807324127372,0.4010655369951215,A,1078,Incorrect
1,relearn,19,42,A,29.05558429826863,61.04033874434684,1.4527792149134315,0.9588193988593623,A,779,Correct
1,relearn,19,43,A,59.57682202915454,68.42342910884243,2.9788411014577267,1.074792711108807,B,3337,Incorrect
1,relearn,19,44,A,26.59958327193891,51.78652467439437,1.3299791635969456,0.8134608273601196,A,5180,Correct
1,relearn,19,45,A,48.14229955547481,63.10457106862693,2.40711497777374,0.9912442843856668,A,1322,Correct
1,relearn,19,46,B,80.52989150270596,60.477282640253534,4.026494575135298,0.9499749342584702,B,1466,Correct
1,relearn,19,47,A,28.99855036761023,39.045975769233344,1.4499275183805114,0.6133327531443427,A,619,Correct
1,relearn,19,48,B,80.3749662057827,55.89226207449229,4.018748310289135,0.8779535996287019,B,1254,Correct
1,relearn,19,49,B,47.054573139026374,24.678293336385934,2.352728656951319,0.38764572524361995,B,1680,Correct
1,relearn,19,50,B,51.019600520916924,42.784962595462495,2.5509800260458464,0.6720646208700954,B,739,Correct
1,relearn,19,51,A,45.705070598809456,65.13778040282797,2.285253529940473,1.0231818619233477,A,1563,Correct
1,relearn,19,52,B,85.93230082329401,58.02834931017633,4.2966150411647,0.9115071794639615,B,476,Correct
1,relearn,19,53,B,53.665787623090175,27.70612261448249,2.6832893811545087,0.43520675632558103,A,852,Incorrect
1,relearn,19,54,B,79.80142246103075,64.67610225744247,3.9900711230515378,1.0159298385740174,B,477,Correct
1,relearn,19,55,B,67.95297022012977,35.76746333613482,3.3976485110064885,0.5618340002717171,B,562,Correct
1,relearn,19,56,A,43.80045357570896,75.77415743002763,2.1900226787854478,1.1902576815706563,A,756,Correct
1,relearn,19,57,B,35.283259575312286,14.46650925462794,1.7641629787656143,0.2272393959871395,A,755,Incorrect
1,relearn,19,58,A,68.84290356345231,83.91404701500875,3.4421451781726153,1.3181187681767,B,596,Incorrect
1,relearn,19,59,A,46.77051372246517,64.4621394987802,2.3385256861232584,1.0125689194202416,B,3102,Incorrect
1,relearn,19,60,A,20.85770303371031,33.07661797855839,1.0428851516855155,0.5195663002351755,A,684,Correct
1,relearn,19,61,B,61.814370714268826,38.119529151088315,3.0907185357134415,0.598780163696805,B,929,Correct
1,relearn,19,62,B,72.52869275751871,40.931321751844564,3.6264346378759353,0.6429476985865749,B,900,Correct
1,relearn,19,63,B,72.06429797592202,46.83153328656962,3.603214898796101,0.735628004647165,B,974,Correct
1,relearn,19,64,B,74.98565169076977,61.63388927714034,3.7492825845384887,0.9681428688261542,B,628,Correct
1,relearn,19,65,A,28.324648380579525,60.35639261728137,1.4162324190289763,0.9480759982181619,A,770,Correct
1,relearn,19,66,B,74.9643474594084,50.66128608353608,3.74821737297042,0.7957856209072389,B,941,Correct
1,relearn,19,67,B,51.34857561995061,22.118233459074762,2.5674287809975307,0.34743239872706616,B,849,Correct
1,relearn,19,68,B,64.42586368468207,38.947566904920755,3.2212931842341037,0.61178695031848,B,613,Correct
1,relearn,19,69,A,55.90050080792193,66.8981389638734,2.7950250403960966,1.0508335095386687,B,676,Incorrect
1,relearn,19,70,A,57.49130661143358,66.94787275840311,2.874565330571679,1.0516147261563173,B,642,Incorrect
1,relearn,19,71,B,57.21062525591657,28.298676329781685,2.8605312627958286,0.4445145683197876,B,701,Correct
1,relearn,19,72,B,72.32457884421027,60.03702184102804,3.616228942210513,0.9430593337959183,B,1585,Correct
1,relearn,19,73,A,48.414703373758215,62.6773952420835,2.420735168687911,0.9845342221933667,A,2243,Correct
1,relearn,19,74,A,51.190694433490876,62.2711347444773,2.559534721674544,0.9781526972197501,A,625,Correct
1,relearn,19,75,A,51.235999801335126,60.21317026574706,2.5617999900667563,0.9458262667811117,A,862,Correct
1,relearn,19,76,A,39.40899648631618,50.72445257741028,1.9704498243158088,0.7967778378727799,A,800,Correct
1,relearn,19,77,A,45.241212279356745,71.22623640905853,2.2620606139678374,1.1188191052277408,A,665,Correct
1,relearn,19,78,B,33.20349942611986,11.845000695827089,1.660174971305993,0.18606083583888183,A,740,Incorrect
1,relearn,19,79,A,23.18150625051203,49.673127752748016,1.1590753125256015,0.7802636661443021,A,2922,Correct
1,relearn,19,80,B,76.0983640263166,51.56227848929722,3.8049182013158305,0.8099383765216359,B,605,Correct
1,relearn,19,81,B,64.46563360387594,36.67074147198704,3.2232816801937973,0.5760226600504252,B,684,Correct
1,relearn,19,82,A,61.124469177809544,82.12401046967089,3.0562234588904773,1.2900009398742467,A,1625,Correct
1,relearn,19,83,B,48.18666974720311,38.5404173999083,2.4093334873601555,0.6053914608491808,B,1109,Correct
1,relearn,19,84,B,82.92769794292404,63.3076015504343,4.146384897146202,0.9944334797361708,B,627,Correct
1,relearn,19,85,A,35.63397367899851,54.93289871660325,1.7816986839499254,0.8628839552423647,A,1101,Correct
1,relearn,19,86,B,55.05895020019884,31.828780101990095,2.752947510009942,0.4999653087056854,B,1238,Correct
1,relearn,19,87,B,82.4883875075333,63.591794952628895,4.1244193753766645,0.9988975792588373,B,758,Correct
1,relearn,19,88,A,13.570705285667174,34.40463602823281,0.6785352642833586,0.5404267589786346,A,854,Correct
1,relearn,19,89,A,47.43282456552342,58.81584941575046,2.3716412282761707,0.9238772021958258,A,968,Correct
1,relearn,19,90,B,55.123376180168776,26.75773144935525,2.7561688090084386,0.42030946274011516,B,1203,Correct
1,relearn,19,91,B,44.86965189288529,31.797188982605107,2.2434825946442642,0.49946907656279255,B,817,Correct
1,relearn,19,92,B,52.84812756045364,34.80156897686621,2.6424063780226823,0.5466617671556067,B,617,Correct
1,relearn,19,93,B,42.62592366378625,27.520738623519975,2.1312961831893125,0.43229475140507617,B,775,Correct
1,relearn,19,94,A,68.35217045995492,82.43035259809137,3.4176085229977455,1.2948129507749009,B,1084,Incorrect
1,relearn,19,95,B,70.57621472997349,43.2971647018256,3.528810736498674,0.680110272742613,A,575,Incorrect
1,relearn,19,96,B,58.71185680555397,38.9480782958975,2.9355928402776987,0.6117949832291583,B,523,Correct
1,relearn,19,97,B,74.8735259953912,45.14333199339153,3.7436762997695605,0.7091098007450195,B,645,Correct
1,relearn,19,98,B,40.30792861725109,19.9415897595408,2.0153964308625545,0.3132417594473741,A,895,Incorrect
1,relearn,19,99,B,32.94941878098004,15.641164765063682,1.6474709390490019,0.2456908415975579,B,712,Correct
1,relearn,19,100,A,30.807608563292042,41.1468898278301,1.540380428164602,0.6463338340058982,B,760,Incorrect
1,relearn,19,101,A,50.95616453311175,72.54908277503866,2.5478082266555875,1.139598327353696,A,3186,Correct
1,relearn,19,102,A,60.023255694540175,74.07357719686739,3.0011627847270086,1.163545029733975,B,1336,Incorrect
1,relearn,19,103,A,59.563149664195564,83.35690907218395,2.9781574832097784,1.3093672658356275,B,871,Incorrect
1,relearn,19,104,B,71.85231303485918,58.8080699383502,3.592615651742959,0.9237550024505787,B,923,Correct
1,relearn,19,105,B,83.77646309500544,60.16041924891418,4.188823154750272,0.9449976557463539,B,688,Correct
1,relearn,19,106,B,62.788024538851595,29.71997018166288,3.1394012269425797,0.466840199938099,B,667,Correct
1,relearn,19,107,A,44.99709043694539,71.00398811319363,2.24985452184727,1.1153280371599306,A,743,Correct
1,relearn,19,108,A,52.59187591876044,80.47392916112085,2.6295937959380216,1.2640815232904132,A,655,Correct
1,relearn,19,109,B,49.82252396924436,35.78624827001414,2.4911261984622177,0.5621290733230844,A,727,Incorrect
1,relearn,19,110,B,83.34565149063468,58.72009528573693,4.167282574531734,0.9223730998388189,B,565,Correct
1,relearn,19,111,A,39.09779881638111,46.463029231192294,1.9548899408190552,0.7298395564812077,A,826,Correct
1,relearn,19,112,B,67.59007712782014,35.39654740382231,3.3795038563910067,0.5560076664314552,B,599,Correct
1,relearn,19,113,B,56.4956875770264,33.328253476737636,2.82478437885132,0.5235189813974871,B,497,Correct
1,relearn,19,114,A,33.89571291961739,66.6083466296272,1.6947856459808692,1.0462814621969965,A,1586,Correct
1,relearn,19,115,A,22.74344791856863,40.04445761665238,1.1371723959284317,0.6290168693273147,A,1265,Correct
1,relearn,19,116,A,16.504057415424512,46.36884257071326,0.8252028707712256,0.7283600758780722,A,973,Correct
1,relearn,19,117,B,47.46739125449814,33.388823566741344,2.373369562724907,0.5244704141464018,A,2813,Incorrect
1,relearn,19,118,A,46.69489098890325,77.16113783069316,2.3347445494451624,1.2120443187576755,A,1336,Correct
1,relearn,19,119,A,27.272263659080842,40.60246027334833,1.363613182954042,0.6377819545621126,A,874,Correct
1,relearn,19,120,A,49.98498605540264,71.10523858280713,2.4992493027701324,1.116918475817482,A,3049,Correct
1,relearn,19,121,B,86.69241869383744,66.40208198690414,4.3346209346918725,1.0430414647656259,B,720,Correct
1,relearn,19,122,B,78.85554787278497,53.44683255355761,3.9427773936392487,0.839540882539502,B,455,Correct
1,relearn,19,123,A,42.03788580468743,55.287648216563994,2.1018942902343714,0.8684563473570714,B,2390,Incorrect
1,relearn,19,124,A,39.58263826808459,70.70157373150147,1.9791319134042293,1.1105777231606107,A,665,Correct
1,relearn,19,125,B,71.47073256192152,51.9261188374133,3.5735366280960763,0.815653567345241,B,661,Correct
1,relearn,19,126,A,52.19342087513106,77.7885812094218,2.609671043756553,1.2219001763034627,A,1107,Correct
1,relearn,19,127,A,15.216257538936961,34.17434469866025,0.7608128769468481,0.5368093512327816,A,750,Correct
1,relearn,19,128,B,81.24925655965653,59.889397744476994,4.062462827982826,0.9407404599098302,B,590,Correct
1,relearn,19,129,A,39.95594063070993,51.523558422976045,1.9977970315354967,0.8093301631421301,B,1484,Incorrect
1,relearn,19,130,B,47.32765637582407,24.46451335914344,2.3663828187912035,0.38428767721367196,A,1020,Incorrect
1,relearn,19,131,A,56.04042128165328,67.69791618392031,2.802021064082664,1.0633963807337081,B,1926,Incorrect
1,relearn,19,132,B,48.58787359154762,37.88139008603499,2.429393679577381,0.5950394840102837,B,1191,Correct
1,relearn,19,133,A,64.31548132814163,78.55143022955659,3.2157740664070813,1.2338829806907308,A,942,Correct
1,relearn,19,134,A,12.767390744009536,39.69918897015319,0.6383695372004767,0.6235934021105309,A,1327,Correct
1,relearn,19,135,B,64.21367390765295,51.31972619460106,3.2106836953826474,0.8061283739859918,B,1030,Correct
1,relearn,19,136,B,57.13191650073299,38.32729211896929,2.8565958250366497,0.6020436967647195,B,776,Correct
1,relearn,19,137,B,44.39557739402602,16.206596140412262,2.219778869701301,0.25457261687207927,A,1128,Incorrect
1,relearn,19,138,B,83.91188979261767,54.11821402218794,4.195594489630883,0.8500869179875287,B,4496,Correct
1,relearn,19,139,A,32.21322755496869,59.25994906727992,1.6106613777484344,0.9308531032093595,A,816,Correct
1,relearn,19,140,B,34.76355879881892,16.36555069525719,1.7381779399409458,0.25706946918085666,A,1164,Incorrect
1,relearn,19,141,A,55.52331418139886,62.92798611896914,2.776165709069943,0.9884704944827696,B,1866,Incorrect
1,relearn,19,142,A,40.60693639535726,65.9426808812299,2.0303468197678627,1.03582520907244,A,1628,Correct
1,relearn,19,143,A,54.87867979980091,62.60925332006264,2.7439339899900457,0.9834638513852558,B,1129,Incorrect
1,relearn,19,144,B,40.06103983464402,31.220149205096327,2.003051991732201,0.4904049569335392,A,1700,Incorrect
1,relearn,19,145,A,49.56337395401395,80.66527799500163,2.4781686977006974,1.2670872237443775,B,3445,Incorrect
1,relearn,19,146,B,62.56386513296677,36.05292294784168,3.1281932566483386,0.5663179893668915,B,440,Correct
1,relearn,19,147,B,37.87348600769491,13.065785570879722,1.8936743003847454,0.2052368798142763,A,626,Incorrect
1,relearn,19,148,B,40.37284227810964,32.037765801977955,2.0186421139054818,0.5032480484046212,A,4336,Incorrect
1,relearn,19,149,A,48.30429835294777,62.705690566050066,2.4152149176473885,0.9849786841028885,B,677,Incorrect
1,relearn,19,150,B,59.661346401303284,50.019543125302306,2.9830673200651643,0.7857051460918378,B,405,Correct
1,relearn,19,151,B,66.19603596428956,40.29519610448617,3.309801798214478,0.632955460284069,B,807,Correct
1,relearn,19,152,A,29.081375600557813,58.241611963895515,1.4540687800278906,0.9148571013950076,A,640,Correct
1,relearn,19,153,A,33.09492450827488,51.459255866450576,1.654746225413744,0.8083201009461931,A,502,Correct
1,relearn,19,154,B,64.00981294974514,44.57431347750234,3.200490647487257,0.7001716787986493,B,954,Correct
1,relearn,19,155,B,84.34609654122193,58.0134435255777,4.217304827061096,0.9112730399470064,B,675,Correct
1,relearn,19,156,B,37.58132187616507,16.04058717334601,1.8790660938082535,0.2519649541152525,A,2473,Incorrect
1,relearn,19,157,B,73.47774103537748,46.91685595520729,3.6738870517688738,0.7369682499920488,B,556,Correct
1,relearn,19,158,B,71.79130949563981,49.843762962079836,3.58956547478199,0.7829439977447052,B,887,Correct
1,relearn,19,159,A,19.226490359733006,48.095156765802045,0.9613245179866503,0.7554769558434659,A,2459,Correct
1,relearn,19,160,A,46.80672450165022,57.262608852006935,2.340336225082511,0.8994789564742542,B,1936,Incorrect
1,relearn,19,161,A,24.63559351611353,44.40348431654162,1.2317796758056765,0.6974883006131839,A,848,Correct
1,relearn,19,162,A,48.095843761157255,55.82138439470372,2.4047921880578627,0.8768402556380657,B,1881,Incorrect
1,relearn,19,163,B,55.7800109101999,29.679847696499465,2.7890005455099947,0.46620995741493326,B,1005,Correct
1,relearn,19,164,B,48.82166531410418,41.47075368740302,2.441083265705209,0.6514210756158857,B,773,Correct
1,relearn,19,165,B,45.35657154288722,37.88513514503105,2.267828577144361,0.5950983112594301,B,1327,Correct
1,relearn,19,166,A,48.35820645535519,68.18121129819437,2.417910322767759,1.0709879626363041,A,2362,Correct
1,relearn,19,167,A,27.266436840816894,59.0651389452051,1.3633218420408446,0.9277930329675835,A,2330,Correct
1,relearn,19,168,A,38.09092932344883,70.509918115636,1.9045464661724418,1.1075672037864996,A,2520,Correct
1,relearn,19,169,A,62.6212988179559,88.44178681500571,3.131064940897795,1.389240338641883,B,1728,Incorrect
1,relearn,19,170,A,20.10686016269189,35.71166433889684,1.0053430081345944,0.5609575116727145,A,908,Correct
1,relearn,19,171,A,14.035925040183464,42.31506906792278,0.7017962520091732,0.6646835505996544,A,2933,Correct
1,relearn,19,172,A,13.706147974185804,41.091781195313374,0.6853073987092901,0.6454681896305785,A,586,Correct
1,relearn,19,173,B,67.2900112809725,39.451035662549046,3.3645005640486247,0.619695419069865,B,917,Correct
1,relearn,19,174,A,21.04435999168161,48.3531840234422,1.0522179995840804,0.7595300385286069,A,737,Correct
1,relearn,19,175,B,65.8162186723927,39.209000444073496,3.2908109336196345,0.6158935387485012,B,518,Correct
1,relearn,19,176,B,72.82430405466394,40.48421401726577,3.6412152027331968,0.6359245467149953,B,680,Correct
1,relearn,19,177,B,41.27135438268292,18.641704610396943,2.063567719134146,0.29282321127207006,A,1400,Incorrect
1,relearn,19,178,A,14.566196174377158,34.52968615575142,0.7283098087188579,0.5423910417883492,A,701,Correct
1,relearn,19,179,B,66.20692440470157,37.696338439335065,3.310346220235078,0.5921326995412478,B,1025,Correct
1,relearn,19,180,B,34.86452640575905,17.710393032549565,1.7432263202879525,0.27819420321622784,B,1074,Correct
1,relearn,19,181,A,19.222044857219018,35.53778567406544,0.9611022428609509,0.5582262319924629,A,1800,Correct
1,relearn,19,182,A,25.774942958448015,37.227311595724274,1.2887471479224006,0.5847652431101276,A,1243,Correct
1,relearn,19,183,B,43.260915708095254,30.578161780438517,2.1630457854047624,0.4803206420485291,B,1085,Correct
1,relearn,19,184,A,28.900727636877974,55.54895387849729,1.4450363818438987,0.8725609270964267,A,1194,Correct
1,relearn,19,185,A,55.687274206629844,66.14778872047522,2.784363710331492,1.0390470354772736,B,496,Incorrect
1,relearn,19,186,A,16.650466275915534,38.348470147975426,0.8325233137957767,0.6023763604664355,A,757,Correct
1,relearn,19,187,A,20.264663443063352,33.27322946640233,1.0132331721531675,0.5226546662642849,A,522,Correct
1,relearn,19,188,A,14.579855978171395,41.46357309521934,0.7289927989085697,0.6513082831376223,A,539,Correct
1,relearn,19,189,B,49.76430520737101,37.0227481071768,2.4882152603685506,0.5815519673460603,B,1018,Correct
1,relearn,19,190,A,41.670437383508855,50.598538713905384,2.0835218691754425,0.7947999875299195,B,548,Incorrect
1,relearn,19,191,A,45.36148077459496,59.20774563297885,2.2680740387297478,0.9300330935808976,B,854,Incorrect
1,relearn,19,192,B,68.12741079647326,48.6498359710078,3.406370539823663,0.7641898364243329,B,768,Correct
1,relearn,19,193,A,32.98551371790363,54.20830180979477,1.6492756858951816,0.8515020136461476,A,888,Correct
1,relearn,19,194,B,49.110296965150766,37.16020585003178,2.4555148482575384,0.5837111485217215,B,1041,Correct
1,relearn,19,195,A,50.60793274943747,66.78745747912886,2.530396637471873,1.0490949288418594,A,907,Correct
1,relearn,19,196,B,47.87849359421303,30.98318037360309,2.393924679710652,0.4866826592327947,B,867,Correct
1,relearn,19,197,A,23.711148792181323,34.707983719825535,1.185557439609066,0.5451917333755902,A,782,Correct
1,relearn,19,198,B,41.57024190340201,26.390037253424378,2.0785120951701,0.4145337358165949,A,1092,Incorrect
1,relearn,19,199,A,44.986435050632195,56.083399342586446,2.2493217525316096,0.880955976815061,B,914,Incorrect
1,relearn,19,200,A,59.107625058544265,86.79640116556084,2.955381252927213,1.3633946812987923,B,1509,Incorrect
1,relearn,19,201,B,41.57609341045003,29.540745458235055,2.0788046705225014,0.4640249445657864,107,1363,Incorrect
1,relearn,19,202,B,31.480806144744655,15.891378815434834,1.5740403072372329,0.24962119470991273,A,867,Incorrect
1,relearn,19,203,A,30.719722730916693,61.74027631092727,1.5359861365458345,0.9698139924450653,A,1508,Correct
1,relearn,19,204,A,30.939781524852826,47.508682153886724,1.5469890762426415,0.746264634181915,A,3026,Correct
1,relearn,19,205,A,22.032401017762247,52.555156397544145,1.1016200508881124,0.8255344662339366,A,650,Correct
1,relearn,19,206,B,77.51783445157486,46.9685824430203,3.875891722578743,0.7377807677625956,B,764,Correct
1,relearn,19,207,A,25.0414858420231,45.04219904511325,1.252074292101155,0.7075212081082849,A,3452,Correct
1,relearn,19,208,A,12.762336715434635,40.726018050027804,0.6381168357717317,0.6397227955796633,A,686,Correct
1,relearn,19,209,A,57.86161421640615,85.70645260508144,2.893080710820308,1.346273809346828,B,2431,Incorrect
1,relearn,19,210,A,30.78466842851509,58.529035914671475,1.5392334214257546,0.9193719462561254,A,2208,Correct
1,relearn,19,211,A,10.286415022906489,31.70171748104115,0.5143207511453245,0.49796941372309,A,2822,Correct
1,relearn,19,212,B,38.758107861666446,26.33310215678263,1.9379053930833223,0.41363940140988925,A,2019,Incorrect
1,relearn,19,213,B,51.99919167594368,25.94634766595176,2.599959583797184,0.40756427607420365,B,714,Correct
1,relearn,19,214,A,58.09094887767059,85.18021731310175,2.9045474438835295,1.338007724710113,B,3173,Incorrect
1,relearn,19,215,B,66.6759821754934,43.26896019154417,3.33379910877467,0.6796672373311218,B,780,Correct
1,relearn,19,216,A,12.85527287187837,33.29338349998845,0.6427636435939185,0.5229712450835567,A,776,Correct
1,relearn,19,217,A,49.72938033380925,74.47169459249245,2.4864690166904624,1.169798643160785,B,2143,Incorrect
1,relearn,19,218,A,51.42536842786721,61.2736806765019,2.571268421393361,0.962484725358526,B,750,Incorrect
1,relearn,19,219,A,30.970108510113686,64.09528499032336,1.5485054255056843,1.0068063822767201,A,1267,Correct
1,relearn,19,220,A,17.933697835942574,46.30913323727824,0.8966848917971287,0.7274221638617211,A,1421,Correct
1,relearn,19,221,B,36.74650471843873,13.938349354502545,1.8373252359219365,0.21894307967636617,107,4244,Correct
1,relearn,19,222,B,66.63448036927055,34.21142935504182,3.331724018463527,0.537391875653028,B,1064,Correct
1,relearn,19,223,A,38.59661196056657,64.84522527098726,1.9298305980283286,1.0185864166585439,A,707,Correct
1,relearn,19,224,B,46.80689879000819,26.41456286032257,2.3403449395004094,0.4149189831488759,B,691,Correct
1,relearn,19,225,B,42.5761176917254,19.333854845392388,2.1288058845862703,0.30369548173928074,B,615,Correct
1,relearn,19,226,B,83.39581156507637,55.34918344759175,4.169790578253819,0.8694229405057402,B,897,Correct
1,relearn,19,227,B,67.75576514501294,57.00379272342397,3.3877882572506475,0.8954134822333202,B,475,Correct
1,relearn,19,228,A,65.59415913573497,84.66427066282591,3.2797079567867486,1.3299032536793587,A,760,Correct
1,relearn,19,229,B,85.3178504353637,61.56450473644891,4.265892521768185,0.9670529790096095,B,642,Correct
1,relearn,19,230,B,72.32156096964623,44.325561585772306,3.6160780484823114,0.6962642932205212,B,467,Correct
1,relearn,19,231,A,62.881838827070865,78.58913977787556,3.144091941353543,1.2344753208905763,A,740,Correct
1,relearn,19,232,B,61.00221896964124,40.26432023130799,3.050110948482062,0.6324704632023203,B,575,Correct
1,relearn,19,233,A,49.161116984178975,59.938403004245934,2.458055849208949,0.941510232730217,A,556,Correct
1,relearn,19,234,A,45.683898194787865,70.32225928505716,2.2841949097393934,1.1046194657688608,A,615,Correct
1,relearn,19,235,B,66.77654237094583,49.095284414585954,3.3388271185472918,0.7711869242138236,B,571,Correct
1,relearn,19,236,B,56.76117519845806,35.929198582910146,2.8380587599229035,0.5643745315871966,B,510,Correct
1,relearn,19,237,B,74.82111476962338,58.04375612492804,3.741055738481169,0.9117491891441576,B,1465,Correct
1,relearn,19,238,B,70.24843848974294,51.81144633455209,3.512421924487147,0.8138522958824532,B,538,Correct
1,relearn,19,239,A,60.215769860062295,84.87314697958371,3.010788493003115,1.3331842751905347,A,655,Correct
1,relearn,19,240,A,27.642581176108656,37.78555994500316,1.3821290588054327,0.5935341876749933,A,748,Correct
1,relearn,19,241,A,27.064400580866746,37.27662232614247,1.3532200290433372,0.5855398142522522,A,500,Correct
1,relearn,19,242,B,41.81480911766681,16.882018921525038,2.0907404558833407,0.2651821331081347,A,952,Incorrect
1,relearn,19,243,B,55.87541375962168,44.1520408033147,2.793770687981084,0.6935386351434512,B,1434,Correct
1,relearn,19,244,A,40.76760099433797,48.624604400257034,2.0383800497168982,0.7637934998377872,B,723,Incorrect
1,relearn,19,245,A,12.493524083497675,30.307995097951952,0.6246762041748838,0.4760768737238065,A,524,Correct
1,relearn,19,246,A,32.238014014078374,43.88730019289487,1.6119007007039188,0.6893800993594421,A,449,Correct
1,relearn,19,247,A,36.0749820600601,66.09671620984354,1.803749103003005,1.0382447903562693,A,1064,Correct
1,relearn,19,248,A,26.820636896438486,48.8116510163291,1.3410318448219243,0.7667316212124413,A,542,Correct
1,relearn,19,249,B,42.374033865755415,16.177094296266276,2.118701693287771,0.2541092029878974,B,1206,Correct
1,relearn,19,250,A,33.32656490628947,47.857179712656325,1.6663282453144734,0.7517388210340379,A,955,Correct
1,relearn,19,251,B,69.00795446110361,51.731776057550384,3.4503977230551808,0.8126008380977632,B,616,Correct
1,relearn,19,252,B,62.27828200669652,37.537116738642446,3.113914100334826,0.5896316509153078,B,822,Correct
1,relearn,19,253,A,37.63080853837544,56.548161425954945,1.881540426918772,0.888256442548949,A,822,Correct
1,relearn,19,254,B,75.29099817931353,50.98398865645241,3.7645499089656767,0.8008546210690812,B,495,Correct
1,relearn,19,255,B,82.30791724284842,64.96391968317606,4.115395862142421,1.0204508641253163,A,744,Incorrect
1,relearn,19,256,B,71.09576722311724,47.52784647085452,3.554788361155862,0.7465656665689006,B,478,Correct
1,relearn,19,257,B,58.98151655168985,48.55867720440033,2.9490758275844926,0.7627579178669112,B,770,Correct
1,relearn,19,258,A,17.90691383501332,48.34160043812147,0.8953456917506659,0.7593480839958777,A,612,Correct
1,relearn,19,259,A,36.18229692947501,65.11053320024949,1.8091148464737503,1.0227538638660907,A,399,Correct
1,relearn,19,260,B,40.57908770842934,14.718356538235536,2.028954385421467,0.2311954038671803,B,2189,Correct
1,relearn,19,261,B,77.13328661925206,65.8731780713646,3.8566643309626034,1.0347334614880566,B,849,Correct
1,relearn,19,262,A,29.78650380732728,54.72256766217099,1.489325190366364,0.8595800827652337,A,465,Correct
1,relearn,19,263,A,32.40873109654598,53.771338326290554,1.620436554827299,0.8446382072978285,A,1742,Correct
1,relearn,19,264,A,33.180117773493,48.12527751504596,1.6590058886746502,0.7559500914661922,A,541,Correct
1,relearn,19,265,A,58.904261411940055,86.40501434178566,2.9452130705970028,1.3572467914473727,B,1445,Incorrect
1,relearn,19,266,B,61.830178350338585,38.20282582092679,3.0915089175169292,0.6000885847269704,B,607,Correct
1,relearn,19,267,A,35.9634213622349,64.22412375158963,1.7981710681117449,1.0088301768061785,A,1110,Correct
1,relearn,19,268,B,62.44783964472238,43.42912402016987,3.1223919822361186,0.6821830848680284,B,1139,Correct
1,relearn,19,269,A,21.783011648148126,45.31118223792477,1.0891505824074061,0.7117463862206639,A,579,Correct
1,relearn,19,270,B,53.66137341447852,26.778429612004185,2.683068670723926,0.4206345887187186,B,1145,Correct
1,relearn,19,271,B,38.595921003721756,23.958810662399447,1.9297960501860876,0.3763441178287145,B,1639,Correct
1,relearn,19,272,A,24.999360534774674,49.82129389318231,1.2499680267387336,0.7825910544357978,A,1238,Correct
1,relearn,19,273,A,51.1003454572019,58.353098657796565,2.555017272860095,0.9166083302876705,B,1084,Incorrect
1,relearn,19,274,B,74.4713412946585,45.280528416329716,3.723567064732925,0.7112648771170266,B,1094,Correct
1,relearn,19,275,A,29.599430337558466,43.392624419833055,1.4799715168779233,0.6816097504866429,A,614,Correct
1,relearn,19,276,A,36.339659021065756,64.25800639691727,1.8169829510532878,1.009362404154406,A,521,Correct
1,relearn,19,277,A,64.70482676982044,76.77709127016686,3.235241338491022,1.2060117294917463,B,1091,Incorrect
1,relearn,19,278,B,67.45237276101031,46.48699261087336,3.3726186380505156,0.7302159723690137,A,2466,Incorrect
1,relearn,19,279,A,55.36908800297816,71.95692721244836,2.768454400148908,1.130296769527616,B,81,Incorrect
1,relearn,19,280,A,14.292942458455993,37.53048140269789,0.7146471229227997,0.5895274233020201,A,1091,Correct
1,relearn,19,281,A,38.7869839962254,65.75904875471936,1.93934919981127,1.032940722374397,A,512,Correct
1,relearn,19,282,B,52.76094157746546,33.11941868670505,2.638047078873273,0.5202386121865855,B,1523,Correct
1,relearn,19,283,B,45.732175961024296,38.40037440351672,2.2866087980512146,0.6031916706059283,B,598,Correct
1,relearn,19,284,A,59.845810392019814,81.59372670569482,2.992290519600991,1.2816712619881208,B,1970,Incorrect
1,relearn,19,285,B,53.481533124197256,29.113969752315597,2.674076656209863,0.4573211674535506,B,639,Correct
1,relearn,19,286,B,83.51261679426902,53.30505216124099,4.175630839713452,0.8373138013448771,B,839,Correct
1,relearn,19,287,B,76.02767466293761,44.51101072034451,3.8013837331468805,0.6991773214144542,B,580,Correct
1,relearn,19,288,A,22.830621184447832,45.918448504146056,1.1415310592223917,0.7212853024243324,A,587,Correct
1,relearn,19,289,B,75.9004190959825,50.66244063823887,3.795020954799125,0.795803756610101,B,982,Correct
1,relearn,19,290,B,66.07374076945008,34.83672977778278,3.303687038472504,0.5472140717248758,B,3163,Correct
1,relearn,19,291,B,38.101583898267606,23.50784087606092,1.9050791949133805,0.36926030098995416,A,800,Incorrect
1,relearn,19,292,B,54.24691191779828,27.730772234552624,2.712345595889914,0.43559395165221165,B,584,Correct
1,relearn,19,293,A,62.06111038850014,72.48309721880368,3.103055519425007,1.1385618286601418,B,1098,Incorrect
1,relearn,19,294,A,18.375056061662878,37.97539714762998,0.9187528030831439,0.5965161434807456,A,837,Correct
1,relearn,19,295,B,55.62397187549066,38.37880212275306,2.781198593774533,0.6028528140120868,B,663,Correct
1,relearn,19,296,A,15.873317460323527,32.66791291852394,0.7936658730161764,0.5131463761647296,A,1902,Correct
1,relearn,19,297,A,47.204922905024134,60.84713422004385,2.3602461452512067,0.9557845492884094,A,990,Correct
1,relearn,19,298,B,40.602236758900844,31.404956798763195,2.0301118379450425,0.4933079078264964,B,772,Correct
1,relearn,19,299,A,30.698256336491916,51.973882086309246,1.5349128168245958,0.8164038307044563,A,717,Correct
1,relearn,19,300,B,65.31308187025766,51.92326502639804,3.265654093512883,0.8156087397866397,100,947,Incorrect
1,relearn,19,301,A,29.464282142821126,51.65444950975614,1.4732141071410565,0.8113861955253737,A,1019,Correct
1,relearn,19,302,B,71.35013171256793,57.47646843796898,3.5675065856283963,0.9028382549950449,B,1289,Incorrect
1,relearn,19,303,A,43.0406902180449,58.32130381163889,2.1520345109022454,0.9161088980121158,A,1649,Incorrect
1,relearn,19,304,A,51.34723749406392,77.44334374409738,2.5673618747031957,1.216477198879427,107,2344,Incorrect
1,relearn,19,305,A,57.984421126512274,72.66249266639534,2.8992210563256138,1.1413797657613491,B,736,Correct
1,relearn,19,306,A,49.12075151693573,66.56384429212795,2.4560375758467865,1.0455824211142202,B,1314,Correct
1,relearn,19,307,B,59.6989961217379,49.40966970727677,2.984949806086895,0.7761252768433942,107,2482,Incorrect
1,relearn,19,308,B,76.82997417468606,58.25091188293672,3.841498708734303,0.9150031841817019,B,813,Incorrect
1,relearn,19,309,B,65.18792090218952,52.74440701558271,3.2593960451094754,0.8285072079905229,A,570,Incorrect
1,relearn,19,310,B,61.975186666978615,39.39580508990181,3.098759333348931,0.6188278592634545,B,1659,Incorrect
1,relearn,19,311,B,39.381979714943185,26.668160936694925,1.9690989857471592,0.41890249241735533,B,1027,Correct
1,relearn,19,312,B,61.00539930051611,27.89862312401689,3.0502699650258056,0.43823054725840893,B,1362,Incorrect
1,relearn,19,313,B,42.117739054739985,23.912472216255164,2.1058869527369994,0.3756162352187863,A,1424,Incorrect
1,relearn,19,314,B,34.748732153522994,18.93259825462893,1.7374366076761498,0.297392557950546,B,578,Correct
1,relearn,19,315,B,45.23039369811106,16.245113148622725,2.261519684905553,0.2551776406222405,B,880,Incorrect
1,relearn,19,316,B,89.12351254156974,68.3189707127944,4.456175627078487,1.0731518824606554,107,1047,Incorrect
1,relearn,19,317,A,24.347517252050352,39.444390042489886,1.2173758626025175,0.619591029914083,A,587,Correct
1,relearn,19,318,B,53.84481332908279,37.739090643480736,2.6922406664541394,0.5928042495935919,B,3333,Correct
1,relearn,19,319,B,54.54123726564865,27.91281124006357,2.727061863282432,0.43845341366411156,B,1145,Correct
1,relearn,19,320,B,57.45139536917051,44.25289089853428,2.872569768458526,0.6951227847347295,A,943,Incorrect
1,relearn,19,321,A,44.49457320297709,64.8443501236718,2.224728660148854,1.0185726698766584,B,3802,Correct
1,relearn,19,322,A,42.212640460584154,52.66149028711577,2.1106320230292077,0.8272047550654655,107,4456,Incorrect
1,relearn,19,323,B,43.988001424247464,28.3511366291601,2.199400071212373,0.4453386127754493,B,646,Incorrect
1,relearn,19,324,A,61.075270882372465,70.83776109860865,3.0537635441186235,1.112716949320689,A,667,Correct
1,relearn,19,325,A,27.103154795422416,55.18886222423863,1.3551577397711208,0.8669046206182366,B,805,Correct
1,relearn,19,326,A,15.181003283809531,33.277476478383534,0.7590501641904766,0.5227213781724843,A,746,Correct
1,relearn,19,327,B,72.49968260664397,45.41079624512597,3.624984130332199,0.7133111193867536,B,740,Incorrect
1,relearn,19,328,A,58.31913985302723,80.36799190987884,2.9159569926513615,1.2624174648391964,B,997,Incorrect
1,relearn,19,329,B,38.7595422528348,28.247296994107764,1.9379771126417398,0.44370750360229,B,730,Incorrect
1,relearn,19,330,B,77.07459944650061,52.18048013115958,3.8537299723250307,0.8196490652041954,B,1691,Incorrect
1,relearn,19,331,A,30.218664481433237,44.6546450771977,1.5109332240716618,0.7014335246159197,B,1686,Correct
1,relearn,19,332,B,53.64212971696812,24.388884140393408,2.682106485848406,0.38309969622356277,A,831,Correct
1,relearn,19,333,B,53.8760226627393,44.64688359348798,2.6938011331369647,0.7013116075149024,B,891,Incorrect
1,relearn,19,334,A,34.88862845721382,49.48076400275262,1.744431422860691,0.7772420234252896,A,839,Incorrect
1,relearn,19,335,B,43.6580219416771,28.02379146137131,2.182901097083855,0.44019668690388236,B,619,Incorrect
1,relearn,19,336,A,46.3156924114532,63.74082417322966,2.3157846205726598,1.0012385247818851,A,1664,Correct
1,relearn,19,337,B,31.872952897033688,16.012051337593885,1.5936476448516845,0.25151671425543787,B,2752,Incorrect
1,relearn,19,338,B,44.10060935548168,28.910000727224613,2.205030467774084,0.4541172294996221,107,816,Incorrect
1,relearn,19,339,A,35.31605119351577,45.573828090587526,1.7658025596757883,0.7158720176267696,A,592,Incorrect
1,relearn,19,340,B,42.62496162719869,23.721341519736963,2.131248081359934,0.37261396125850094,A,634,Incorrect
1,relearn,19,341,A,22.198200743898,35.296362963235865,1.1099100371949,0.5544339729187032,B,640,Incorrect
1,relearn,19,342,A,25.186487204816746,49.573045917162645,1.2593243602408373,0.7786915843471383,A,454,Correct
1,relearn,19,343,B,53.47372832280661,27.47320828600529,2.67368641614033,0.4315481466092822,B,616,Correct
1,relearn,19,344,B,69.36386629860235,53.34550387248218,3.4681933149301174,0.8379492153391794,B,565,Correct
1,relearn,19,345,B,54.104766246756355,40.351098412392574,2.705238312337818,0.6338335716832564,B,801,Correct
1,relearn,19,346,A,19.506012417789822,48.164150979262274,0.9753006208894911,0.7565607144142,A,555,Incorrect
1,relearn,19,347,B,87.69915769249481,69.02864975696323,4.384957884624741,1.0842994948184927,B,4984,Correct
1,relearn,19,348,A,45.367286545536395,65.7061313977084,2.2683643272768195,1.0321094984742318,108,4207,Correct
1,relearn,19,349,A,41.210230515018935,53.188030822804244,2.0605115257509468,0.8354756344591465,A,961,Correct
1,relearn,19,350,A,34.03569326310679,56.43332062730676,1.7017846631553397,0.8864525275021212,B,900,Incorrect
1,relearn,19,351,A,42.31089550151797,74.79140701696407,2.1155447750758984,1.1748206741806921,107,610,Incorrect
1,relearn,19,352,A,32.957193366219975,42.007972444524384,1.6478596683109987,0.6598596881196013,B,1881,Correct
1,relearn,19,353,B,54.0305952869226,23.0342265958564,2.70152976434613,0.3618207852733255,A,1090,Correct
1,relearn,19,354,A,43.11875079846714,61.81135985920727,2.155937539923357,0.970930570210403,B,603,Incorrect
1,relearn,19,355,A,43.826448916549026,62.04703227679706,2.1913224458274514,0.9746325038891721,A,1096,Correct
1,relearn,19,356,A,45.06679654328353,64.6371379005932,2.2533398271641767,1.0153177878878699,A,774,Correct
1,relearn,19,357,B,40.53471730336949,13.35913190921461,2.0267358651684746,0.20984475332162802,B,705,Incorrect
1,relearn,19,358,B,63.115115221375,32.77947419993995,3.1557557610687503,0.5148987766753375,A,1047,Correct
1,relearn,19,359,A,28.055921992739442,41.31630744949631,1.4027960996369722,0.6489950397839742,A,1590,Correct
1,relearn,19,360,A,41.83750909575195,52.774312212030274,2.0918754547875973,0.8289769577178422,A,1411,Incorrect
1,relearn,19,361,A,42.96549187413106,63.58160381550693,2.148274593706553,0.9987374972512666,B,598,Correct
1,relearn,19,362,B,45.16467228010346,25.76269890100952,2.2582336140051726,0.4046795280202867,A,983,Correct
1,relearn,19,363,B,73.18415848444943,47.951899715256516,3.6592079242224713,0.7532266793556218,B,1015,Incorrect
1,relearn,19,364,A,44.58113794839794,71.37671508511026,2.229056897419897,1.1211828187437707,A,621,Correct
1,relearn,19,365,B,81.61542590774187,67.31902828436401,4.080771295387093,1.0574448235248073,A,718,Correct
1,relearn,19,366,A,42.93541800310687,54.52953281285281,2.146770900155343,0.8565478984427097,B,1182,Correct
1,relearn,19,367,A,17.074580440377357,44.567263844372576,0.8537290220188679,0.7000609434203944,A,671,Correct
1,relearn,19,368,B,70.83201403356387,42.01153499427556,3.541600701678193,0.659915648520233,B,1114,Incorrect
1,relearn,19,369,B,80.11215655675849,67.58302844197819,4.005607827837924,1.0615917283033436,A,535,Correct
1,relearn,19,370,A,42.24790699689795,61.61231943138904,2.1123953498448973,0.9678040504813972,A,828,Correct
1,relearn,19,371,A,59.70092286094157,82.7185996095005,2.9850461430470783,1.2993407242422115,B,671,Correct
1,relearn,19,372,A,27.50686802242511,41.48889086143029,1.3753434011212555,0.6517059736792905,A,756,Incorrect
1,relearn,19,373,B,50.51102669589457,38.82021370675348,2.5255513347947285,0.6097864909596126,B,1070,Incorrect
1,relearn,19,374,A,15.710512313752577,39.66797808561593,0.7855256156876288,0.6231031426826595,A,699,Correct
1,relearn,19,375,A,32.89420916604513,43.644362378713595,1.6447104583022565,0.6855640410978869,B,665,Incorrect
1,relearn,19,376,B,71.24434386913362,55.238537354552385,3.562217193456681,0.8676849157405357,A,648,Incorrect
1,relearn,19,377,B,57.28003065050393,41.56507036208581,2.8640015325251964,0.6529025984773582,100,1648,Incorrect
1,relearn,19,378,B,59.02489945601361,45.52640569393446,2.9512449728006804,0.7151271083620652,B,699,Correct
1,relearn,19,379,A,21.76539312824348,48.33598909527713,1.088269656412174,0.759259941228595,B,1044,Correct
1,relearn,19,380,B,46.89852129352833,33.34834026276957,2.3449260646764167,0.5238345038946479,A,1343,Incorrect
1,relearn,19,381,B,66.96559709355934,51.827574413408534,3.348279854677967,0.814105635152713,B,538,Correct
1,relearn,19,382,A,31.181030013343563,52.21982617057501,1.5590515006671781,0.8202671113460724,A,1007,Correct
1,relearn,19,383,B,69.6231352416996,44.19581408618481,3.4811567620849804,0.6942262242628926,B,7212,Incorrect
1,relearn,19,384,B,68.26529200602714,43.1685899572109,3.413264600301357,0.6780906253770194,B,6398,Incorrect
1,relearn,19,385,A,43.62106390105919,65.19058807535536,2.1810531950529595,1.0240113629036738,B,7278,Incorrect
1,relearn,19,386,B,73.43454832221656,56.400661553780374,3.6717274161108278,0.8859395199748036,A,461,Correct
1,relearn,19,387,B,77.02784524707812,65.42024011532854,3.851392262353906,1.0276187287119822,B,2471,Incorrect
1,relearn,19,388,B,55.61849767527754,35.18878893286573,2.780924883763877,0.5527442040010639,107,797,Incorrect
1,relearn,19,389,A,42.91510987345877,58.976343782975675,2.1457554936729384,0.9263982418209123,B,617,Correct
1,relearn,19,390,B,44.23176663040142,21.162545309702853,2.211588331520071,0.3324204843811181,B,870,Correct
1,relearn,19,391,A,38.97232582634478,71.79077102780586,1.9486162913172391,1.1276867942825093,A,3872,Correct
1,relearn,19,392,B,68.75056673666502,42.72152126805906,3.437528336833251,0.6710680868295722,B,555,Correct
1,relearn,19,393,B,54.241811543897214,36.498643146395864,2.7120905771948607,0.5733193458735635,B,517,Correct
1,relearn,19,394,B,67.04288893706081,52.19916052823527,3.3521444468530404,0.8199424961952911,B,760,Correct
1,relearn,19,395,B,67.30474053018632,44.0698707735842,3.365237026509316,0.6922479113347184,B,391,Correct
1,relearn,19,396,B,74.06099444591166,47.94718347049783,3.703049722295583,0.7531525967561896,B,355,Incorrect
1,relearn,19,397,B,56.492527791041546,33.740962490384796,2.8246263895520776,0.5300017994242082,A,863,Correct
1,relearn,19,398,B,46.351618967606846,25.67982058964005,2.3175809483803422,0.40337767854958545,B,1198,Correct
1,relearn,19,399,A,63.13546038277319,83.05707102746314,3.15677301913866,1.3046574208428192,A,638,Correct
1,relearn,19,400,A,24.127337254819324,38.32412312693112,1.2063668627409663,0.6019939183541876,B,707,Correct
1,relearn,19,401,B,35.761253700545225,20.796506788498405,1.7880626850272614,0.32667076473538426,A,1684,Correct
1,relearn,19,402,A,42.171212219513244,74.77149561384964,2.1085606109756623,1.1745079065919575,A,1444,Correct
1,relearn,19,403,B,55.847787186497584,23.74664601434298,2.7923893593248796,0.3730114433302862,107,721,Incorrect
1,relearn,19,404,A,34.62808520229214,48.459633486128254,1.7314042601146071,0.7612021427783723,B,1804,Correct
1,relearn,19,405,B,42.106569992823424,18.074532089984434,2.105328499641171,0.2839140861548403,107,1237,Incorrect
1,relearn,19,406,B,53.64967880490235,39.716066451082625,2.6824839402451177,0.623858512961026,B,1059,Correct
1,relearn,19,407,A,25.32385123103193,50.64364063404264,1.2661925615515965,0.7955084468347495,107,667,Incorrect
1,relearn,19,408,A,55.7233894758601,78.65781292111207,2.7861694737930054,1.2355540361020299,100,1460,Incorrect
1,relearn,19,409,A,45.079708146862245,73.32415585468704,2.2539854073431123,1.151773146818789,B,531,Incorrect
1,relearn,19,410,B,43.27274026405618,24.668700448617933,2.163637013202809,0.38749504051492667,B,1512,Incorrect
1,relearn,19,411,B,84.22173542484856,61.46571462312403,4.211086771242428,0.9655011875382659,B,1508,Incorrect
1,relearn,19,412,A,43.20363696583996,73.46347593073851,2.160181848291998,1.1539615814558937,A,680,Correct
1,relearn,19,413,A,56.66041767686775,67.83233851613139,2.8330208838433872,1.0655078817904717,B,2760,Incorrect
1,relearn,19,414,A,20.989548499405036,45.72912982992883,1.0494774249702516,0.7183114916437914,A,580,Incorrect
1,relearn,19,415,B,75.49439314035033,56.32017956336994,3.774719657017516,0.884675311825705,B,563,Incorrect
1,relearn,19,416,B,76.4815669695868,59.5792230061018,3.8240783484793393,0.935868246512787,A,422,Incorrect
1,relearn,19,417,B,56.145468714255436,44.374728836433135,2.8072734357127715,0.6970366105878875,B,611,Incorrect
1,relearn,19,418,A,53.55784553411168,76.95271431166564,2.6778922767055837,1.2087704097766145,B,970,Incorrect
1,relearn,19,419,A,22.21911716379703,43.2004669615761,1.1109558581898513,0.6785913481906801,A,760,Incorrect
1,relearn,19,420,A,34.33207474471097,53.915112849314056,1.7166037372355487,0.8468966122243485,A,729,Incorrect
1,relearn,19,421,B,77.68101246846362,59.10672265183653,3.884050623423181,0.9284462283038953,B,793,Correct
1,relearn,19,422,B,61.54138911964133,48.21858873878118,3.077069455982066,0.7574158207411125,B,680,Incorrect
1,relearn,19,423,A,30.021251402865488,49.143455048766754,1.5010625701432745,0.7719435867661294,A,727,Incorrect
1,relearn,19,424,A,56.81238113757119,84.0826498388164,2.8406190568785594,1.320767175139943,B,587,Correct
1,relearn,19,425,B,72.29360867135881,42.53816576255163,3.6146804335679406,0.6681879452840853,B,715,Incorrect
1,relearn,19,426,B,83.49547615327324,62.97050726155821,4.174773807663662,0.9891384150286701,B,614,Incorrect
1,relearn,19,427,A,26.202227531290212,41.29930204305775,1.3101113765645107,0.6487279194842809,A,708,Incorrect
1,relearn,19,428,B,69.14969303252445,47.94443636333711,3.4574846516262228,0.753109445297816,B,650,Incorrect
1,relearn,19,429,B,60.6544603624307,51.91276154716647,3.032723018121535,0.8154437515206843,107,876,Incorrect
1,relearn,19,430,A,20.056472841890795,46.9643196001584,1.0028236420945398,0.7377138071835038,B,826,Correct
1,relearn,19,431,A,44.22992305912455,56.923265508492065,2.2114961529562276,0.8941485636990996,B,822,Incorrect
1,relearn,19,432,B,57.02096223124863,33.63426531481112,2.8510481115624318,0.528325804109503,B,827,Incorrect
1,relearn,19,433,B,46.99942775154774,20.314179106010304,2.349971387577387,0.3190943792157462,B,863,Incorrect
1,relearn,19,434,A,36.65964087486661,51.85343725363404,1.8329820437433306,0.81451188769698,B,589,Correct
1,relearn,19,435,B,49.109421594043,27.515143753344226,2.45547107970215,0.4322068673898666,A,564,Incorrect
1,relearn,19,436,B,71.03969233143552,56.876737819496626,3.551984616571776,0.8934177084694167,A,606,Correct
1,relearn,19,437,A,38.07864185113036,69.47010665627505,1.9039320925565177,1.0912338835772653,B,499,Correct
1,relearn,19,438,B,44.518737487977056,35.56180024058365,2.225936874398853,0.5586034519212267,B,658,Correct
1,relearn,19,439,B,73.24594123916614,55.72870034790638,3.662297061958307,0.8753843780354483,A,1201,Incorrect
1,relearn,19,440,B,85.5874263378752,66.2042382256142,4.2793713168937595,1.0399337422304906,B,530,Incorrect
1,relearn,19,441,B,45.28982756561008,18.664797442564446,2.2644913782805043,0.2931859526315101,A,1389,Correct
1,relearn,19,442,A,60.99309716205259,81.88455081001943,3.0496548581026297,1.2862395163362859,B,1823,Incorrect
1,relearn,19,443,A,46.80502723114742,77.74931021426248,2.340251361557371,1.2212833089540045,A,882,Incorrect
1,relearn,19,444,A,67.96350295547485,82.23022038196662,3.3981751477737423,1.29166928127528,B,624,Correct
1,relearn,19,445,B,79.97826513758802,62.23232374886628,3.9989132568794012,0.9775430555262997,A,942,Incorrect
1,relearn,19,446,A,27.72737547966571,45.97975146762026,1.3863687739832855,0.7222482471228017,B,594,Correct
1,relearn,19,447,A,36.02815026840686,55.3063142783319,1.801407513420343,0.8687495531696787,B,668,Correct
1,relearn,19,448,B,48.778442035028505,31.749407957828335,2.438922101751425,0.4987185339806941,B,812,Correct
1,relearn,19,449,B,87.51016188445112,65.33235316948503,4.375508094222556,1.02623820379494,A,709,Correct
1,relearn,19,450,B,43.631520365450456,30.91483611070102,2.181576018272523,0.4856091100615539,A,469,Correct
1,relearn,19,451,A,48.16384605102653,54.980158947567126,2.4081923025513263,0.8636263172143801,107,769,Incorrect
1,relearn,19,452,B,40.280013679119996,16.04451629583596,2.014000683956,0.25202667262699985,B,618,Correct
1,relearn,19,453,B,59.642872152807655,45.131613994192215,2.9821436076403827,0.7089257348440229,B,339,Correct
1,relearn,19,454,A,29.820000248984805,54.67481669170817,1.4910000124492402,0.8588300122751951,B,458,Incorrect
1,relearn,19,455,A,23.33556093146287,38.916992987202164,1.1667780465731434,0.6113066963419991,A,489,Correct
1,relearn,19,456,A,62.63936635548825,76.194815678056,3.1319683177744126,1.1968653658790458,B,933,Correct
1,relearn,19,457,B,68.20441864009605,35.203802793692496,3.4102209320048025,0.5529800411754409,A,570,Correct
1,relearn,19,458,A,21.012890113339402,47.97049126281292,1.0506445056669702,0.7535187147017322,B,438,Incorrect
1,relearn,19,459,A,35.767222502496,47.712400011466755,1.7883611251248,0.7494646268058076,A,426,Incorrect
1,relearn,19,460,A,49.75631403673294,56.81075479950053,2.487815701836647,0.8923812496150098,B,750,Correct
1,relearn,19,461,B,55.75438434954213,35.258719101535476,2.787719217477106,0.5538426645218498,A,572,Incorrect
1,relearn,19,462,A,60.59703023850629,75.33998315732366,3.029851511925315,1.1834376880431337,B,504,Incorrect
1,relearn,19,463,A,55.321781815054706,80.24967196447491,2.766089090752735,1.2605588994829258,107,1226,Incorrect
1,relearn,19,464,B,36.369754603421796,15.851959418200583,1.8184877301710898,0.2490019962661124,B,678,Incorrect
1,relearn,19,465,A,25.67539614344218,45.32319570732102,1.283769807172109,0.7119350933566608,A,336,Correct
1,relearn,19,466,A,67.75934541149006,85.6749940757606,3.387967270574503,1.3457796599237926,B,685,Incorrect
1,relearn,19,467,A,28.258283981606958,50.95527964555297,1.4129141990803478,0.8004036609804135,A,477,Correct
1,relearn,19,468,B,63.908967914945904,51.72573056358881,3.1954483957472952,0.8125058757006782,B,395,Incorrect
1,relearn,19,469,B,35.27977990824276,14.832579798076633,1.7639889954121377,0.23298961863710968,A,422,Correct
1,relearn,19,470,B,71.68111694163122,48.54064287068124,3.5840558470815607,0.7624746352152899,B,476,Correct
1,relearn,19,471,A,34.03314567579252,61.28733941507908,1.701657283789626,0.962699276322383,B,344,Correct
1,relearn,19,472,B,85.12702384714888,67.5768872649379,4.256351192357443,1.0614952629199728,B,3807,Correct
1,relearn,19,473,B,84.51907365012138,59.31671571487711,4.22595368250607,0.9317447916246611,A,794,Correct
1,relearn,19,474,A,14.102429046890165,34.28852540051206,0.7051214523445083,0.5386028975033784,B,1175,Correct
1,relearn,19,475,A,54.626123914664944,78.29035415888401,2.7313061957332474,1.2297820073624657,A,486,Correct
1,relearn,19,476,A,28.716639062172597,57.88155792678008,1.4358319531086297,0.9092013858055217,B,407,Incorrect
1,relearn,19,477,B,48.53075598005691,22.162405352328978,2.4265377990028454,0.3481262492037791,B,716,Correct
1,relearn,19,478,B,66.98899726135801,55.32658762944155,3.3494498630679006,0.8690680062242274,A,498,Incorrect
1,relearn,19,479,A,21.990629049219976,49.64410405343705,1.0995314524609987,0.7798077629416256,B,836,Correct
1,relearn,19,480,B,65.09317434899143,34.20827687200255,3.254658717449571,0.5373423565652442,A,1284,Correct
1,relearn,19,481,A,32.10406196826262,45.067243756161005,1.605203098413131,0.7079146095094794,B,1025,Correct
1,relearn,19,482,A,51.12821161391189,65.50515944974045,2.5564105806955943,1.028952638497663,107,1425,Incorrect
1,relearn,19,483,A,45.42354634112944,59.59167482892485,2.271177317056472,0.9360638392883105,B,639,Incorrect
1,relearn,19,484,B,40.99333947435541,18.043549781702925,2.0496669737177706,0.2834274171943981,A,998,Incorrect
1,relearn,19,485,A,47.589876246731265,76.05046067875645,2.379493812336563,1.1945978428525035,B,2362,Correct
1,relearn,19,486,B,37.98142914762144,17.02811306670377,1.899071457381072,0.2674769745742646,A,2234,Incorrect
1,relearn,19,487,A,20.559290161626922,51.9243479104865,1.027964508081346,0.8156257496901246,B,860,Incorrect
1,relearn,19,488,A,46.20693721598779,71.64030611470709,2.31034686079939,1.1253232969544387,B,904,Incorrect
1,relearn,19,489,B,62.43092547696022,39.16991656497124,3.121546273848011,0.615279610611194,A,3341,Correct
1,relearn,19,490,B,62.18136396794481,35.489536048444265,3.1090681983972406,0.5574683286455131,B,554,Incorrect
1,relearn,19,491,B,54.8726220473344,24.900907918928016,2.74363110236672,0.39114254692910083,A,1071,Incorrect
1,relearn,19,492,B,39.60926565188261,17.035077275509042,1.9804632825941304,0.2675863681103682,B,495,Incorrect
1,relearn,19,493,A,34.410451386666374,44.86549583174283,1.7205225693333188,0.7047455605233337,B,767,Correct
1,relearn,19,494,B,72.51770073993956,47.839831173032536,3.6258850369969777,0.7514663108108751,B,2838,Correct
1,relearn,19,495,B,32.35088739316093,12.641804950072647,1.6175443696580465,0.19857700779631654,A,2170,Incorrect
1,relearn,19,496,B,52.37918622319332,22.6119258490094,2.6189593111596663,0.35518730065382537,B,569,Incorrect
1,relearn,19,497,A,20.84064937491681,36.274000134387364,1.0420324687458404,0.5697906616925326,B,903,Incorrect
1,relearn,19,498,A,29.106395051254086,45.760624002945235,1.4553197525627044,0.7188062009566875,A,665,Correct
1,relearn,19,499,A,38.9223621297212,53.80373548322658,1.94611810648606,0.8451471006489655,107,3479,Correct
1,relearn,19,500,A,35.55597136712303,52.48877909626504,1.7777985683561512,0.8244918140236186,B,1252,Incorrect
1,relearn,19,501,B,32.059177573524025,14.760221064197179,1.6029588786762015,0.23185301030321584,B,1027,Correct
1,relearn,19,502,A,23.627965381066762,49.085983658161354,1.181398269053338,0.7710408282735416,A,805,Correct
1,relearn,19,503,A,25.566468834301332,54.20625520742321,1.2783234417150666,0.851469865691271,A,858,Correct
1,relearn,19,504,A,27.940950921130035,57.087073423672805,1.3970475460565017,0.896721652413758,B,1198,Incorrect
1,relearn,19,505,A,19.770237621427277,41.041646348877634,0.9885118810713638,0.6446806733043217,B,1128,Correct
1,relearn,19,506,B,42.9972039461215,28.310505993732527,2.149860197306075,0.4447003882465995,B,852,Incorrect
1,relearn,19,507,B,57.974105205326346,38.50335694676997,2.8987052602663175,0.6048093166125903,B,579,Correct
1,relearn,19,508,B,31.104986320010635,12.288457981767298,1.5552493160005318,0.19302664659733498,B,1285,Correct
1,relearn,19,509,A,50.087496994264505,64.37448106688352,2.5043748497132254,1.0111919839918824,A,691,Correct
1,relearn,19,510,A,35.382982285865985,50.07254970366875,1.7691491142932991,0.7865377714777774,B,660,Correct
1,relearn,19,511,B,53.89375552332222,33.576625673625166,2.694687776166111,0.5274204027429763,B,1058,Incorrect
1,relearn,19,512,A,29.155776950065075,57.36452372872624,1.4577888475032537,0.9010798316142187,A,779,Correct
1,relearn,19,513,A,18.455612429426328,47.739424362339655,0.9227806214713163,0.7498891243166592,B,578,Incorrect
1,relearn,19,514,A,40.05110149043216,71.03734067369761,2.002555074521608,1.115851937955219,A,484,Incorrect
1,relearn,19,515,A,21.30339616430419,36.23423715397303,1.0651698082152095,0.5691660662567599,B,807,Correct
1,relearn,19,516,A,24.757233737338808,46.41191318517802,1.2378616868669403,0.7290366275080127,B,1062,Correct
1,relearn,19,517,B,78.15948507395188,48.298704283572285,3.9079742536975943,0.7586742727758827,B,592,Correct
1,relearn,19,518,A,54.31994991356463,77.8044752408396,2.7159974956782316,1.222149839165153,B,573,Incorrect
1,relearn,19,519,B,66.82264653828122,42.10916553393617,3.341132326914061,0.661449225451052,B,1108,Incorrect
1,relearn,19,520,B,32.680922369726545,14.118053650723024,1.6340461184863273,0.2217658681604901,B,1640,Incorrect
1,relearn,19,521,A,53.65390810855331,69.51673298145808,2.6826954054276655,1.0919662881805599,B,646,Correct
1,relearn,19,522,B,84.66270574245262,59.192998747241134,4.23313528712263,0.9298014500414129,A,525,Correct
1,relearn,19,523,B,75.95785896941324,55.5014987103077,3.7978929484706616,0.8718155030576303,B,528,Incorrect
1,relearn,19,524,B,63.691724223955006,36.807664132090835,3.1845862111977503,0.5781734361658855,B,2835,Correct
1,relearn,19,525,B,82.297128773137,53.683994320311115,4.11485643865685,0.8432662108602279,B,1373,Incorrect
1,relearn,19,526,B,76.55771274378992,61.28467174219428,3.827885637189496,0.9626573726146975,A,471,Correct
1,relearn,19,527,A,41.18274535108053,69.68114147561795,2.0591372675540267,1.094548810767762,A,4501,Correct
1,relearn,19,528,A,20.00480121004465,47.854379794369414,1.0002400605022326,0.7516948400204341,A,961,Incorrect
1,relearn,19,529,A,30.27120094907115,56.01010740739443,1.5135600474535575,0.879804709789228,B,1281,Correct
1,relearn,19,530,B,67.14857578518219,56.93739045913696,3.3574287892591093,0.8943704379049913,A,780,Correct
1,relearn,19,531,A,43.24923295290257,50.748679333843505,2.162461647645128,0.7971583908729345,B,5157,Incorrect
1,relearn,19,532,A,66.10658124838564,88.01275753692367,3.3053290624192817,1.3825011625008954,A,1336,Correct
1,relearn,19,533,A,69.43096430261045,85.16556267260549,3.4715482151305226,1.3377775301554928,B,2590,Correct
1,relearn,19,534,A,63.26785792711425,87.91131664338263,3.1633928963557127,1.3809077326712849,B,502,Correct
1,relearn,19,535,B,56.58102958385475,41.629358547965076,2.8290514791927377,0.6539124349397126,A,677,Correct
1,relearn,19,536,B,62.83379181964251,51.33222232585726,3.1416895909821254,0.8063246627567557,107,1725,Incorrect
1,relearn,19,537,A,37.771984855037815,54.03606665237834,1.888599242751891,0.8487965501200009,B,847,Incorrect
1,relearn,19,538,A,39.76085542180701,61.56165625190044,1.9880427710903503,0.9670082351189528,A,535,Correct
1,relearn,19,539,B,40.98459554725219,20.44981714766609,2.0492297773626094,0.3212249765918118,B,568,Correct
1,relearn,19,540,A,30.800308974394675,48.625993033613305,1.5400154487197337,0.7638153124395402,B,596,Correct
1,relearn,19,541,B,62.32310899899324,44.740566584883005,3.1161554499496624,0.7027831765025672,B,587,Correct
1,relearn,19,542,A,53.502192264641806,80.69460561709502,2.67510961323209,1.2675479009549568,A,1478,Incorrect
1,relearn,19,543,B,62.44319556562666,34.23912985178643,3.122159778281333,0.5378269940383962,B,757,Correct
1,relearn,19,544,A,50.69095669372464,73.83504610900131,2.534547834686232,1.1597981921675107,B,923,Incorrect
1,relearn,19,545,B,83.66851339974399,63.12524421080744,4.183425669987199,0.9915690173436714,B,1515,Incorrect
1,relearn,19,546,B,55.793898252110985,29.381341096282544,2.7896949126055492,0.46152102670348555,B,701,Correct
1,relearn,19,547,B,53.822475285645055,25.819087404732674,2.6911237642822528,0.40556527656550456,107,602,Incorrect
1,relearn,19,548,B,55.79081679422515,32.32640587764769,2.789540839711258,0.5077819961108994,B,1137,Correct
1,relearn,19,549,B,41.0169221659245,18.775948916150405,2.050846108296225,0.2949319158957768,A,938,Correct
1,relearn,19,550,A,46.20300717295136,71.76548733477438,2.310150358647568,1.1272896389610927,B,459,Incorrect
1,relearn,19,551,B,62.58766932199352,33.42777418528614,3.129383466099676,0.5250822490317674,B,634,Incorrect
1,relearn,19,552,B,56.34825038980183,27.86639936749014,2.8174125194900914,0.4377243776745314,A,722,Correct
1,relearn,19,553,B,68.6942234366496,36.83287286265253,3.43471117183248,0.5785694139795802,B,552,Correct
1,relearn,19,554,A,40.46796478634823,57.763417974871125,2.0233982393174115,0.9073456477804587,A,596,Correct
1,relearn,19,555,B,75.76164436235325,52.94949376517927,3.7880822181176628,0.8317287031199286,107,511,Incorrect
1,relearn,19,556,B,67.6538564239492,53.44875259320759,3.38269282119746,0.8395710424517967,A,607,Incorrect
1,relearn,19,557,B,53.37838391359274,28.565262164378858,2.668919195679637,0.4487020888173955,107,559,Incorrect
1,relearn,19,558,B,52.00786793302581,22.95146185315918,2.6003933966512904,0.3605207197351563,B,899,Correct
1,relearn,19,559,B,55.273488723792084,35.10925826977011,2.763674436189604,0.5514949392664823,B,2203,Incorrect
1,relearn,19,560,B,56.43348561512301,26.913629398652716,2.8216742807561506,0.42275830200122827,A,535,Correct
1,relearn,19,561,B,67.0972999808103,48.44140375934269,3.3548649990405153,0.7609157908996399,B,584,Correct
1,relearn,19,562,A,46.90399835772432,63.6692843821674,2.345199917886216,1.000114780371682,A,1300,Correct
1,relearn,19,563,B,38.132625030408775,12.220608026762783,1.9066312515204387,0.19196086199639203,107,659,Incorrect
1,relearn,19,564,B,40.124277036944775,25.209594253175617,2.0062138518472388,0.3959913805287799,107,820,Incorrect
1,relearn,19,565,A,53.09534828508588,61.600727585452574,2.654767414254294,0.9676219661912197,B,994,Correct
1,relearn,19,566,A,41.923779329518645,73.57515002801078,2.0961889664759323,1.1557157540738277,B,2708,Incorrect
1,relearn,19,567,A,32.851653017187864,62.066410703757484,1.642582650859393,0.9749368995080572,A,884,Incorrect
1,relearn,19,568,B,63.691062976093086,48.08559911797387,3.1845531488046546,0.7553268246624528,B,305,Incorrect
1,relearn,19,569,A,36.488372962052686,48.68240495060364,1.8244186481026343,0.764701428759499,A,480,Incorrect
1,relearn,19,570,B,49.60059163227336,20.437177604143088,2.480029581613668,0.32102643510642886,B,683,Correct
1,relearn,19,571,B,49.30618157739358,38.54520323500311,2.4653090788696788,0.6054666365710565,B,663,Correct
1,relearn,19,572,B,71.04466692023458,55.95418540220203,3.552233346011729,0.8789262889857956,B,1980,Incorrect
1,relearn,19,573,A,55.381018957097794,63.867985932619604,2.7690509478548897,1.00323597702747,B,656,Correct
1,relearn,19,574,A,46.664882564307455,76.95585484189691,2.3332441282153726,1.2088197411101291,B,651,Incorrect
1,relearn,19,575,B,56.77612700765023,34.92131211419336,2.838806350382512,0.5485426879583306,A,2140,Incorrect
1,relearn,19,576,A,23.487886311060844,52.70752572806704,1.1743943155530423,0.8279278780809521,B,1281,Incorrect
1,relearn,19,577,B,47.450843513954794,32.63701727793994,2.3725421756977396,0.5126610685772963,B,664,Incorrect
1,relearn,19,578,A,46.50163741467545,70.75222369559414,2.3250818707337726,1.1113733309361011,B,798,Incorrect
1,relearn,19,579,A,63.115987639433754,75.51508693629435,3.1557993819716876,1.1861882117712845,B,1001,Incorrect
1,relearn,19,580,A,14.24488649680002,38.764716614561614,0.712244324840001,0.6089147446739849,B,510,Incorrect
1,relearn,19,581,A,58.173423684532054,68.99406993972829,2.908671184226603,1.0837563163195538,A,454,Correct
1,relearn,19,582,B,43.50384768242873,26.705011933401025,2.1751923841214365,0.41948134652000213,B,700,Correct
1,relearn,19,583,A,18.22892482165687,32.881335183102905,0.9114462410828437,0.5164988052572984,A,692,Incorrect
1,relearn,19,584,B,56.326113063487774,38.23504877761433,2.8163056531743886,0.600594741747003,B,522,Incorrect
1,relearn,19,585,B,66.17656663023457,45.511760497806634,3.3088283315117284,0.7148970621592373,A,589,Incorrect
1,relearn,19,586,A,16.121301926918175,33.067491336594514,0.8060650963459088,0.5194229392784473,B,738,Incorrect
1,relearn,19,587,A,28.476582107041047,45.01168815664126,1.4238291053520524,0.7070419441928943,A,1472,Correct
1,relearn,19,588,A,51.435094674551316,82.00569433114524,2.5717547337275657,1.2881424343162802,A,223,Incorrect
1,relearn,19,589,B,58.116557495779396,27.768952159652528,2.90582787478897,0.43619368051325397,A,736,Correct
1,relearn,19,590,A,51.870185309065654,75.20054394455653,2.5935092654532825,1.181247382010876,A,447,Correct
1,relearn,19,591,B,59.08184339575722,34.890567470978915,2.9540921697878613,0.5480597522320318,A,542,Correct
1,relearn,19,592,B,48.77440569459895,30.468224892522887,2.4387202847299476,0.4785937574513578,A,314,Incorrect
1,relearn,19,593,A,38.516924380975944,45.693403571359156,1.9258462190487973,0.7177503048864777,B,1856,Correct
1,relearn,19,594,B,35.79446308803109,17.144796457408177,1.7897231544015542,0.2693098329894292,B,836,Correct
1,relearn,19,595,A,52.17512056025827,60.53272311760097,2.6087560280129134,0.9508457912402013,A,618,Incorrect
1,relearn,19,596,A,58.42285820754492,80.33859790073663,2.9211429103772457,1.2619557448232928,A,882,Correct
1,relearn,19,597,B,65.50822828461051,55.964230431710135,3.275411414230525,0.8790840759403344,A,1327,Correct
1,relearn,19,598,B,79.8356671270301,58.24979989388093,3.991783356351505,0.9149857170984592,A,311,Incorrect
1,relearn,19,599,B,52.69902822183238,27.21649768573355,2.6349514110916186,0.42751574592972064,B,544,Correct
1,relearn,19,600,B,32.566486771464184,12.903644025051083,1.6283243385732091,0.20268996636819156,B,250,Correct
1,relearn,19,601,A,14.168870509854603,39.178844264543756,0.7084435254927302,0.6154198465881463,B,2342,Incorrect
1,relearn,19,602,A,30.716508460965173,59.33559714438505,1.5358254230482586,0.9320413804258177,B,730,Incorrect
1,relearn,19,603,A,43.66337287779027,51.14052758811739,2.1831686438895135,0.8033135288576787,A,534,Correct
1,relearn,19,604,A,32.675103544665774,49.99551734524175,1.6337551772332888,0.7853277500211627,A,645,Correct
1,relearn,19,605,A,43.14466002747166,51.56445759600034,2.157233001373583,0.8099726058496852,A,414,Correct
1,relearn,19,606,B,54.46710416337628,39.945172125105394,2.723355208168814,0.6274572964730545,A,778,Incorrect
1,relearn,19,607,A,16.275636668636533,34.501698631010726,0.8137818334318268,0.5419514147777617,B,1086,Incorrect
1,relearn,19,608,A,32.97334609909652,46.413053037250094,1.648667304954826,0.7290545322624916,B,606,Incorrect
1,relearn,19,609,B,82.88035652137123,52.61659673068111,4.144017826068562,0.8264995687300225,B,2349,Correct
1,relearn,19,610,A,45.82166534284359,53.75484256663969,2.291083267142179,0.8443790925111557,A,1000,Correct
1,relearn,19,611,B,59.78118802171519,42.16660997021993,2.9890594010857594,0.6623515605461453,A,581,Incorrect
1,relearn,19,612,B,79.10604809339648,54.27939801299615,3.955302404669824,0.8526187901945257,B,514,Correct
1,relearn,19,613,A,22.831051794843923,34.676387178730145,1.141552589742196,0.5446954160686697,A,841,Correct
1,relearn,19,614,A,31.00670947519224,57.03998767885191,1.5503354737596118,0.8959820312636674,A,759,Correct
1,relearn,19,615,B,75.11348136651921,45.490874820894504,3.7556740683259604,0.7145689907134752,B,467,Correct
1,relearn,19,616,B,49.634158363454276,23.277998001609493,2.481707918172714,0.3656499375606713,B,1070,Correct
1,relearn,19,617,A,17.16221115346565,35.05599275172792,0.8581105576732824,0.5506582464656273,A,469,Correct
1,relearn,19,618,B,72.73882478303094,61.8050119552571,3.636941239151547,0.9708308575683252,B,757,Correct
1,relearn,19,619,B,54.5079528936238,46.79834539431208,2.7253976446811903,0.7351066904546427,B,1509,Correct
1,relearn,19,620,A,24.263373014073252,48.748982962701064,1.2131686507036625,0.7657472337279781,A,443,Correct
1,relearn,19,621,A,18.11443394359528,33.753849026021705,0.905721697179764,0.5302042206526438,A,577,Correct
1,relearn,19,622,A,45.27938513635254,53.000450056522446,2.263969256817627,0.8325291226726182,B,742,Incorrect
1,relearn,19,623,A,24.88526180159377,54.67843005581565,1.2442630900796885,0.8588867708658691,A,2403,Correct
1,relearn,19,624,B,63.46326913567625,30.759858971654538,3.1731634567838127,0.48317473485403994,B,666,Correct
1,relearn,19,625,A,52.82567404608984,70.54651858342683,2.641283702304492,1.1081421225901475,B,729,Incorrect
1,relearn,19,626,B,77.17206969822647,51.96570316587938,3.858603484911323,0.8162753565227727,B,1703,Correct
1,relearn,19,627,A,29.576756074705226,54.97044043794556,1.4788378037352612,0.8634736592222252,A,1625,Correct
1,relearn,19,628,A,59.175626424804605,81.59166606698979,2.95878132124023,1.2816388935510337,B,824,Incorrect
1,relearn,19,629,A,31.358118080793883,42.04076134596994,1.567905904039694,0.6603747349791045,A,698,Correct
1,relearn,19,630,B,81.48501886499604,54.40067971842885,4.074250943249802,0.8545238787685365,B,1373,Correct
1,relearn,19,631,A,43.219423902228684,62.48797899580175,2.1609711951114345,0.9815588787544204,A,687,Correct
1,relearn,19,632,B,46.52582635100644,26.30740452876151,2.326291317550322,0.4132357440128601,B,772,Correct
1,relearn,19,633,B,68.46091722053266,49.38627596809569,3.423045861026633,0.7757578088476379,B,699,Correct
1,relearn,19,634,B,37.99501229735272,12.624304788974214,1.8997506148676362,0.19830211590859917,A,484,Incorrect
1,relearn,19,635,B,57.07527202436993,43.152830100056285,2.8537636012184966,0.6778430701197266,B,626,Correct
1,relearn,19,636,B,46.97993944734454,19.979775588271117,2.3489969723672273,0.3138415810424261,B,686,Correct
1,relearn,19,637,A,64.84037959923992,77.4505180266008,3.242018979961996,1.2165898922454645,A,737,Correct
1,relearn,19,638,B,67.92534057625531,50.18310249619144,3.396267028812765,0.7882743306818931,B,736,Correct
1,relearn,19,639,B,67.29593761175803,34.30636414276966,3.364796880587902,0.5388831078115073,B,580,Correct
1,relearn,19,640,B,62.2127593818903,39.31474791757501,3.1106379690945154,0.6175546161779414,B,516,Correct
1,relearn,19,641,A,51.711017380175754,76.73661506825118,2.585550869008788,1.2053759307988288,A,845,Correct
1,relearn,19,642,A,53.20984398612911,73.84003829102075,2.6604921993064554,1.1598766091792991,A,481,Correct
1,relearn,19,643,B,70.20591466218121,53.47745521182738,3.5102957331090607,0.8400219021307704,B,640,Correct
1,relearn,19,644,A,42.70140735836072,60.979278930963254,2.135070367918036,0.9578602735535852,B,553,Incorrect
1,relearn,19,645,B,86.49903216477281,64.64501763052017,4.32495160823864,1.0154415623961242,B,592,Correct
1,relearn,19,646,A,51.28315913732605,72.9877381993407,2.5641579568663024,1.1464887106459192,B,537,Incorrect
1,relearn,19,647,A,44.37615920771504,65.03384940430136,2.218807960385752,1.0215493176160906,A,1374,Correct
1,relearn,19,648,B,75.69353469027476,48.701903842526896,3.784676734513738,0.765007716637595,B,702,Correct
1,relearn,19,649,A,36.377709384791075,60.33378958713283,1.8188854692395537,0.9477209506508442,A,1251,Correct
1,relearn,19,650,A,39.903705846861826,63.3803000504655,1.9951852923430915,0.9955754251042961,A,979,Correct
1,relearn,19,651,A,55.12011008029243,63.34877855261841,2.7560055040146216,0.9950802865739634,B,2122,Incorrect
1,relearn,19,652,B,55.14054679286806,29.739421002456186,2.7570273396434026,0.4671457327166518,B,1569,Correct
1,relearn,19,653,A,40.725692382471244,72.58006524692902,2.036284619123562,1.1400849988841004,A,4428,Correct
1,relearn,19,654,B,46.50044860111786,31.047267326141952,2.325022430055893,0.4876893347292298,B,1598,Correct
1,relearn,19,655,B,33.19749231985929,21.565150277651743,1.6598746159929647,0.338744588429153,A,1727,Incorrect
1,relearn,19,656,B,49.12780814719126,34.112831760925204,2.4563904073595633,0.535843108266336,B,3025,Correct
1,relearn,19,657,A,38.88996703850465,50.587659887124744,1.9444983519252326,0.7946291033184508,B,715,Incorrect
1,relearn,19,658,B,76.31531101731301,45.78784285754222,3.8157655508656503,0.7192337537248925,B,525,Correct
1,relearn,19,659,A,33.59764470146274,49.718213087032645,1.679882235073137,0.7809718649191684,A,976,Correct
1,relearn,19,660,B,37.237612364357744,12.046666308696334,1.8618806182178873,0.18922859187824034,B,708,Correct
1,relearn,19,661,B,84.54839033151376,64.80156959345966,4.227419516575688,1.017900674879503,B,532,Correct
1,relearn,19,662,A,31.343391869894347,43.833946837916336,1.5671695934947172,0.6885420268192175,A,464,Correct
1,relearn,19,663,B,45.63971109456068,17.583111365242356,2.281985554728034,0.2761948674614829,A,1460,Incorrect
1,relearn,19,664,A,51.469812964469554,62.24729270756775,2.5734906482234776,0.9777781873797419,B,914,Incorrect
1,relearn,19,665,A,61.2916541556595,72.8368482197742,3.064582707782975,1.144118536389387,B,2813,Incorrect
1,relearn,19,666,A,21.461444025459002,42.67042540372417,1.07307220127295,0.6702654748694556,A,688,Correct
1,relearn,19,667,A,37.62169578082347,48.91166547610332,1.8810847890411737,0.7683026446728385,107,2854,Incorrect
1,relearn,19,668,B,60.43650273642626,33.18174867323823,3.0218251368213136,0.5212176893255405,B,514,Correct
1,relearn,19,669,B,69.70887594507312,43.33789693034541,3.485443797253656,0.680750093092024,B,894,Correct
1,relearn,19,670,A,35.49814166835429,57.8318655814134,1.7749070834177147,0.9084208202698036,A,661,Correct
1,relearn,19,671,A,27.066554476189282,38.26531347542715,1.353327723809464,0.6010701385085622,B,2075,Incorrect
1,relearn,19,672,B,71.4619803121541,57.16410355210873,3.5730990156077045,0.8979316388417549,B,1199,Correct
1,relearn,19,673,B,74.66681928057577,50.92370895020618,3.733340964028788,0.7999077496575626,B,553,Correct
1,relearn,19,674,A,29.997584179922413,42.649751972590515,1.4998792089961206,0.6699407373725857,A,513,Correct
1,relearn,19,675,B,31.59869812848594,12.860370179543995,1.579934906424297,0.20201022239250332,A,2630,Incorrect
1,relearn,19,676,B,35.30270527325173,23.141308947998134,1.7651352636625866,0.3635028309274134,B,1099,Correct
1,relearn,19,677,A,41.88525412624138,50.26632779046503,2.094262706312069,0.789581630547307,A,1235,Correct
1,relearn,19,678,A,50.58777404324031,61.46496299913696,2.529388702162015,0.9654893810562857,B,1217,Incorrect
1,relearn,19,679,A,56.91628614725462,85.08308656440487,2.845814307362731,1.3364819984773937,B,1120,Incorrect
1,relearn,19,680,A,47.90214964715289,59.33126473775479,2.3951074823576444,0.9319733271416081,B,1325,Incorrect
1,relearn,19,681,A,49.68003189132671,70.35036814047709,2.4840015945663354,1.1050609986373012,A,831,Correct
1,relearn,19,682,B,54.512761229768486,25.9350795671374,2.7256380614884246,0.4073872771919281,B,3417,Correct
1,relearn,19,683,B,53.11858520841229,36.372441976972624,2.6559292604206144,0.571336982539891,B,1748,Correct
1,relearn,19,684,B,78.17657371267532,59.95072666362414,3.9088286856337664,0.9417038123190566,B,1177,Correct
1,relearn,19,685,A,58.307659442125626,73.58777833275703,2.915382972106281,1.1559141190209183,A,1972,Correct
1,relearn,19,686,B,39.702718661472275,15.024607023328144,1.9851359330736136,0.2360059752378065,B,2191,Correct
1,relearn,19,687,B,43.988992873933,21.89139270645125,2.19944964369665,0.3438691925171821,B,1453,Correct
1,relearn,19,688,A,58.9100778899169,69.21082785951765,2.945503894495845,1.087161141761642,B,1525,Incorrect
1,relearn,19,689,A,19.410012862356336,44.587617115313506,0.9705006431178168,0.7003806518527171,A,3241,Correct
1,relearn,19,690,A,29.448234104152924,55.74171877141608,1.4724117052076462,0.875588870953745,A,1303,Correct
1,relearn,19,691,A,14.45762580385518,33.7345917579369,0.722881290192759,0.5299017281929268,A,1550,Correct
1,relearn,19,692,B,38.95423106385975,11.970607387456308,1.9477115531929876,0.18803386113720222,B,1380,Correct
1,relearn,19,693,B,66.52616329998654,39.6240126968437,3.3263081649993267,0.6224125359707642,B,1491,Correct
1,relearn,19,694,A,47.97813048048359,62.54117278517373,2.39890652402418,0.9823944448439584,A,1578,Correct
1,relearn,19,695,A,63.05330896637896,75.9964199502495,3.152665448318948,1.193748973074143,B,2569,Incorrect
1,relearn,19,696,A,60.66137634381431,80.27698652100949,3.0330688171907156,1.2609879555336514,A,905,Correct
1,relearn,19,697,B,51.10850234583931,38.82200326325173,2.555425117291966,0.609814601247353,B,1217,Correct
1,relearn,19,698,B,55.16243299823382,28.108555150970417,2.7581216499116907,0.4415281518265611,B,1657,Correct
1,relearn,19,699,A,59.98938995695613,79.49958960339016,2.9994694978478065,1.2487766333070702,A,806,Correct
1,relearn,19,700,B,82.8827635261396,66.21121213369658,4.14413817630698,1.0400432881224828,B,875,Correct
1,relearn,19,701,A,21.838208397828268,43.41279347363567,1.0919104198914134,0.6819265652429237,A,929,Correct
1,relearn,19,702,A,43.596678559814734,54.76152680207273,2.1798339279907366,0.8601920515037613,A,1270,Correct
1,relearn,19,703,A,44.7627761898641,56.32265002831184,2.238138809493205,0.884714117798267,A,1486,Correct
1,relearn,19,704,A,52.03800040241081,64.54417115633572,2.6019000201205404,1.0138574696839326,B,1402,Incorrect
1,relearn,19,705,B,61.33674231052172,52.40870599192705,3.066837115526086,0.8232340286419269,B,617,Correct
1,relearn,19,706,B,77.0494722120317,51.64165862870689,3.8524736106015847,0.8111852768356876,B,978,Correct
1,relearn,19,707,B,85.0259004907434,60.138058202140854,4.25129502453717,0.9446464092450055,A,2020,Incorrect
1,relearn,19,708,A,68.21988278373864,85.88125260968276,3.410994139186932,1.3490195613983431,A,1098,Correct
1,relearn,19,709,A,58.08365012797374,72.54670910173725,2.904182506398687,1.1395610417806674,A,4502,Correct
1,relearn,19,710,B,40.77252263725953,13.74977741705315,2.0386261318629764,0.21598099860954506,B,1295,Correct
1,relearn,19,711,A,35.61263112092063,60.22334186238109,1.7806315560460317,0.9459860418474153,A,2349,Correct
1,relearn,19,712,A,56.403545905290684,83.15774109174716,2.8201772952645343,1.3062387425147748,A,1104,Correct
1,relearn,19,713,B,37.62049202341611,25.154466199004517,1.8810246011708056,0.3951254310788268,B,1145,Correct
1,relearn,19,714,A,43.9800807006079,67.07784587366508,2.199004035030395,1.0536563390766733,A,1903,Correct
1,relearn,19,715,B,31.77262068983675,10.532370103254522,1.5886310344918373,0.16544208270636585,B,1315,Correct
1,relearn,19,716,B,82.35035426488685,52.393187547259686,4.117517713244342,0.8229902654831165,B,768,Correct
1,relearn,19,717,B,58.49634638363763,37.99561410449164,2.9248173191818814,0.5968337106965182,B,2574,Correct
1,relearn,19,718,A,40.27332775361897,66.78282178560251,2.0136663876809484,1.0490221115382263,A,903,Correct
1,relearn,19,719,B,58.518637117931384,33.13218832820878,2.925931855896569,0.520439197246271,B,1084,Correct
1,relearn,19,720,A,52.85415883874211,78.72030613940153,2.642707941937106,1.2365356772794165,A,604,Correct
1,relearn,19,721,A,58.445174836379834,69.19536662667464,2.9222587418189914,1.086918277284067,A,767,Correct
1,relearn,19,722,A,42.04087608816323,73.97983068295102,2.1020438044081615,1.1620724629368784,A,900,Correct
1,relearn,19,723,B,72.1047383142108,50.90811193395416,3.6052369157105404,0.7996627522991864,B,623,Correct
1,relearn,19,724,B,63.83324670117872,44.80569083804289,3.191662335058936,0.7038061458790552,B,637,Correct
1,relearn,19,725,B,60.20077462871037,48.731523755827276,3.0100387314355186,0.7654729851477171,B,611,Correct
1,relearn,19,726,B,82.91896675223624,58.11658731634166,4.145948337611812,0.9128932188236436,B,719,Correct
1,relearn,19,727,B,52.80386410185296,41.49225636721865,2.6401932050926478,0.6517588389205922,B,1262,Correct
1,relearn,19,728,A,42.943988183548925,68.1169418776069,2.1471994091774462,1.069978420938464,A,805,Correct
1,relearn,19,729,B,86.89326180930354,63.55466346206387,4.344663090465177,0.9983143191689576,B,665,Correct
1,relearn,19,730,A,11.000043211940024,31.437568098885663,0.5500021605970012,0.49382016493094016,B,1075,Incorrect
1,relearn,19,731,A,54.4242375368906,78.44574278814254,2.7212118768445297,1.2322228462431153,A,1292,Correct
1,relearn,19,732,B,46.0101340948431,20.63830487264145,2.3005067047421552,0.32418573485218405,B,688,Correct
1,relearn,19,733,B,52.20055852822332,25.225427386103465,2.6100279264111657,0.3962400867992272,B,728,Correct
1,relearn,19,734,A,43.45977957598543,64.44688983380445,2.1729889787992716,1.0123293782429539,A,789,Correct
1,relearn,19,735,B,39.577944167183,18.123722718243677,1.97889720835915,0.2846867707366639,B,409,Correct
1,relearn,19,736,B,56.05832397444078,44.845529869644196,2.802916198722039,0.7044319359240792,B,1103,Correct
1,relearn,19,737,A,32.306618570044336,47.28440119532965,1.6153309285022168,0.7427416371232004,A,1145,Correct
1,relearn,19,738,A,34.91553777288062,64.86281559141968,1.7457768886440308,1.0188627247657676,A,1023,Correct
1,relearn,19,739,B,74.59389551732512,62.0028484017719,3.729694775866256,0.9739384652032411,B,556,Correct
1,relearn,19,740,B,49.289724688201176,24.016976992702624,2.464486234410059,0.3772577924085483,B,905,Correct
1,relearn,19,741,A,24.26346369648276,45.71122046452504,1.213173184824138,0.7180301719898765,A,1008,Correct
1,relearn,19,742,A,41.279712191770244,48.152844897380376,2.0639856095885123,0.7563831188952947,B,450,Incorrect
1,relearn,19,743,A,58.35333707197775,72.06851926269502,2.9176668535988877,1.1320496533538857,B,1868,Incorrect
1,relearn,19,744,A,54.99943693943216,80.93010010158375,2.749971846971608,1.2712470396671103,A,830,Correct
1,relearn,19,745,A,44.54382271553621,76.23234649170885,2.2271911357768106,1.197454898521321,A,953,Correct
1,relearn,19,746,A,42.484417130178876,73.15447949855445,2.124220856508944,1.149107876849219,A,826,Correct
1,relearn,19,747,B,73.24432401695563,41.784630606667356,3.6622162008477814,0.6563514427343469,B,749,Correct
1,relearn,19,748,B,73.62305868334342,55.8879398615624,3.6811529341671707,0.8778857064667629,A,696,Incorrect
1,relearn,19,749,A,40.611415973143906,56.66489784063437,2.030570798657195,0.8900901338627653,B,761,Incorrect
1,relearn,19,750,A,19.808786086269,41.45759227294201,0.9904393043134498,0.6512143366009779,A,2441,Correct
1,relearn,19,751,B,73.24551289198621,49.879406923334955,3.6622756445993105,0.7835038917788248,B,1409,Correct
1,relearn,19,752,B,35.19165915861137,19.42576962209157,1.7595829579305686,0.30513927567545324,B,1987,Correct
1,relearn,19,753,A,33.27866777908609,56.813065752766654,1.6639333889543046,0.8924175499840279,A,1981,Correct
1,relearn,19,754,B,68.12702192710876,42.48934192609471,3.406351096355438,0.6674210222544197,B,1113,Correct
1,relearn,19,755,A,47.18111085113499,78.63534628958593,2.3590555425567494,1.2352011310792628,A,756,Correct
1,relearn,19,756,A,54.20026225077338,82.75004912553175,2.710013112538669,1.2998347320848251,A,955,Correct
1,relearn,19,757,A,19.462146133028163,40.73455537697737,0.9731073066514082,0.6398568995977935,A,2711,Correct
1,relearn,19,758,A,26.54532644748874,47.62642116499342,1.3272663223744372,0.7481140742435838,A,1211,Correct
1,relearn,19,759,B,48.63720328767335,26.470020073847202,2.4318601643836675,0.4157901030218636,B,1515,Correct
1,relearn,19,760,A,53.67077193559484,76.4701002595607,2.6835385967797425,1.201189525973554,B,2092,Incorrect
1,relearn,19,761,A,30.599028885301454,39.20015172448706,1.5299514442650726,0.6157545433862689,A,1346,Correct
1,relearn,19,762,B,37.43237429917943,20.03946502423315,1.8716187149589714,0.3147791805100023,A,2784,Incorrect
1,relearn,19,763,A,17.578171272414597,43.7432956894781,0.8789085636207298,0.6871180819093524,A,2306,Correct
1,relearn,19,764,A,60.674454371696456,77.35385341193997,3.033722718584823,1.2150714880290616,B,2302,Incorrect
1,relearn,19,765,B,48.743207559193195,26.444153679415862,2.4371603779596596,0.41538379464826186,B,4725,Correct
1,relearn,19,766,A,51.38681681525958,79.49884120930432,2.5693408407629788,1.2487648775602598,A,770,Correct
1,relearn,19,767,B,49.98564805292033,29.15696582019823,2.4992824026460165,0.4579965481085173,B,588,Correct
1,relearn,19,768,B,63.04105512315625,30.752175661721388,3.1520527561578127,0.4830540457038337,B,2131,Correct
1,relearn,19,769,B,50.26131375374436,27.84990663572384,2.513065687687218,0.4374653104497582,B,650,Correct
1,relearn,19,770,A,28.78878916323248,50.55014250105893,1.4394394581616239,0.7940397815962196,A,819,Correct
1,relearn,19,771,B,63.11058866916446,30.02778007652686,3.155529433458223,0.4716752664601337,B,988,Correct
1,relearn,19,772,A,60.37310375564701,86.10115981677654,3.01865518778235,1.3524738557297293,A,524,Correct
1,relearn,19,773,B,53.185975095131,25.759236316363385,2.65929875475655,0.40462513786785315,B,423,Correct
1,relearn,19,774,B,40.102788396030576,26.92516803619273,2.005139419801529,0.422939550495869,A,969,Incorrect
1,relearn,19,775,A,19.27667455550746,36.98889698885601,0.9638337277753729,0.5810202352228984,B,479,Incorrect
1,relearn,19,776,B,39.71406769264216,16.459576811848613,1.9857033846321082,0.2585464279665025,B,1561,Correct
1,relearn,19,777,B,75.64906320123741,42.93490975661842,3.7824531600618707,0.6744199853696656,B,603,Correct
1,relearn,19,778,B,77.56989379144999,47.473076503217534,3.8784946895724994,0.7457053419290722,B,515,Correct
1,relearn,19,779,B,82.25078538195449,59.55588107619826,4.1125392690977245,0.9355015923352591,B,1730,Correct
1,relearn,19,780,B,82.99663698397373,60.27559704392245,4.149831849198687,0.9468068643196272,B,2258,Correct
1,relearn,19,781,A,25.286466130571633,41.715036976594725,1.2643233065285815,0.6552582685494828,107,1803,Incorrect
1,relearn,19,782,A,21.508940312276092,34.34152662040242,1.0754470156138047,0.5394354387185728,A,1682,Correct
1,relearn,19,783,B,55.46799399687536,37.547016957225104,2.773399699843768,0.5897871631851489,B,1525,Correct
1,relearn,19,784,A,43.401495462836095,73.43725630038963,2.170074773141805,1.1535497244654742,B,6174,Incorrect
1,relearn,19,785,B,72.77016328965215,41.453466707648964,3.6385081644826074,0.6511495323728952,B,596,Correct
1,relearn,19,786,B,36.363954352139345,22.623490201414466,1.818197717606967,0.3553689530766218,A,2167,Incorrect
1,relearn,19,787,B,55.3918161995259,40.50350265295862,2.769590809976295,0.6362275318959475,B,509,Correct
1,relearn,19,788,A,42.00438191725938,59.02978004919543,2.1002190958629687,0.9272376167278685,B,602,Incorrect
1,relearn,19,789,B,46.03373241394911,17.867866360387634,2.3016866206974553,0.2806677884655899,B,523,Correct
1,relearn,19,790,B,62.882825613580934,54.30986788081143,3.144141280679047,0.8530974097589473,B,1455,Correct
1,relearn,19,791,A,34.06025225345759,47.9185550488341,1.7030126126728795,0.7527029025602766,A,743,Correct
1,relearn,19,792,B,81.0234286240072,51.23381935467132,4.05117143120036,0.8047789524999099,B,651,Correct
1,relearn,19,793,B,71.98343644698892,45.02502308573733,3.5991718223494455,0.7072514087693162,B,508,Correct
1,relearn,19,794,A,13.10243140803328,35.949669610794246,0.655121570401664,0.5646960897412572,A,713,Correct
1,relearn,19,795,B,36.69422672499056,24.645716699917358,1.8347113362495278,0.3871340126345783,B,1013,Correct
1,relearn,19,796,A,27.54259336181243,37.892557756690074,1.3771296680906215,0.5952149053707224,A,573,Correct
1,relearn,19,797,A,24.177517325740975,51.735860306825856,1.208875866287049,0.8126649933353595,A,680,Correct
1,relearn,19,798,A,42.76233063407385,52.767128638028275,2.1381165317036928,0.828864118401286,107,1147,Incorrect
1,relearn,19,799,A,34.38918231745839,58.07288817589825,1.7194591158729196,0.9122067943307175,A,2855,Correct
1,relearn,19,800,B,80.42909467554077,63.5093841689702,4.0214547337770385,0.9976030736962435,B,1075,Correct
1,relearn,19,801,B,42.60447535640117,24.462660632992602,2.130223767820058,0.38425857465934904,B,1792,Correct
1,relearn,19,802,A,47.34214865333946,77.799276950372,2.3671074326669728,1.2220681846094321,A,1726,Correct
1,relearn,19,803,A,36.119289570112784,58.81321594997152,1.8059644785056392,0.9238358358121028,A,549,Correct
1,relearn,19,804,A,65.29532749736303,84.59959097796145,3.2647663748681515,1.3288872675653252,A,1482,Correct
1,relearn,19,805,B,79.07434109317565,51.80893104410136,3.953717054658782,0.8138127857924449,B,1127,Correct
1,relearn,19,806,A,23.803697664684268,38.97516291942965,1.1901848832342135,0.6122204275007275,A,1306,Correct
1,relearn,19,807,B,75.06675132019868,59.97878394368015,3.753337566009934,0.9421445350435751,B,667,Correct
1,relearn,19,808,A,35.784073166888916,51.09121990899478,1.7892036583444457,0.802539005645193,B,1128,Incorrect
1,relearn,19,809,A,62.28124040241282,79.07376865683908,3.1140620201206413,1.2420878535199225,A,910,Correct
1,relearn,19,810,A,55.97311337262559,65.23489996899383,2.7986556686312793,1.02470741250128,A,972,Correct
1,relearn,19,811,A,54.56187822989855,81.85254615984222,2.7280939114949274,1.2857367884668987,A,724,Correct
1,relearn,19,812,A,39.85360983216532,52.69327523506005,1.9926804916082659,0.8277040318602483,B,1148,Incorrect
1,relearn,19,813,B,72.9935907084334,60.1206993887064,3.6496795354216705,0.944373737641202,B,1393,Correct
1,relearn,19,814,B,33.76423656600751,16.207993374617654,1.6882118283003757,0.2545945645756543,B,1036,Correct
1,relearn,19,815,B,69.29404160625272,55.42458729046669,3.464702080312636,0.8706073812998819,B,2342,Correct
1,relearn,19,816,A,57.87515803694057,82.97340055003474,2.8937579018470285,1.3033431280567622,A,819,Correct
1,relearn,19,817,A,23.81530512042107,54.441578714504075,1.1907652560210535,0.8551663186965822,A,1360,Correct
1,relearn,19,818,B,62.888549822554126,32.113961863340556,3.1444274911277064,0.5044449333376674,B,907,Correct
1,relearn,19,819,B,66.31017715410508,33.038094086688226,3.315508857705254,0.5189611683567406,B,2275,Correct
1,relearn,19,820,A,52.23087802336322,72.53599695665889,2.611543901168161,1.139392775799256,A,2544,Correct
1,relearn,19,821,A,60.72061557085413,79.83862747877504,3.036030778542706,1.254102227800059,A,767,Correct
1,relearn,19,822,B,77.05641030348957,65.49060487288008,3.852820515174478,1.0287240157389599,A,1963,Incorrect
1,relearn,19,823,B,54.422195792351815,43.23733509225864,2.721109789617591,0.6791704714331996,B,1127,Correct
1,relearn,19,824,B,59.37579487156159,49.391058580828854,2.9687897435780792,0.7758329339527753,B,682,Correct
1,relearn,19,825,B,62.47504139844137,52.794942957146105,3.1237520699220687,0.8293010247043119,B,782,Correct
1,relearn,19,826,A,68.19069584225724,89.22250727579163,3.4095347921128623,1.401503866962444,A,1204,Correct
1,relearn,19,827,B,77.49268057728925,51.35080102154981,3.8746340288644627,0.8066164962262607,B,1106,Correct
1,relearn,19,828,A,67.70064116706564,89.38540498447743,3.3850320583532825,1.404062658186914,A,756,Correct
1,relearn,19,829,B,31.98352412293771,14.673182270019261,1.5991762061468853,0.23048580812138253,107,1748,Incorrect
1,relearn,19,830,A,21.718950351923862,34.56541611696872,1.0859475175961932,0.5429522867067158,B,571,Incorrect
1,relearn,19,831,A,45.57151218136782,53.5572501760162,2.2785756090683913,0.8412753184972157,A,844,Correct
1,relearn,19,832,A,59.71026318569899,83.98639818504314,2.9855131592849493,1.3192552576979932,A,1140,Correct
1,relearn,19,833,A,67.59770168320763,84.4694128900006,3.3798850841603816,1.3268424349413441,A,760,Correct
1,relearn,19,834,B,54.65037507713393,37.77037400931081,2.732518753856697,0.5932956475549485,B,869,Correct
1,relearn,19,835,A,58.12238761387569,67.74276266828755,2.9061193806937844,1.0641008276628452,A,1112,Correct
1,relearn,19,836,B,37.30548418578617,13.456741843322998,1.8652742092893084,0.21137800658118952,B,2147,Correct
1,relearn,19,837,A,15.86480180961794,34.72963453264519,0.793240090480897,0.5455318235480826,A,728,Correct
1,relearn,19,838,B,71.15858244794893,41.29327418820913,3.557929122397446,0.6486332341617341,B,491,Correct
1,relearn,19,839,A,41.65756606653083,56.50518279923264,2.0828783033265417,0.8875813358590882,A,634,Correct
1,relearn,19,840,A,34.631126754328065,57.646324783161155,1.7315563377164034,0.9055063522261515,A,852,Correct
1,relearn,19,841,B,81.79120533789586,59.448154325871315,4.089560266894793,0.933809424498148,B,732,Correct
1,relearn,19,842,A,62.481656263356086,76.8443654728706,3.1240828131678042,1.2070684701966972,B,514,Incorrect
1,relearn,19,843,A,51.53447166512421,79.28624345323279,2.5767235832562103,1.2454253998170397,B,1273,Incorrect
1,relearn,19,844,A,19.55817435720485,39.28096652097996,0.9779087178602426,0.6170239792410862,A,1766,Correct
1,relearn,19,845,A,21.442188241444477,33.06382812912106,1.0721094120722239,0.5193653977500113,A,476,Correct
1,relearn,19,846,A,27.168047918536416,42.289643194932694,1.3584023959268208,0.6642841619206707,A,992,Correct
1,relearn,19,847,B,74.48166013176781,50.663377184747645,3.7240830065883905,0.7958184678482597,B,525,Correct
1,relearn,19,848,A,56.4050206103076,79.15051425278725,2.82025103051538,1.243293370522053,A,794,Correct
1,relearn,19,849,B,32.23296339386945,10.788961981428336,1.6116481696934724,0.16947261850357417,B,1697,Correct
1,relearn,19,850,B,61.37151882394129,43.90906606027761,3.0685759411970643,0.6897219968047853,A,1512,Incorrect
1,relearn,19,851,B,55.645049459077825,23.805322036213767,2.7822524729538913,0.373933124126542,B,788,Correct
1,relearn,19,852,B,35.96013560599099,23.630373707338684,1.7980067802995494,0.37118504220278314,A,652,Incorrect
1,relearn,19,853,B,46.59743314676818,30.403882996937295,2.3298716573384093,0.4775830773189091,B,668,Correct
1,relearn,19,854,B,67.20157426700892,46.35393760425753,3.3600787133504464,0.7281259492124754,A,551,Incorrect
1,relearn,19,855,B,76.54795510350414,61.970052063442154,3.8273977551752068,0.9734233015254345,B,1597,Correct
1,relearn,19,856,A,17.81114544706112,42.44526909632478,0.8905572723530559,0.6667287278632791,A,640,Correct
1,relearn,19,857,A,52.27063841826547,64.85560838109508,2.6135319209132732,1.0187495141707248,B,508,Incorrect
1,relearn,19,858,B,65.52672855883118,35.60554580202547,3.2763364279415588,0.5592906055934905,A,583,Incorrect
1,relearn,19,859,A,45.59652889295735,77.82562061581143,2.2798264446478673,1.2224819899384975,A,1622,Correct
1,relearn,19,860,A,56.41495391810679,67.42710313528093,2.8207476959053395,1.0591424593131995,B,2387,Incorrect
1,relearn,19,861,A,36.580653073455146,69.22006528373296,1.8290326536727575,1.087306242881907,A,1889,Correct
1,relearn,19,862,A,40.46331400691206,56.09065470048133,2.023165700345603,0.8810699437103698,B,1682,Incorrect
1,relearn,19,863,B,45.58506459966427,21.88454625538591,2.2792532299832136,0.343761648715332,A,663,Incorrect
1,relearn,19,864,B,40.5842102642949,16.82278969136165,2.0292105132147453,0.2642517625363393,B,509,Correct
1,relearn,19,865,B,61.85606932578138,44.947552240560036,3.092803466289069,0.7060344995789343,B,4328,Correct
1,relearn,19,866,B,73.27631432575778,48.90563919643308,3.663815716287889,0.768207984093136,B,529,Correct
1,relearn,19,867,B,83.22151051211267,53.472263801326534,4.161075525605634,0.8399403556453143,B,427,Correct
1,relearn,19,868,A,63.57900818599363,88.64159190300714,3.1789504092996816,1.3923788696249586,B,397,Incorrect
1,relearn,19,869,B,44.89142907310811,17.653007159435546,2.2445714536554053,0.27729278802925367,B,977,Correct
1,relearn,19,870,A,50.553228473554555,72.08921761374208,2.5276614236777277,1.13237478229184,A,513,Correct
1,relearn,19,871,B,59.956820143162346,44.21012600911507,2.9978410071581174,0.6944510354225748,B,280,Correct
1,relearn,19,872,A,53.6004663217319,68.92244414030358,2.6800233160865954,1.082631220893153,A,875,Correct
1,relearn,19,873,A,12.960203384724732,37.669157154643855,0.6480101692362367,0.5917057369197427,B,393,Incorrect
1,relearn,19,874,A,11.456794207618355,35.38561734555232,0.5728397103809177,0.5558359774776336,A,299,Correct
1,relearn,19,875,B,47.722332955029565,17.7735156502209,2.386116647751478,0.27918573097598604,B,608,Correct
1,relearn,19,876,B,88.93123114631729,64.34715330318514,4.446561557315864,1.0107627204835132,B,1843,Correct
1,relearn,19,877,A,66.26924200309442,81.15299782638355,3.313462100154721,1.274748308940775,B,336,Incorrect
1,relearn,19,878,A,40.30118443523039,50.74227426107101,2.0150592217615197,0.7970577802250957,A,385,Correct
1,relearn,19,879,A,23.6943221957569,53.935334612722485,1.184716109787845,0.8472142549411812,B,404,Incorrect
1,relearn,19,880,A,46.17275874173164,66.98284920668229,2.3086379370865817,1.05216413492113,A,426,Correct
1,relearn,19,881,B,36.24298907598563,22.906218509920933,1.8121494537992817,0.35981003896145075,B,455,Correct
1,relearn,19,882,A,48.124890951744455,71.0641837552685,2.4062445475872227,1.1162735880945331,A,310,Correct
1,relearn,19,883,B,33.39188752069764,12.12093201921045,1.669594376034882,0.19039515493106424,B,373,Correct
1,relearn,19,884,B,88.00858818088848,63.1732708577764,4.400429409044424,0.9923234181501427,A,309,Incorrect
1,relearn,19,885,A,18.280215768319042,35.28969295458906,0.9140107884159521,0.5543292006678823,B,336,Incorrect
1,relearn,19,886,A,62.552407221886625,82.6060371852115,3.127620361094331,1.2975725978161288,A,364,Correct
1,relearn,19,887,B,87.40205078636764,68.52413530246984,4.370102539318382,1.0763746002991614,A,979,Incorrect
1,relearn,19,888,A,55.24183020274361,70.8408831938843,2.7620915101371804,1.1127659910785976,B,344,Incorrect
1,relearn,19,889,B,49.33444684684431,20.806827041802787,2.4667223423422153,0.3268328748952054,B,578,Correct
1,relearn,19,890,A,41.19121225332173,56.61934321476135,2.0595606126660866,0.8893745634728669,B,635,Incorrect
1,relearn,19,891,B,72.94395109346104,54.647215354468244,3.6471975546730517,0.8583964514836838,A,356,Incorrect
1,relearn,19,892,B,83.92946279256216,57.61799135864561,4.196473139628108,0.9050612918346062,B,330,Correct
1,relearn,19,893,B,33.55172643943957,11.939150466111585,1.6775863219719784,0.18753973697219656,B,426,Correct
1,relearn,19,894,A,50.73782286350994,58.18566216622412,2.536891143175497,0.9139782440283363,A,1266,Correct
1,relearn,19,895,A,28.59903809384233,38.10084464364465,1.4299519046921165,0.5984866681402002,A,567,Correct
1,relearn,19,896,A,35.50114196814232,59.3480902084741,1.7750570984071161,0.9322376210176329,A,643,Correct
1,relearn,19,897,B,51.500062863988234,26.39722554749605,2.5750031431994116,0.414646649275832,B,414,Correct
1,relearn,19,898,B,61.298694987978195,44.00256414301616,3.0649347493989096,0.6911906612540661,107,566,Incorrect
