experiment,condition,subject,trial,cat,x,y,xt,yt,resp,rt,fb
2,relearn,49,0,A,38.519068634564334,65.30185332968065,1.9259534317282168,1.0257591134316146,A,7507,Correct
2,relearn,49,1,B,60.144266663574626,45.27692064888125,3.0072133331787314,0.7112082064384668,B,2692,Correct
2,relearn,49,2,B,50.906947392051315,40.36746341746652,2.5453473696025655,0.6340906325818376,B,743,Correct
2,relearn,49,3,A,52.65096547594814,71.76998443608024,2.6325482737974073,1.1273602792632171,A,1439,Correct
2,relearn,49,4,B,52.23116341848517,43.11449387651435,2.6115581709242583,0.6772408861284981,A,1357,Incorrect
2,relearn,49,5,A,67.12218685865271,80.41943254837132,3.356109342932635,1.2632254924991164,B,1515,Incorrect
2,relearn,49,6,A,32.96371925315544,56.23888845406499,1.648185962657772,0.883398394066732,A,1226,Correct
2,relearn,49,7,A,59.18610205243064,75.79965490555621,2.9593051026215322,1.1906581949796844,A,1046,Correct
2,relearn,49,8,B,68.08321029290948,59.04143105753296,3.4041605146454743,0.927420630338869,B,861,Correct
2,relearn,49,9,B,39.6089944806774,19.576380125131593,1.9804497240338703,0.30750505992497323,B,1145,Correct
2,relearn,49,10,B,74.89531217034595,63.72996898051414,3.7447656085172976,1.0010680118134432,A,927,Incorrect
2,relearn,49,11,B,52.3096035972404,30.193274369240957,2.61548017986202,0.47427484473114195,B,1238,Correct
2,relearn,49,12,A,14.424425309026507,36.95427755556415,0.7212212654513253,0.5804764344363924,A,899,Correct
2,relearn,49,13,A,19.940913968369884,38.91483510937306,0.9970456984184942,0.6112728004763228,A,1028,Correct
2,relearn,49,14,A,40.56139139171304,73.00073314622833,2.028069569585652,1.146692834794299,B,972,Incorrect
2,relearn,49,15,B,42.48453170001503,32.12570688972447,2.1242265850007516,0.5046294237806871,B,645,Correct
2,relearn,49,16,A,33.8154082028893,41.84961918593241,1.6907704101444652,0.6573722809502787,B,777,Incorrect
2,relearn,49,17,A,39.48404108737001,59.94355603370225,1.9742020543685004,0.9415911763276356,A,792,Correct
2,relearn,49,18,B,70.38542994087216,49.539066683268324,3.519271497043608,0.7781578397892532,A,721,Incorrect
2,relearn,49,19,A,51.71532263694312,69.54486999396637,2.585766131847156,1.09240826333951,A,814,Correct
2,relearn,49,20,B,66.73923426784579,41.605599613634695,3.3369617133922898,0.6535392304719655,B,809,Correct
2,relearn,49,21,B,55.82826967603251,38.332892522471624,2.791413483801626,0.6021316676972199,B,580,Correct
2,relearn,49,22,B,53.38352112756315,23.942539578442396,2.6691760563781575,0.3760885322395875,B,524,Correct
2,relearn,49,23,A,68.12098837710147,87.60418880763544,3.4060494188550736,1.376083379908803,A,481,Correct
2,relearn,49,24,B,62.60224539017154,55.239136709169145,3.130112269508577,0.8676943303808403,A,550,Incorrect
2,relearn,49,25,B,79.04836142764242,56.39147418516145,3.952418071382121,0.8857952051260084,B,773,Correct
2,relearn,49,26,A,34.97511181751488,45.21962470845457,1.748755590875744,0.7103082039108417,B,569,Incorrect
2,relearn,49,27,A,44.09732083897748,67.03631591817346,2.204866041948874,1.0530039880612911,A,230,Correct
2,relearn,49,28,B,66.44628834543828,42.25184990296686,3.322314417271914,0.6636905062786965,A,362,Incorrect
2,relearn,49,29,A,57.48415905938612,71.0693190670259,2.8742079529693063,1.116354253382988,A,1346,Correct
2,relearn,49,30,B,78.41650797445766,59.351661205470805,3.920825398722883,0.932293714107287,B,908,Correct
2,relearn,49,31,B,60.43309686697216,47.51738493124205,3.0216548433486077,0.7464013370889419,B,1012,Correct
2,relearn,49,32,B,59.22007435930909,45.045275455667216,2.9610037179654545,0.7075695322522637,B,664,Correct
2,relearn,49,33,A,32.09941733740636,61.291979618644646,1.6049708668703178,0.9627721644695468,A,1543,Correct
2,relearn,49,34,B,52.08609090292587,45.45249263177999,2.6043045451462934,0.7139660846967211,B,1149,Correct
2,relearn,49,35,A,60.428711904795186,84.70429963072692,3.021435595239759,1.3305320272368018,A,535,Correct
2,relearn,49,36,B,55.8815842439513,45.60474975721495,2.7940792121975653,0.7163577340303369,A,1048,Incorrect
2,relearn,49,37,B,76.64375853923376,58.51602119617151,3.832187926961688,0.9191675115359852,B,372,Correct
2,relearn,49,38,B,73.99778696779322,46.10101860719438,3.699889348389661,0.724153106896841,B,410,Correct
2,relearn,49,39,A,57.44737554813679,83.83455737892065,2.8723687774068396,1.3168701478928455,A,665,Correct
2,relearn,49,40,A,43.91395499384499,70.44614235077017,2.195697749692249,1.106565416414602,A,564,Correct
2,relearn,49,41,B,53.724814011259646,24.350936699368326,2.6862407005629825,0.3825036192138281,B,633,Correct
2,relearn,49,42,B,73.29853430272044,48.49991767932321,3.664926715136022,0.7618349254053578,B,905,Correct
2,relearn,49,43,A,60.751608721370786,71.82691562096328,3.0375804360685392,1.128254552224161,A,639,Correct
2,relearn,49,44,A,17.890013591011257,36.7411486626236,0.8945006795505628,0.5771286136147438,A,724,Correct
2,relearn,49,45,B,60.83002652123095,38.45023215208981,3.0415013260615473,0.603974834289137,B,512,Correct
2,relearn,49,46,B,35.75324206659599,23.73090965500334,1.7876621033297995,0.3727642571758079,B,531,Correct
2,relearn,49,47,B,84.87048280513694,61.07600637916203,4.243524140256847,0.9593796647568938,B,549,Correct
2,relearn,49,48,A,30.578697246663864,41.695400519833285,1.5289348623331933,0.6549498198079615,B,398,Incorrect
2,relearn,49,49,A,59.71085786534499,84.83038122314741,2.9855428932672496,1.3325125122593073,A,358,Correct
2,relearn,49,50,B,54.96221584171178,22.927230533367908,2.748110792085589,0.360140095053941,A,279,Incorrect
2,relearn,49,51,A,61.81617883988301,81.41992904180145,3.0908089419941507,1.2789412546676286,A,248,Correct
2,relearn,49,52,A,57.497543379250615,69.3245514776126,2.8748771689625308,1.0889475081773758,A,803,Correct
2,relearn,49,53,B,55.90679459621905,35.810805784866275,2.7953397298109524,0.5625148218643338,B,437,Correct
2,relearn,49,54,B,66.95423518417203,55.35389942481392,3.3477117592086016,0.8694970189027185,B,353,Correct
2,relearn,49,55,B,57.520882905735924,26.41428644757105,2.876044145286796,0.4149146412675282,B,372,Correct
2,relearn,49,56,A,37.791094044602936,65.56908774926377,1.8895547022301469,1.029956821878358,B,1497,Incorrect
2,relearn,49,57,A,59.17939328025519,84.29690300885972,2.9589696640127596,1.3241326560650248,A,481,Correct
2,relearn,49,58,A,39.58330635909354,62.87066971817405,1.979165317954677,0.9875701705644294,B,296,Incorrect
2,relearn,49,59,A,60.805842963334854,85.80264983768384,3.0402921481667424,1.347784871943025,A,1019,Correct
2,relearn,49,60,A,58.25490534136177,85.91949392045109,2.9127452670680882,1.34962025450321,A,631,Correct
2,relearn,49,61,A,39.23302816524004,58.46839802393434,1.9616514082620022,0.9184194484957806,B,489,Incorrect
2,relearn,49,62,B,81.13501263605848,52.57453117400246,4.056750631802924,0.8258388045108683,A,729,Incorrect
2,relearn,49,63,A,28.940964105318713,55.71400109820711,1.4470482052659355,0.8751534827611057,A,860,Correct
2,relearn,49,64,B,66.90578449785232,55.648883152501746,3.3452892248926163,0.8741306124618815,B,1103,Correct
2,relearn,49,65,A,39.903152657207194,52.02655544480478,1.9951576328603595,0.8172312218849039,B,767,Incorrect
2,relearn,49,66,B,36.84466390998213,20.785781821639137,1.8422331954991065,0.32650229734990893,B,390,Correct
2,relearn,49,67,A,38.216215642545855,69.09282370334357,1.9108107821272926,1.0853075368109943,B,1102,Incorrect
2,relearn,49,68,A,49.6772151847584,72.34162346681816,2.48386075923792,1.1363395641605747,A,890,Correct
2,relearn,49,69,B,46.93224996930394,19.556969524991704,2.346612498465197,0.30720015893096697,A,409,Incorrect
2,relearn,49,70,A,26.240128426701364,38.050576462079746,1.3120064213350682,0.5976970573906322,A,404,Correct
2,relearn,49,71,B,61.7573596364911,36.499850341013314,3.087867981824555,0.5733383084422717,B,728,Correct
2,relearn,49,72,A,13.295760816320339,41.83684527179713,0.664788040816017,0.6571716287762537,A,1689,Correct
2,relearn,49,73,B,85.06401491023182,65.26429994881138,4.253200745511591,1.0251692263043328,A,953,Incorrect
2,relearn,49,74,B,79.13949468538844,66.43129718228825,3.9569747342694224,1.0435003759815855,B,375,Correct
2,relearn,49,75,A,64.06418450057745,89.28358064884048,3.2032092250288726,1.4024632052629453,A,694,Correct
2,relearn,49,76,B,57.08401178340385,44.89284571466026,2.8542005891701927,0.7051751714795834,A,904,Incorrect
2,relearn,49,77,A,61.61683115592791,78.31935625664771,3.0808415577963957,1.2302375712488312,B,685,Incorrect
2,relearn,49,78,B,30.598487762925274,15.219152189622818,1.5299243881462639,0.2390618835639203,B,774,Correct
2,relearn,49,79,A,26.949490743519966,45.695939951265366,1.3474745371759982,0.7177901462488779,B,666,Incorrect
2,relearn,49,80,B,69.00416635802223,47.42638107089372,3.4502083179011116,0.7449718517933486,A,393,Incorrect
2,relearn,49,81,B,52.15607195744332,20.89873088412046,2.6078035978721656,0.32827649707451484,B,633,Correct
2,relearn,49,82,B,80.75926296361685,55.988335614298066,4.037963148180842,0.8794627192629929,A,260,Incorrect
2,relearn,49,83,A,64.73577115488713,79.43871710531252,3.2367885577443563,1.2478204503432382,B,928,Incorrect
2,relearn,49,84,A,10.31830003054452,32.75740300769611,0.515915001527226,0.5145520831982915,B,977,Incorrect
2,relearn,49,85,B,87.89549003321763,68.17736367704155,4.394774501660882,1.0709275243445668,A,315,Incorrect
2,relearn,49,86,A,66.6713429289599,86.38213549669028,3.3335671464479955,1.3568874113890013,B,529,Incorrect
2,relearn,49,87,B,58.92422757105277,29.09125741818775,2.9462113785526385,0.456964402943341,B,587,Correct
2,relearn,49,88,A,42.71716215475005,66.21633945900128,2.1358581077375023,1.0401238279600318,A,561,Correct
2,relearn,49,89,B,36.20429817039896,17.528495039730824,1.8102149085199477,0.27533695622651744,B,833,Correct
2,relearn,49,90,B,77.09480307471287,49.55931622119803,3.854740153735644,0.7784759187872459,A,540,Incorrect
2,relearn,49,91,B,61.01358847633224,42.23413436622597,3.0506794238166117,0.6634122312782986,B,1089,Correct
2,relearn,49,92,B,48.81973610862956,36.64410020485228,2.440986805431478,0.5756041800048608,B,469,Correct
2,relearn,49,93,A,31.312623588488893,43.60398098287008,1.5656311794244449,0.6849297316152684,B,1499,Incorrect
2,relearn,49,94,A,25.53261644848548,36.706015130841095,1.2766308224242742,0.576576737388031,B,894,Incorrect
2,relearn,49,95,A,49.45823140263824,57.1953474160887,2.4729115701319118,0.8984224163095011,A,556,Correct
2,relearn,49,96,B,40.61553220098017,15.337605167070702,2.0307766100490086,0.2409225385826509,A,520,Incorrect
2,relearn,49,97,A,66.50781671979679,88.06643035623324,3.3253908359898396,1.3833442531750975,100,365,Incorrect
2,relearn,49,98,A,19.672373727184766,39.81751149038301,0.9836186863592382,0.6254520079120722,A,477,Correct
2,relearn,49,99,B,55.67317951860589,35.17078548200972,2.7836589759302943,0.5524614064563215,A,547,Incorrect
2,relearn,49,100,A,21.07963328164073,51.042205144501104,1.0539816640820365,0.8017690835249393,B,981,Incorrect
2,relearn,49,101,A,43.48174710822689,59.60544813799843,2.1740873554113445,0.9362801899213165,A,742,Correct
2,relearn,49,102,B,35.07931887655556,14.72151634699896,1.7539659438277782,0.23124503802716992,A,676,Incorrect
2,relearn,49,103,B,80.80210321155133,60.40660193057545,4.040105160577566,0.9488646842670942,A,97,Incorrect
2,relearn,49,104,B,70.67700922850698,39.19801763661005,3.5338504614253488,0.6157210212122863,B,633,Correct
2,relearn,49,105,B,49.36360940285449,42.40344598330872,2.4681804701427246,0.6660717719402715,B,459,Correct
2,relearn,49,106,B,76.19626323901537,48.01199420282071,3.8098131619507685,0.7541706413588865,B,632,Correct
2,relearn,49,107,A,42.36970325030564,64.46437110934161,2.118485162515282,1.0126039734769685,B,365,Incorrect
2,relearn,49,108,B,31.528911554962836,14.633293140840795,1.5764455777481419,0.22985923114545675,A,683,Incorrect
2,relearn,49,109,A,46.64374378058991,58.8852162294731,2.3321871890294954,0.9249668135577956,B,268,Incorrect
2,relearn,49,110,B,46.780368976936394,18.874657784311218,2.3390184488468195,0.29648243117106765,B,321,Correct
2,relearn,49,111,B,52.79233669281427,22.903356498925298,2.639616834640713,0.3597650825978588,B,1950,Correct
2,relearn,49,112,A,22.442475807053537,45.0564374391339,1.1221237903526768,0.7077448642785558,B,369,Incorrect
2,relearn,49,113,B,49.71931179984671,41.396019020858304,2.485965589992335,0.650247146218959,A,1568,Incorrect
2,relearn,49,114,A,23.24998106843211,41.16618528535666,1.1624990534216055,0.6466369263439636,A,696,Correct
2,relearn,49,115,A,49.364002057351286,69.48872628951783,2.468200102867564,1.0915263600923055,A,967,Correct
2,relearn,49,116,B,71.39024603844054,38.80123561032489,3.5695123019220265,0.6094883837180167,B,703,Correct
2,relearn,49,117,B,39.412691169712915,19.51102786279343,1.9706345584856455,0.306478508988688,A,689,Incorrect
2,relearn,49,118,A,42.36227948611811,50.26714214692562,2.1181139743059054,0.789594422428677,B,642,Incorrect
2,relearn,49,119,B,39.12726584713112,27.348304819082543,1.9563632923565561,0.4295861675388203,A,536,Incorrect
2,relearn,49,120,B,75.34159342532843,59.863991314008345,3.7670796712664214,0.9403413766332591,B,784,Correct
2,relearn,49,121,B,82.03118672111545,60.96149460221041,4.1015593360557725,0.9575809179707901,B,295,Correct
2,relearn,49,122,B,50.13158751830833,27.84758953634433,2.5065793759154165,0.43742891353781677,B,784,Correct
2,relearn,49,123,A,25.261895238379736,43.40661589747066,1.2630947619189867,0.6818295281034388,A,944,Correct
2,relearn,49,124,A,27.892388552383085,55.28263268329086,1.3946194276191541,0.8683775635446477,A,417,Correct
2,relearn,49,125,B,65.825210001377,34.33481875743728,3.29126050006885,0.53933007185351,A,1233,Incorrect
2,relearn,49,126,A,27.431820464163962,38.74356663681103,1.371591023208198,0.6085825216003606,B,416,Incorrect
2,relearn,49,127,A,62.8475435813813,83.8874116933804,3.1423771790690647,1.317700381522932,A,1014,Correct
2,relearn,49,128,A,47.74924308457647,62.329916714938406,2.3874621542288237,0.9790760422525707,A,403,Correct
2,relearn,49,129,A,24.438523427912784,42.39999708289973,1.2219261713956393,0.6660175967393324,B,465,Incorrect
2,relearn,49,130,A,25.605447015645773,56.22498749962971,1.2802723507822886,0.8831800383850734,A,494,Correct
2,relearn,49,131,A,24.79068728375961,35.82153507603458,1.2395343641879806,0.5626833571758966,A,291,Correct
2,relearn,49,132,A,43.58599941009497,56.43504197243249,2.179299970504749,0.8864795663281275,A,327,Correct
2,relearn,49,133,B,82.0826027767557,54.91932945200864,4.104130138837785,0.8626708097325394,A,557,Incorrect
2,relearn,49,134,A,40.966793548738636,67.22056063583202,2.048339677436932,1.0558980973185854,B,252,Incorrect
2,relearn,49,135,B,65.60148233373457,32.86719658797062,3.280074116686728,0.5162767167243001,107,418,Incorrect
2,relearn,49,136,A,58.92735803243052,85.43399709852876,2.946367901621526,1.3419940882577484,B,352,Incorrect
2,relearn,49,137,B,76.39528681654727,63.07055958475249,3.8197643408273634,0.9907100332462786,B,414,Correct
2,relearn,49,138,A,68.5655999690605,89.00412963159977,3.428279998453025,1.3980735989489372,B,339,Incorrect
2,relearn,49,139,B,57.785545528447564,37.571723959653745,2.889277276422378,0.590175259871759,B,359,Correct
2,relearn,49,140,A,34.538328021567764,66.26472929874133,1.7269164010783882,1.0408839337852103,A,549,Correct
2,relearn,49,141,B,70.94575150544193,46.87333998262473,3.5472875752720965,0.7362847026931528,B,470,Correct
2,relearn,49,142,A,40.400614247590646,69.89922183827754,2.0200307123795325,1.0979744090938797,A,679,Correct
2,relearn,49,143,A,19.743117372796778,37.263731639917765,0.9871558686398388,0.5853373278265359,A,1015,Correct
2,relearn,49,144,A,30.65144013835627,48.80264021190704,1.5325720069178135,0.7665900798275648,A,538,Correct
2,relearn,49,145,B,87.71143414300502,66.08321365494047,4.385571707150251,1.0380326927198282,B,1007,Correct
2,relearn,49,146,B,76.39217692320763,44.35384989118953,3.8196088461603814,0.6967086448829275,B,711,Correct
2,relearn,49,147,A,46.48229942968109,70.1400838051433,2.3241149714840548,1.1017578600220532,A,846,Correct
2,relearn,49,148,A,67.00658292359626,79.9193009325772,3.350329146179813,1.2553694434490823,B,1373,Incorrect
2,relearn,49,149,A,61.01230406823228,78.46014163989967,3.0506152034116143,1.2324490228776173,A,985,Correct
2,relearn,49,150,A,14.282699295806399,34.461443857920045,0.7141349647903199,0.5413190942806935,A,767,Correct
2,relearn,49,151,B,70.84751314772953,56.274899065723304,3.542375657386476,0.8839640474319173,B,875,Correct
2,relearn,49,152,B,56.485467010703886,49.26740586125003,2.824273350535194,0.773890601575649,B,500,Correct
2,relearn,49,153,A,64.48419234042694,89.19742493356533,3.224209617021347,1.4011098744520796,A,875,Correct
2,relearn,49,154,B,60.9932941729782,53.11426895850787,3.04966470864891,0.8343169858042037,B,779,Correct
2,relearn,49,155,A,16.605461011642166,36.67836993319065,0.8302730505821083,0.5761424876388025,A,897,Correct
2,relearn,49,156,A,45.89326020283889,74.4326001414053,2.2946630101419445,1.1691845489591275,B,1852,Incorrect
2,relearn,49,157,B,45.207447730480744,19.632583301771525,2.260372386524037,0.3083878973591754,B,720,Correct
2,relearn,49,158,A,14.736259830341659,30.749115182261235,0.7368129915170829,0.48300597180489135,A,886,Correct
2,relearn,49,159,B,70.00281563070622,41.691298782343225,3.500140781535311,0.6548853898661328,B,845,Correct
2,relearn,49,160,A,51.021732775756774,74.94894546059167,2.551086638787839,1.1772952822664844,B,739,Incorrect
2,relearn,49,161,B,75.57728936297823,44.16921120810496,3.778864468148912,0.6938083472311924,B,1592,Correct
2,relearn,49,162,A,33.47238001158772,63.25052378472311,1.6736190005793858,0.993536904288963,A,974,Correct
2,relearn,49,163,B,65.62441255284175,41.131406728773875,3.2812206276420874,0.6460906260546491,B,807,Correct
2,relearn,49,164,A,41.51537964482296,55.27699190223332,2.075768982241148,0.8682889583629935,A,485,Correct
2,relearn,49,165,A,28.305900375883287,49.67936671948965,1.4152950187941644,0.7803616676047097,A,678,Correct
2,relearn,49,166,A,18.337359981496014,40.594035445682444,0.9168679990748007,0.6376496176785981,A,652,Correct
2,relearn,49,167,A,24.821199395673972,50.87879879757325,1.2410599697836986,0.7992023026296465,A,715,Correct
2,relearn,49,168,B,57.83314870442594,41.69330897274445,2.8916574352212967,0.6549169658631169,B,569,Correct
2,relearn,49,169,A,49.65440835810649,75.98429433699776,2.482720417905324,1.1935585043865835,A,1013,Correct
2,relearn,49,170,A,24.86502588679516,51.898406302396076,1.243251294339758,0.8152182598631287,A,567,Correct
2,relearn,49,171,B,73.10412559021543,50.56030388555604,3.655206279510771,0.7941993962506515,B,708,Correct
2,relearn,49,172,A,25.964525051327186,52.960238798388005,1.2982262525663595,0.8318974857068844,A,2444,Correct
2,relearn,49,173,B,48.721093916267066,21.32233933999306,2.4360546958133535,0.33493052313935423,B,645,Correct
2,relearn,49,174,A,25.464267376491126,41.735808435478674,1.2732133688245562,0.6555845458626537,A,432,Correct
2,relearn,49,175,B,63.48361660229004,40.811339862614126,3.1741808301145022,0.641063027477724,B,581,Correct
2,relearn,49,176,B,78.19190018158993,58.574878933776006,3.909595009079496,0.9200920467163112,A,1106,Incorrect
2,relearn,49,177,B,62.33724067205165,42.138636661703536,3.1168620336025823,0.6619121568434867,B,484,Correct
2,relearn,49,178,A,28.52645175552544,40.21433803241227,1.426322587776272,0.6316853446580151,A,519,Correct
2,relearn,49,179,A,29.195781838505685,61.38074508304694,1.4597890919252843,0.9641664891238403,B,1266,Incorrect
2,relearn,49,180,B,69.25121686441273,39.40703460499922,3.4625608432206367,0.6190042520741214,B,1138,Correct
2,relearn,49,181,A,34.598723323873536,43.11409836931968,1.729936166193677,0.677234673516012,A,691,Correct
2,relearn,49,182,B,57.448177243970726,47.89139345470211,2.872408862198536,0.7522762492373523,B,624,Correct
2,relearn,49,183,B,76.23345043535255,58.25752741290489,3.8116725217676275,0.9151071006834399,B,362,Correct
2,relearn,49,184,A,47.087552112460166,71.86046106841533,2.3543776056230086,1.1287814828805447,A,695,Correct
2,relearn,49,185,B,35.43489457449071,10.597628534218867,1.7717447287245358,0.1664671597428778,B,766,Correct
2,relearn,49,186,A,18.56643035734662,48.4744857222145,0.928321517867331,0.761435441157262,A,548,Correct
2,relearn,49,187,A,16.604801939460163,38.47163187674582,0.8302400969730082,0.6043109803779778,B,375,Incorrect
2,relearn,49,188,A,20.109495812019155,36.20093405709981,1.0054747906009578,0.5686429424343665,A,262,Correct
2,relearn,49,189,B,61.32324900595221,44.494974507285406,3.0661624502976106,0.6989254251687648,B,1139,Correct
2,relearn,49,190,B,88.41618458332817,63.070882638798444,4.420809229166409,0.990715107767366,B,378,Correct
2,relearn,49,191,B,86.11772215883589,57.95093298770449,4.305886107941794,0.910291126714234,A,638,Incorrect
2,relearn,49,192,A,51.17632301434945,80.67461989680797,2.5588161507174725,1.2672339659948044,A,627,Correct
2,relearn,49,193,B,46.75279496523569,18.21126069821956,2.3376397482617843,0.2860618141106755,B,619,Correct
2,relearn,49,194,A,10.321531128989303,32.54947660819332,0.5160765564494652,0.5112859829524646,A,539,Correct
2,relearn,49,195,B,44.364788823902195,22.471731405477335,2.21823944119511,0.35298513148445315,A,1582,Incorrect
2,relearn,49,196,A,37.97912764022265,51.09423873242158,1.8989563820111326,0.8025864252126935,B,600,Incorrect
2,relearn,49,197,B,37.67276709719733,27.764624102979546,1.8836383548598663,0.4361256955580132,B,1145,Correct
2,relearn,49,198,B,58.23475806641798,37.38450400422415,2.911737903320899,0.5872344156888439,B,701,Correct
2,relearn,49,199,A,56.023011933635566,67.74580577574432,2.801150596681778,1.0641486286829966,A,519,Correct
2,relearn,49,200,A,46.19734234288686,57.932156046035274,2.3098671171443432,0.9099961792042097,A,523,Correct
2,relearn,49,201,B,76.09992215003632,51.85765596820337,3.804996107501816,0.8145781551104729,A,490,Incorrect
2,relearn,49,202,B,32.55409426928003,18.54304661346967,1.6277047134640015,0.291273495080247,B,1050,Correct
2,relearn,49,203,B,44.041881463300044,29.742475684060025,2.2020940731650023,0.46719371554308026,A,756,Incorrect
2,relearn,49,204,A,26.988759843782425,57.846694978288504,1.349437992189121,0.9086537598912037,B,704,Incorrect
2,relearn,49,205,A,18.565896682310214,35.75339050009846,0.9282948341155106,0.5616129446801821,A,477,Correct
2,relearn,49,206,B,33.82924379918593,21.588315899140483,1.6914621899592965,0.33910847316057735,A,232,Incorrect
2,relearn,49,207,B,59.08789059444904,29.267992899353192,2.954394529722452,0.4597405573896311,B,773,Correct
2,relearn,49,208,A,60.800212660785824,84.05728988273526,3.0400106330392913,1.3203688218813436,A,1065,Correct
2,relearn,49,209,A,27.299243069743724,49.834441253950516,1.3649621534871863,0.7827975726958153,B,594,Incorrect
2,relearn,49,210,B,70.84854065881827,61.84369499468765,3.542427032940913,0.971438489330793,A,1802,Incorrect
2,relearn,49,211,B,85.4588477867574,63.0739454026819,4.27294238933787,0.990763217549946,B,1223,Correct
2,relearn,49,212,B,42.194252225680366,25.539915576587383,2.1097126112840185,0.40118005574355226,B,552,Correct
2,relearn,49,213,B,57.759232397814664,42.73894970617683,2.887961619890733,0.6713418520953439,B,611,Correct
2,relearn,49,214,A,34.216008289210315,44.48925037851719,1.7108004144605158,0.6988355107643327,B,551,Incorrect
2,relearn,49,215,A,42.40350642014786,56.86638517889712,2.1201753210073933,0.8932550895711532,A,307,Correct
2,relearn,49,216,A,51.95047828171975,78.11403749902784,2.597523914085987,1.2270124317459175,B,600,Incorrect
2,relearn,49,217,B,73.90686878598586,57.18987667370708,3.695343439299293,0.8983364820891222,B,531,Correct
2,relearn,49,218,B,57.848119763418254,29.303005099904183,2.8924059881709128,0.46029052774981616,B,490,Correct
2,relearn,49,219,A,17.795691278510226,36.62255258985035,0.8897845639255112,0.5752657108598985,B,511,Incorrect
2,relearn,49,220,A,31.095798512815485,46.622358462844154,1.5547899256407742,0.7323422941995056,A,399,Correct
2,relearn,49,221,A,23.915810590644067,41.0844465000832,1.1957905295322033,0.6453529765073214,A,319,Correct
2,relearn,49,222,A,38.85924548117348,46.54677582620875,1.942962274058674,0.731155044919542,B,528,Incorrect
2,relearn,49,223,B,76.57089585500023,62.7259695818371,3.8285447927500114,0.9852972261379812,A,906,Incorrect
2,relearn,49,224,A,32.56165710989203,42.82277070815758,1.6280828554946014,0.6726585093155402,B,272,Incorrect
2,relearn,49,225,B,74.8979137973996,43.27837185516071,3.74489568986998,0.6798150753975006,B,48,Correct
2,relearn,49,226,A,57.50925348688617,77.53057915637835,2.875462674344309,1.2178474895312008,B,423,Incorrect
2,relearn,49,227,B,47.58474419034909,25.209977469399163,2.3792372095174543,0.39599740007514306,A,511,Incorrect
2,relearn,49,228,A,19.908926753795498,39.54797460320839,0.9954463376897749,0.6212181323889758,A,788,Correct
2,relearn,49,229,B,54.33097652917905,47.68990691670277,2.7165488264589523,0.7491113060994722,A,335,Incorrect
2,relearn,49,230,A,43.25447317162914,63.06740427215799,2.162723658581457,0.9906604697119454,A,608,Correct
2,relearn,49,231,B,71.9566996195843,46.66028145640436,3.597834980979215,0.73293798718936,B,400,Correct
2,relearn,49,232,A,40.95197062566956,70.42279504271829,2.047598531283478,1.1061986777573174,B,1269,Incorrect
2,relearn,49,233,B,52.60788655676002,27.5240231649534,2.630394327838001,0.4323463448612644,B,1448,Correct
2,relearn,49,234,A,24.62178595582686,54.20660105250498,1.2310892977913428,0.851475298213112,A,451,Correct
2,relearn,49,235,A,35.29108004151292,55.586213161946205,1.7645540020756458,0.8731461945522323,A,381,Correct
2,relearn,49,236,B,48.49160582431638,20.737134522806066,2.4245802912158188,0.32573814736675405,B,684,Correct
2,relearn,49,237,B,74.52505376399903,54.283331616234996,3.7262526881999514,0.8526805790897121,B,928,Correct
2,relearn,49,238,B,70.5136099083571,59.19205530443432,3.525680495417855,0.9297866304764579,A,369,Incorrect
2,relearn,49,239,B,35.95371033431692,23.991175257393508,1.797685516715846,0.3768524996980633,A,328,Incorrect
2,relearn,49,240,A,29.342936153913563,56.90937235050955,1.4671468076956782,0.8939303304838345,B,730,Incorrect
2,relearn,49,241,B,67.71180634820483,55.643767069867536,3.3855903174102417,0.8740502492237875,107,319,Incorrect
2,relearn,49,242,A,59.92757729954165,75.61264679169092,2.996378864977083,1.1877206783962804,B,305,Incorrect
2,relearn,49,243,A,33.355712552298016,50.397178505945845,1.667785627614901,0.7916370287796645,A,659,Correct
2,relearn,49,244,A,28.743506089369404,39.298640606456914,1.4371753044684703,0.6173016031265529,A,787,Correct
2,relearn,49,245,A,30.844737580629815,40.962569922401535,1.5422368790314909,0.6434385437018744,A,1822,Correct
2,relearn,49,246,B,73.29279902481036,42.319128332582366,3.6646399512405186,0.6647473133798222,B,1223,Correct
2,relearn,49,247,B,52.77276947437825,38.12275894237996,2.638638473718913,0.5988308971397773,B,406,Correct
2,relearn,49,248,A,69.09802786240502,89.32370575446947,3.454901393120251,1.403093488948288,B,475,Incorrect
2,relearn,49,249,A,34.41809703353231,61.067322132126165,1.7209048516766157,0.9592432529234447,B,184,Incorrect
2,relearn,49,250,B,64.18996208628602,52.55343879840534,3.2094981043143007,0.825507486249755,B,753,Correct
2,relearn,49,251,B,64.0765869619942,37.74549765853685,3.2038293480997093,0.5929048907507505,A,358,Incorrect
2,relearn,49,252,B,58.61944784215073,27.20936493167737,2.9309723921075364,0.4274037048910069,B,456,Correct
2,relearn,49,253,B,78.91138650761872,67.1200499806013,3.945569325380936,1.054319279638184,B,710,Correct
2,relearn,49,254,B,66.78854091320757,37.01479273891144,3.3394270456603783,0.581427004713565,B,525,Correct
2,relearn,49,255,A,39.86021418143916,65.79039802421228,1.9930107090719582,1.0334331555480687,B,473,Incorrect
2,relearn,49,256,A,47.3931164136705,71.10123601713194,2.369655820683525,1.1168556036628785,A,31,Correct
2,relearn,49,257,B,34.71647638485243,16.407151229481794,1.7358238192426214,0.25772292884438375,A,386,Incorrect
2,relearn,49,258,A,50.30251683815791,73.37870703542987,2.5151258419078957,1.1526300347621208,A,1101,Correct
2,relearn,49,259,B,47.337271315422186,39.61859539232572,2.3668635657711095,0.6223274411503846,B,878,Correct
2,relearn,49,260,B,40.67243921606419,24.31979453221908,2.0336219608032096,0.38201443919616346,B,345,Correct
2,relearn,49,261,B,76.19335463231874,48.48161602146984,3.8096677316159373,0.7615474436360543,B,555,Correct
2,relearn,49,262,A,33.17337039867707,60.1833662510719,1.6586685199338536,0.9453581064133568,B,595,Incorrect
2,relearn,49,263,B,56.49583295764814,33.454262833579875,2.824791647882407,0.525498331746183,A,433,Incorrect
2,relearn,49,264,B,54.83707115799288,33.66252759199298,2.741853557899644,0.5287697469213444,B,697,Correct
2,relearn,49,265,A,39.742026634536906,53.19957215681263,1.987101331726845,0.8356569253098133,B,304,Incorrect
2,relearn,49,266,B,73.30620261737286,41.38597538628409,3.665310130868643,0.6500893811759904,A,310,Incorrect
2,relearn,49,267,B,68.99850274224521,41.16682982884715,3.44992513711226,0.6466470508094369,B,244,Correct
2,relearn,49,268,A,41.880825627158785,58.391923711278245,2.0940412813579394,0.917218192801637,B,273,Incorrect
2,relearn,49,269,B,57.10741430682333,26.719959451206584,2.8553707153411665,0.41971614158063886,A,264,Incorrect
2,relearn,49,270,B,69.86442017064898,40.38105128743225,3.4932210085324495,0.634304070344149,B,673,Correct
2,relearn,49,271,A,32.81209864568674,43.08423751705456,1.640604932284337,0.6767656203454818,107,14,Incorrect
2,relearn,49,272,B,32.0397352405609,12.484383808499238,1.601986762028045,0.19610424228688283,B,389,Correct
2,relearn,49,273,A,62.64758650950063,73.12422263105081,3.132379325475031,1.1486326030858687,B,539,Incorrect
2,relearn,49,274,A,52.5764072440271,61.47576449969051,2.628820362201355,0.9656590506302197,A,446,Correct
2,relearn,49,275,A,53.92943557990711,71.62006880095171,2.6964717789953556,1.1250054099733273,A,287,Correct
2,relearn,49,276,A,48.299377634727584,66.44984705435374,2.4149688817363795,1.0437917566906154,A,642,Correct
2,relearn,49,277,A,34.35092547790994,45.421427214289395,1.7175462738954967,0.7134781102598753,B,600,Incorrect
2,relearn,49,278,A,52.99339241413966,63.01692846862982,2.649669620706983,0.9898675976442048,A,212,Correct
2,relearn,49,279,A,62.13980525193843,71.3996374089423,3.1069902625969212,1.1215428817645405,A,283,Correct
2,relearn,49,280,A,21.040713439824135,43.08938164008245,1.0520356719912067,0.6768464240410497,A,123,Correct
2,relearn,49,281,A,59.1079188128801,84.1578515408076,2.9553959406440047,1.321948440712508,B,423,Incorrect
2,relearn,49,282,B,40.80548399740132,29.39686691525463,2.040274199870066,0.4617649056976039,A,338,Incorrect
2,relearn,49,283,B,66.18616999669976,52.019874358691794,3.3093084998349878,0.8171262756296509,A,274,Incorrect
2,relearn,49,284,A,21.89945155514152,46.40555249470266,1.094972577757076,0.728936714015667,B,25,Incorrect
2,relearn,49,285,A,48.07975325703301,75.67308539110797,2.4039876628516508,1.1886700456958896,A,282,Correct
2,relearn,49,286,B,52.904489522721015,44.30260725598907,2.645224476136051,0.6959037274514456,A,440,Incorrect
2,relearn,49,287,A,65.65054176993627,85.67910641741324,3.282527088496813,1.3458442564354176,A,548,Correct
2,relearn,49,288,A,44.892869796249244,65.86029820437709,2.244643489812462,1.0345311450105206,B,1191,Incorrect
2,relearn,49,289,B,57.380772712476784,24.627975658656545,2.869038635623839,0.38685533701011826,A,650,Incorrect
2,relearn,49,290,B,53.97553446960351,25.980612548014037,2.6987767234801754,0.40810250758301847,B,43,Correct
2,relearn,49,291,B,40.72908905182853,14.685111088688274,2.0364544525914265,0.23067318556686545,B,464,Correct
2,relearn,49,292,A,34.308594441550056,46.466547862577336,1.7154297220775028,0.7298948270137574,A,819,Correct
2,relearn,49,293,B,46.051831191308516,24.927207752734944,2.3025915595654256,0.39155566375249307,A,827,Incorrect
2,relearn,49,294,B,38.50385161591312,25.280455307358842,1.9251925807956558,0.3971044633650182,B,434,Correct
2,relearn,49,295,A,59.13358592181631,82.97730256634,2.9566792960908157,1.3034044207855562,B,450,Incorrect
2,relearn,49,296,A,55.30707092276805,75.5274033096691,2.7653535461384022,1.1863816769118491,A,470,Correct
2,relearn,49,297,B,82.17359170260931,67.72544664657704,4.108679585130465,1.0638288282298696,A,656,Incorrect
2,relearn,49,298,A,50.73123222937106,63.41527447932509,2.536561611468553,0.99612480214814,B,308,Incorrect
2,relearn,49,299,B,75.61395596704682,54.41090678977399,3.780697798352341,0.8546845252295647,B,573,Correct
2,relearn,49,300,A,18.257187797413607,41.56453807960059,0.9128593898706804,0.652894237403632,B,406,Incorrect
2,relearn,49,301,B,54.60193858146997,38.72548608163507,2.7300969290734987,0.6082985129037926,A,158,Incorrect
2,relearn,49,302,B,66.38885055455137,51.19112590075615,3.3194425277275683,0.8041083252940284,B,307,Incorrect
2,relearn,49,303,A,17.650947511489075,36.477294081143654,0.8825473755744538,0.5729839955407767,A,187,Correct
2,relearn,49,304,A,37.33535688968194,55.01400402203123,1.8667678444840972,0.8641579544008633,107,333,Incorrect
2,relearn,49,305,A,29.19033559517397,40.68930354607929,1.4595167797586983,0.639146085500239,B,401,Incorrect
2,relearn,49,306,A,51.67443795896827,81.75460396329724,2.5837218979484136,1.2841983160411878,A,322,Correct
2,relearn,49,307,A,17.9478851010429,48.52241742319221,0.897394255052145,0.7621883505555901,B,373,Incorrect
2,relearn,49,308,B,47.81366420450678,27.313395079214622,2.390683210225339,0.4290378066272813,A,503,Incorrect
2,relearn,49,309,A,10.527612385909812,35.88041758623713,0.5263806192954906,0.563608281483283,A,204,Correct
2,relearn,49,310,A,34.29828753314307,60.543085565968894,1.7149143766571535,0.9510085641985306,B,460,Correct
2,relearn,49,311,A,59.00994936281214,82.48958192935625,2.9504974681406066,1.2957433229347946,B,471,Incorrect
2,relearn,49,312,B,42.83513289244392,14.565200918320482,2.1417566446221965,0.22878964101527466,107,20,Correct
2,relearn,49,313,A,50.450350294987665,68.04415683201978,2.5225175147493832,1.0688351161159253,B,428,Correct
2,relearn,49,314,B,76.42353659241685,54.29379378152384,3.8211768296208426,0.8528449183977724,B,542,Correct
2,relearn,49,315,A,35.936086372613715,54.793323698924034,1.7968043186306857,0.8606915159915363,B,331,Incorrect
2,relearn,49,316,B,53.24118586945222,35.111083353956985,2.662059293472611,0.5515236076218507,A,774,Incorrect
2,relearn,49,317,B,52.14819713239359,38.74992836441364,2.6074098566196797,0.6086824513838631,B,503,Correct
2,relearn,49,318,B,33.84666215240286,20.73392397400563,1.6923331076201429,0.3256877161841269,B,80,Correct
2,relearn,49,319,B,75.02141927935507,63.86479344055296,3.751070963967754,1.0031858294793539,B,338,Incorrect
2,relearn,49,320,A,62.96451149025896,86.66323513956476,3.1482255745129475,1.3613029142539073,A,629,Correct
2,relearn,49,321,B,69.13313332967161,39.151882576569186,3.4566566664835805,0.6149963333837999,B,1242,Correct
2,relearn,49,322,A,26.047655031649967,54.82341700096305,1.3023827515824984,0.8611642204745763,A,1084,Correct
2,relearn,49,323,A,26.01761051819267,40.883309662805544,1.3008805259096334,0.6421935264555325,A,627,Incorrect
2,relearn,49,324,B,60.89763285764039,51.23960473445081,3.0448816428820193,0.8048698290329772,B,284,Correct
2,relearn,49,325,A,33.061440689903556,45.72046635616675,1.6530720344951777,0.7181754061161639,B,226,Correct
2,relearn,49,326,B,58.99319469837453,50.9904825756212,2.949659734918727,0.8009566273128496,B,577,Correct
2,relearn,49,327,B,55.90740701698806,30.406503513150017,2.7953703508494026,0.47762424029132167,B,285,Correct
2,relearn,49,328,B,51.624316802573055,42.14889345055248,2.581215840128653,0.662073270105973,A,186,Correct
2,relearn,49,329,B,61.130080397374165,32.6715141538071,3.056504019868708,0.5132029442362767,A,443,Incorrect
2,relearn,49,330,B,72.85870080364508,55.224029030405106,3.642935040182254,0.8674570195177508,B,281,Correct
2,relearn,49,331,A,20.410276349938556,33.37298535276174,1.0205138174969277,0.5242216280629802,A,481,Correct
2,relearn,49,332,A,48.40658505241673,57.076093681808416,2.420329252620837,0.8965491830318606,B,147,Correct
2,relearn,49,333,A,29.97401635791453,40.36042363553017,1.4987008178957266,0.6339800519457671,A,252,Incorrect
2,relearn,49,334,A,20.628368785116876,44.17225990931452,1.0314184392558439,0.6938562361178072,B,418,Incorrect
2,relearn,49,335,A,36.362791919333645,46.6076331862556,1.8181395959666822,0.7321109900957422,B,163,Incorrect
2,relearn,49,336,A,35.937451386677104,46.1896021642821,1.7968725693338552,0.7255445741577193,B,234,Incorrect
2,relearn,49,337,A,13.508287810700846,38.19206417335849,0.6754143905350424,0.5999195411622649,B,290,Incorrect
2,relearn,49,338,A,30.08942159910046,46.89518243496398,1.5044710799550232,0.7366278031321797,B,292,Incorrect
2,relearn,49,339,A,63.305695644365805,86.5791585391924,3.16528478221829,1.3599822421035646,B,241,Incorrect
2,relearn,49,340,A,58.292122156410485,66.88155050057699,2.914606107820524,1.050572938566537,A,135,Correct
2,relearn,49,341,B,67.91593902786742,36.03346596274159,3.395796951393371,0.5660123597596343,A,542,Incorrect
2,relearn,49,342,A,28.731248643743335,41.923400002787915,1.4365624321871666,0.6585312273113242,A,253,Correct
2,relearn,49,343,B,58.536710603378275,29.173961482188215,2.9268355301689137,0.4582635153427704,A,260,Incorrect
2,relearn,49,344,B,40.7632470454662,22.465989175085443,2.03816235227331,0.35289493274038125,B,288,Incorrect
2,relearn,49,345,B,55.87460803806174,34.20381702934746,2.793730401903087,0.5372723015206372,A,186,Incorrect
2,relearn,49,346,B,35.58599667060035,16.988212953197447,1.7792998335300176,0.2668502250569203,B,189,Correct
2,relearn,49,347,A,60.83648204773576,78.5983162042163,3.041824102386788,1.2346194638584678,B,525,Incorrect
2,relearn,49,348,A,51.841925742166744,68.0851790900956,2.5920962871083373,1.0694794922389486,A,134,Incorrect
2,relearn,49,349,A,37.512622133703665,69.48409690019636,1.8756311066851834,1.091453641814891,B,212,Correct
2,relearn,49,350,A,64.2567121627907,79.28303733758369,3.212835608139535,1.2453750382701911,A,67,Incorrect
2,relearn,49,351,B,83.80593571555438,56.08841611876578,4.190296785777719,0.8810347801510096,B,420,Correct
2,relearn,49,352,A,30.81782389677717,55.35682944296092,1.5408911948388584,0.869543043520146,B,427,Incorrect
2,relearn,49,353,A,47.999556861894,55.333518033510025,2.3999778430947,0.8691768687567673,B,766,Correct
2,relearn,49,354,B,82.87788996153571,66.39682892123429,4.1438944980767864,1.0429589498030398,B,517,Incorrect
2,relearn,49,355,B,66.02821548650182,55.09716556382851,3.3014107743250913,0.865464252844721,A,455,Correct
2,relearn,49,356,B,63.341869821258726,46.830497273426744,3.1670934910629365,0.7356117309907715,A,224,Incorrect
2,relearn,49,357,B,53.21895774623438,23.219390050708846,2.660947887311719,0.36472932602071434,B,311,Correct
2,relearn,49,358,B,60.25081325703538,34.246800399428814,3.012540662851769,0.5379474827190078,B,208,Incorrect
2,relearn,49,359,B,81.44953486090522,57.17855536723897,4.072476743045261,0.8981586474229759,A,1251,Incorrect
2,relearn,49,360,A,56.73729088222299,65.56835252875655,2.8368645441111493,1.0299452730616365,B,15,Correct
2,relearn,49,361,A,18.325737747960883,49.20437943539033,0.9162868873980442,0.7729005847933348,B,111,Incorrect
2,relearn,49,362,A,41.00724123405682,55.93086602702625,2.0503620617028413,0.8785599890971031,100,56,Incorrect
2,relearn,49,363,A,62.04788661900976,81.35856642762937,3.102394330950488,1.2779773729781878,A,88,Correct
2,relearn,49,364,B,36.23641683914563,24.885706368494112,1.8118208419572819,0.3909037615332692,B,575,Correct
2,relearn,49,365,B,42.762197253270955,15.634613181857809,2.1381098626635477,0.24558792956921316,B,282,Correct
2,relearn,49,366,B,79.37598979332849,50.63724190254634,3.968799489666424,0.7954079357954441,A,625,Incorrect
2,relearn,49,367,B,54.54659237645759,37.22989944973802,2.7273296188228797,0.5848058930259182,B,653,Correct
2,relearn,49,368,A,53.463076216645305,72.74656071251333,2.673153810832265,1.1427003035417789,B,153,Correct
2,relearn,49,369,B,44.362347299377745,16.39156316749159,2.2181173649688875,0.25747807213922314,B,472,Correct
2,relearn,49,370,B,84.46507063345473,66.89565964182783,4.223253531672737,1.0507945644390477,107,413,Incorrect
2,relearn,49,371,B,69.44042766738248,45.706439481679496,3.4720213833691242,0.717955072486954,A,293,Incorrect
2,relearn,49,372,B,71.92260361994275,47.597494364894985,3.5961301809971373,0.7476596931301783,B,369,Correct
2,relearn,49,373,B,62.82406201225641,35.18088139642695,3.1412031006128207,0.5526199927091435,B,777,Correct
2,relearn,49,374,A,44.15342637932845,67.87246516599238,2.2076713189664225,1.0661381897325541,A,725,Incorrect
2,relearn,49,375,B,71.6114663754507,50.34493566316816,3.5805733187725353,0.7908164001242993,B,289,Incorrect
2,relearn,49,376,B,54.309166106508364,35.85487105036726,2.715458305325418,0.5632069974362156,B,347,Correct
2,relearn,49,377,B,74.9537364390785,44.91141447133201,3.747686821953925,0.7054668488273148,B,320,Correct
2,relearn,49,378,B,76.95331445967659,63.54441678040147,3.8476657229838294,0.9981533646697861,A,380,Incorrect
2,relearn,49,379,B,59.7419874483823,48.98104113368886,2.987099372419115,0.769392394953882,B,484,Incorrect
2,relearn,49,380,B,88.52101595049662,69.02293063886482,4.426050797524831,1.0842096591214778,B,349,Incorrect
2,relearn,49,381,A,53.9359907960002,69.72825711976974,2.6967995398000095,1.0952889015754441,A,126,Correct
2,relearn,49,382,B,68.36015852513457,36.07236136487414,3.4180079262567284,0.5666233273076243,B,345,Correct
2,relearn,49,383,A,49.010448210271626,57.43329236507735,2.450522410513581,0.9021600468280088,B,331,Incorrect
2,relearn,49,384,B,54.4337555887721,24.23295051655044,2.721687779438605,0.3806502965879992,B,249,Correct
2,relearn,49,385,A,40.5300050949706,55.53321624662775,2.02650025474853,0.8723137209530955,B,548,Correct
2,relearn,49,386,A,49.85918691300339,78.19521698228989,2.4929593456501693,1.2282875960871087,B,512,Incorrect
2,relearn,49,387,B,43.377211462126276,14.61291401053451,2.1688605731063135,0.2295391165151729,B,109,Incorrect
2,relearn,49,388,A,40.68227986430372,58.29510831384942,2.034113993215186,0.9156974200950531,A,215,Incorrect
2,relearn,49,389,A,30.31347453600379,59.29240250133816,1.5156737268001894,0.9313628805594651,A,398,Correct
2,relearn,49,390,A,25.545824267333195,41.13869536059377,1.2772912133666596,0.6462051156155495,A,261,Correct
2,relearn,49,391,B,63.29288368732197,41.11805621272026,3.1646441843660984,0.6458809166388707,A,335,Incorrect
2,relearn,49,392,B,86.15867958439857,59.28510993831051,4.3079339792199285,0.9312483292472977,A,367,Incorrect
2,relearn,49,393,B,46.35761916725439,16.288801446365525,2.3178809583627196,0.25586389479842364,B,383,Correct
2,relearn,49,394,A,44.72727768903387,53.21802570295908,2.2363638844516935,0.8359467929348452,B,472,Incorrect
2,relearn,49,395,B,80.13915128591803,67.79183547751923,4.006957564295901,1.0648716615477116,B,262,Incorrect
2,relearn,49,396,B,46.425577244600944,23.38030987028414,2.3212788622300473,0.3672570486356879,A,306,Incorrect
2,relearn,49,397,A,31.703838719786496,58.356785181709334,1.5851919359893247,0.9166662380698788,B,338,Incorrect
2,relearn,49,398,B,42.02338144787614,33.12777495692985,2.101169072393807,0.5203698721723337,A,289,Incorrect
2,relearn,49,399,B,76.53943613263871,53.55314546180399,3.8269718066319354,0.841210841797145,B,166,Correct
2,relearn,49,400,A,25.522638943784358,39.0755970684801,1.2761319471892179,0.6137980434248597,B,355,Incorrect
2,relearn,49,401,A,34.464246698347765,43.333181078993334,1.7232123349173885,0.6806760166722083,B,140,Incorrect
2,relearn,49,402,A,27.004235873934476,56.60221496408591,1.3502117936967237,0.8891055135404127,A,514,Incorrect
2,relearn,49,403,B,79.76947299603894,66.80035956702513,3.988473649801947,1.049297594364614,B,628,Correct
2,relearn,49,404,B,70.76762719074651,42.593265283899655,3.5383813595373255,0.6690534465415017,B,205,Incorrect
2,relearn,49,405,B,54.26259288917349,26.798554557199896,2.7131296444586748,0.42095071061862227,B,354,Incorrect
2,relearn,49,406,B,47.08846028397656,28.99620028521538,2.354423014198828,0.4554712489902545,B,481,Incorrect
2,relearn,49,407,A,68.10669861835548,87.36696664501036,3.4053349309177743,1.3723571028919452,B,1368,Correct
2,relearn,49,408,A,49.60983780245781,77.95691144168276,2.4804918901228903,1.2245443014087034,B,1001,Incorrect
2,relearn,49,409,A,20.223926798321195,36.9413404881829,1.0111963399160597,0.5802732194571729,B,592,Correct
2,relearn,49,410,A,52.96485340237086,73.93725394558224,2.648242670118543,1.1614036691102207,B,423,Correct
2,relearn,49,411,A,25.432336559102563,48.281450920629226,1.271616827955128,0.7584032575845245,B,48,Incorrect
2,relearn,49,412,A,23.086149355184567,35.91003794024464,1.1543074677592284,0.5640735569160166,A,401,Correct
2,relearn,49,413,B,46.404993058965644,16.67394708066034,2.3202496529482826,0.2619137482747375,A,463,Correct
2,relearn,49,414,B,83.01649750590921,68.97824259177072,4.150824875295461,1.0835077009192073,A,231,Correct
2,relearn,49,415,B,60.77981859982939,50.25717093240829,3.0389909299914692,0.7894377949573019,B,507,Correct
2,relearn,49,416,B,46.881380979220815,26.91552566138958,2.3440690489610407,0.4227880884266453,B,61,Incorrect
2,relearn,49,417,A,29.270986461234997,60.61213207714981,1.4635493230617498,0.9520931442599404,107,911,Incorrect
2,relearn,49,418,B,43.249148095442116,22.030992522254586,2.162457404772106,0.3460620212960333,A,1315,Incorrect
2,relearn,49,419,A,46.296878812479086,67.34946974387239,2.3148439406239545,1.0579229968525876,B,31,Incorrect
2,relearn,49,420,A,54.66076222706047,80.42777704412913,2.7330381113530233,1.2633565675319693,B,25,Incorrect
2,relearn,49,421,A,61.365719737872794,84.02406822872099,3.0682859868936396,1.3198469773603871,B,257,Incorrect
2,relearn,49,422,A,47.29149998715366,54.54699740066087,2.364574999357683,0.8568222315464887,B,20,Incorrect
2,relearn,49,423,B,60.33780295939533,32.78048325352219,3.0168901479697667,0.5149146268519428,B,444,Correct
2,relearn,49,424,B,37.63951410786942,16.838273150915477,1.881975705393471,0.2644949761502716,B,333,Correct
2,relearn,49,425,B,75.0396301077599,58.91601636117438,3.751981505387995,0.9254506208952075,B,733,Incorrect
2,relearn,49,426,B,52.375701500920684,20.6876524814088,2.618785075046034,0.3249608852780627,A,465,Correct
2,relearn,49,427,A,28.738095496985387,51.17052542520622,1.4369047748492694,0.803784733780788,107,1040,Incorrect
2,relearn,49,428,A,34.18660524316854,48.585549420555395,1.7093302621584272,0.7631800256512034,A,424,Incorrect
2,relearn,49,429,B,59.21287397994903,36.80638152438026,2.9606436989974516,0.5781532890110804,B,478,Correct
2,relearn,49,430,A,61.13948877014496,79.93993637006854,3.0569744385072477,1.2556935841432142,B,959,Incorrect
2,relearn,49,431,A,44.28453855721796,73.47981719910234,2.214226927860898,1.154218269499104,B,1083,Correct
2,relearn,49,432,B,74.28952240690694,53.218238782151374,3.714476120345347,0.8359501399749709,A,724,Incorrect
2,relearn,49,433,A,26.868752698595728,47.66258215045437,1.3434376349297863,0.7486820896749374,B,308,Incorrect
2,relearn,49,434,B,75.50720956569693,46.23901092187551,3.7753604782848464,0.7263206851071117,B,2140,Correct
2,relearn,49,435,A,59.379230570390725,85.60993786416563,2.9689615285195363,1.344757759341707,A,214,Correct
2,relearn,49,436,A,61.82356340010231,84.60944484721608,3.0911781700051155,1.3290420517816242,B,255,Correct
2,relearn,49,437,A,12.922860376427984,30.67394309402809,0.6461430188213992,0.4818251714041501,A,861,Correct
2,relearn,49,438,A,43.146475823682756,68.28599749189785,2.1573237911841376,1.0726339403179865,B,299,Incorrect
2,relearn,49,439,A,59.27757977766237,81.02360256707851,2.9638789888831183,1.2727157729605647,A,76,Correct
2,relearn,49,440,B,65.95344986716482,36.399105997017514,3.297672493358241,0.571755819987332,A,228,Incorrect
2,relearn,49,441,B,85.48143340939524,67.87900031794126,4.274071670469762,1.0662408436593176,107,517,Correct
2,relearn,49,442,B,45.887024806332704,20.23605177471542,2.2943512403166353,0.3178671579655433,B,344,Incorrect
2,relearn,49,443,A,19.847236657587956,45.69789736098569,0.9923618328793978,0.7178208931688652,B,329,Incorrect
2,relearn,49,444,B,36.400777907732405,20.691766411347754,1.82003889538662,0.3250255067384307,B,96,Correct
2,relearn,49,445,A,36.18395124599553,50.39994227558759,1.8091975622997765,0.7916804419716782,B,259,Correct
2,relearn,49,446,B,78.08149697542653,63.17240047640709,3.9040748487713266,0.9923097462315643,B,395,Correct
2,relearn,49,447,A,23.570036234874,36.40847410642155,1.1785018117436998,0.5719029739057407,A,217,Correct
2,relearn,49,448,B,79.91247691500965,64.74512183279528,3.9956238457504822,1.0170139955284287,A,29,Incorrect
2,relearn,49,449,A,29.001081744313375,60.388187619952234,1.4500540872156689,0.94857543295222,B,350,Correct
2,relearn,49,450,A,33.009681130744944,64.7999268891682,1.6504840565372474,1.0178748713408328,B,499,Correct
2,relearn,49,451,A,43.65506653121465,69.793950341477,2.1827533265607326,1.0963208082889748,B,293,Incorrect
2,relearn,49,452,A,41.088360983114114,50.187410076791984,2.054418049155706,0.7883419939997401,A,1349,Correct
2,relearn,49,453,B,31.268016075192353,14.896336302093882,1.5634008037596177,0.2339911034603054,B,645,Incorrect
2,relearn,49,454,B,32.884462883182344,15.01317093404544,1.6442231441591173,0.23582633756742485,B,766,Incorrect
2,relearn,49,455,A,22.990949911339413,52.929127731028466,1.1495474955669707,0.8314087942035743,B,360,Correct
2,relearn,49,456,B,61.665971571823796,49.63012617725936,3.0832985785911897,0.7795881989760625,B,493,Correct
2,relearn,49,457,B,75.95742091629607,63.30006134647178,3.7978710458148037,0.9943150384892948,A,518,Correct
2,relearn,49,458,B,43.10892116540413,33.46507404275111,2.1554460582702064,0.5256681538227268,107,1430,Correct
2,relearn,49,459,A,13.963914610746173,36.55634387062937,0.6981957305373087,0.5742257067303574,B,339,Incorrect
2,relearn,49,460,B,67.42046518190878,51.17581733734513,3.371023259095439,0.8038678589422831,B,402,Correct
2,relearn,49,461,B,35.21094275530055,19.546293722930432,1.7605471377650275,0.30703246382433264,B,456,Incorrect
2,relearn,49,462,A,57.86406805039765,78.71922314980957,2.893203402519882,1.2365186657186866,A,450,Correct
2,relearn,49,463,B,65.71611075607309,52.59272513994386,3.2858055378036544,0.8261245946595743,B,353,Correct
2,relearn,49,464,B,31.443215332229812,15.22419988432781,1.5721607666114905,0.23914117256693415,B,370,Correct
2,relearn,49,465,A,40.04804456674082,53.910826012763415,2.0024022283370413,0.8468292747532753,B,349,Correct
2,relearn,49,466,A,61.02672381312813,82.59189243398734,3.0513361906564063,1.2973504125834652,A,389,Correct
2,relearn,49,467,A,49.187578070136354,62.40282870096858,2.4593789035068174,0.980221341050926,B,36,Incorrect
2,relearn,49,468,B,81.91305153699741,54.96482909743759,4.09565257684987,0.8633855164916421,B,820,Incorrect
2,relearn,49,469,A,42.71224768724956,62.12991570607963,2.135612384362478,0.9759344337518643,A,159,Correct
2,relearn,49,470,A,36.12461225185072,62.36222354971242,1.806230612592536,0.9795835168265046,A,140,Correct
2,relearn,49,471,A,57.19315267648791,67.96841948140481,2.8596576338243955,1.0676454365944537,B,519,Correct
2,relearn,49,472,B,78.18660743513429,64.10741233817947,3.909330371756715,1.0069968782113814,A,590,Incorrect
2,relearn,49,473,A,61.09427917092383,83.43448971981746,3.0547139585461918,1.3105858997989583,B,1076,Incorrect
2,relearn,49,474,A,24.759281841217422,43.545874956913536,1.237964092060871,0.6840170042938966,A,49,Incorrect
2,relearn,49,475,A,50.950115189954204,72.0696756038526,2.54750575949771,1.1320678171183143,B,449,Incorrect
2,relearn,49,476,A,42.87706563103973,56.48654282496892,2.143853281551986,0.887288539828038,A,452,Correct
2,relearn,49,477,B,86.29584830606568,59.231746152929766,4.314792415303284,0.9304100928666982,B,927,Incorrect
2,relearn,49,478,A,45.17819329226023,67.74704421246041,2.258909664613012,1.0641680820014427,A,450,Correct
2,relearn,49,479,B,46.41755390210228,35.39356270959926,2.3208776951051138,0.5559607829642335,B,825,Correct
2,relearn,49,480,B,75.2519705352333,50.66641011479379,3.7625985267616646,0.7958661090020188,A,305,Incorrect
2,relearn,49,481,B,61.841071665337175,30.995987966857022,3.0920535832668588,0.4868838404371782,B,134,Correct
2,relearn,49,482,A,35.20861948027656,53.01677137047012,1.760430974013828,0.832785497272593,B,111,Incorrect
2,relearn,49,483,A,28.97079186329303,60.8053638347455,1.4485395931646514,0.9551284216104546,A,242,Correct
2,relearn,49,484,A,61.987583172336144,82.17202867963478,3.099379158616807,1.290755208152552,B,70,Correct
2,relearn,49,485,A,60.18036592865282,81.4384320877499,3.009018296432641,1.2792318998337318,B,195,Incorrect
2,relearn,49,486,B,65.97156109085435,43.33426625214874,3.298578054542718,0.6806930625322728,A,428,Incorrect
2,relearn,49,487,B,63.35577839139558,48.127493304379534,3.1677889195697793,0.7559848970036535,B,191,Correct
2,relearn,49,488,A,40.03887580736237,69.5267770512906,2.0019437903681188,1.09212406006055,A,127,Correct
2,relearn,49,489,A,58.14764672652874,76.36558820764049,2.907382336326437,1.1995478545009335,B,295,Incorrect
2,relearn,49,490,B,35.3604382839801,10.427857116696511,1.768021914199005,0.163800396552489,A,252,Incorrect
2,relearn,49,491,B,80.80058526075842,56.58984669937756,4.040029263037922,0.8889112332926856,100,608,Correct
2,relearn,49,492,A,38.3948713425804,64.09162738570396,1.9197435671290202,1.0067489287577098,B,1717,Correct
2,relearn,49,493,B,48.93664184782529,25.41630440130784,2.4468320923912645,0.3992383759427532,A,567,Correct
2,relearn,49,494,A,39.00417609256519,59.889250242317615,1.9502088046282595,0.9407381429513288,B,270,Incorrect
2,relearn,49,495,A,32.93795033190808,44.81547295276583,1.6468975165954038,0.703959802977806,A,364,Correct
2,relearn,49,496,B,33.159098914797156,19.44770000591671,1.6579549457398577,0.3054837573390306,A,319,Correct
2,relearn,49,497,B,71.02282861431416,59.66223567884885,3.5511414307157083,0.9371722065270719,B,450,Correct
2,relearn,49,498,B,73.94304305591623,59.26872762632956,3.6971521527958116,0.9309909964924566,B,351,Incorrect
2,relearn,49,499,B,40.35665781722202,18.060071130949893,2.017832890861101,0.2836869339415064,107,274,Incorrect
2,relearn,49,500,A,44.43122428877016,75.06206062951355,2.2215612144385077,1.179072091184957,B,48,Incorrect
2,relearn,49,501,A,40.669043367895014,67.30756260753623,2.033452168394751,1.0572647210943544,A,786,Incorrect
2,relearn,49,502,B,63.46552090429165,44.89459181235996,3.1732760452145827,0.7052025991181126,B,408,Correct
2,relearn,49,503,A,35.81926341063888,64.97550623242103,1.7909631705319442,1.0206328652152585,B,423,Correct
2,relearn,49,504,A,50.83174216983484,64.12359276909909,2.541587108491742,1.0072510398259265,A,376,Incorrect
2,relearn,49,505,A,25.330425558071624,36.828633178016375,1.2665212779035813,0.5785028171690477,B,255,Correct
2,relearn,49,506,A,52.79115458137921,64.45372488835248,2.6395577290689607,1.0124367430287289,B,59,Incorrect
2,relearn,49,507,B,49.523584383499596,26.995023216818034,2.47617921917498,0.4240368331072072,B,561,Incorrect
2,relearn,49,508,A,19.49621828834024,33.531960938884296,0.9748109144170121,0.5267188107302941,A,122,Incorrect
2,relearn,49,509,A,58.519734597040554,67.20401774004135,2.9259867298520277,1.0556382421191601,B,362,Incorrect
2,relearn,49,510,B,46.70389045145341,38.36913123051167,2.3351945225726705,0.6027009039919907,B,306,Correct
2,relearn,49,511,A,30.904170527504924,43.620757800310884,1.5452085263752462,0.6851932612473817,B,431,Incorrect
2,relearn,49,512,B,73.97592475818628,56.912689434266326,3.698796237909314,0.8939824351136426,A,402,Correct
2,relearn,49,513,B,68.58035324480485,37.44894774932676,3.429017662240243,0.588246695669765,B,313,Correct
2,relearn,49,514,B,66.06782925290808,54.661113523453515,3.303391462645404,0.8586147634115964,A,303,Incorrect
2,relearn,49,515,A,14.61924232010563,33.60262526732117,0.7309621160052815,0.5278288034057348,B,297,Incorrect
2,relearn,49,516,B,62.18493034158864,36.92482156996675,3.1092465170794323,0.5800137408966074,B,802,Incorrect
2,relearn,49,517,A,41.66193820510541,53.78676684805744,2.08309691025527,0.8448805579510215,A,171,Incorrect
2,relearn,49,518,B,47.26686749131788,35.71333147555869,2.3633433745658943,0.5609836989941616,B,296,Correct
2,relearn,49,519,B,42.00350417644515,18.43586502383151,2.1001752088222574,0.28958989060721047,B,599,Correct
2,relearn,49,520,B,75.31252667519233,64.89650718386599,3.7656263337596165,1.0193919510623533,A,320,Correct
2,relearn,49,521,A,33.75098506853357,55.4599902403795,1.6875492534266785,0.8711634895366893,B,442,Incorrect
2,relearn,49,522,A,63.8631950492891,76.45111376111234,3.193159752464455,1.2008912867533403,A,448,Correct
2,relearn,49,523,A,44.78699602813978,61.58941601364446,2.239349801406989,0.9674442844367549,B,492,Incorrect
2,relearn,49,524,B,44.53679112756866,23.915620477071744,2.226839556378433,0.37566568798405103,B,328,Incorrect
2,relearn,49,525,A,43.6958277000621,57.08279336099748,2.1847913850031047,0.8966544213464694,B,1094,Incorrect
2,relearn,49,526,B,62.78362242269163,46.2616067157561,3.1391811211345817,0.726675619007398,A,1063,Incorrect
2,relearn,49,527,B,64.56672272420747,34.31811203669707,3.2283361362103733,0.5390676432977949,B,615,Incorrect
2,relearn,49,528,A,29.303637583770303,39.25080576808274,1.4651818791885152,0.6165502152424432,B,198,Incorrect
2,relearn,49,529,A,55.950558639303985,70.76734838002774,2.7975279319651993,1.1116109089236235,B,222,Correct
2,relearn,49,530,A,49.40675227497225,64.34380694780783,2.470337613748612,1.0107101560561649,B,395,Correct
2,relearn,49,531,B,43.170685076655175,22.850832726454467,2.1585342538327588,0.3589400411091929,B,394,Correct
2,relearn,49,532,B,64.15281431643275,39.57723096259106,3.2076407158216376,0.621677690207513,A,397,Correct
2,relearn,49,533,B,66.44994711598518,40.26789321403885,3.322497355799259,0.6325265874838137,A,271,Incorrect
2,relearn,49,534,A,34.080507174053096,43.64854105972752,1.7040253587026546,0.685629679665762,A,501,Correct
2,relearn,49,535,A,52.02226212680397,68.1119694277271,2.6011131063401987,1.0699003138784002,B,538,Incorrect
2,relearn,49,536,B,58.91534808554441,42.59273222799353,2.94576740427722,0.6690450733189085,B,560,Incorrect
2,relearn,49,537,A,59.40506131810065,84.98996967775408,2.9702530659050326,1.3350193218422572,B,95,Incorrect
2,relearn,49,538,B,63.18405603890797,51.905383601820866,3.159202801945398,0.8153278590262028,B,377,Correct
2,relearn,49,539,B,39.28332398167443,29.54673112206718,1.9641661990837214,0.4641189671533958,B,267,Incorrect
2,relearn,49,540,B,33.78002383549472,11.090855193415091,1.6890011917747358,0.17421474598830528,B,1070,Correct
2,relearn,49,541,B,58.88331329815366,30.24719004095315,2.9441656649076826,0.4751217501219639,A,512,Correct
2,relearn,49,542,B,68.7352460196912,51.437631364798044,3.4367623009845603,0.8079804240685474,A,230,Incorrect
2,relearn,49,543,A,29.358276243845594,52.868999545910626,1.4679138121922797,0.8304643028803748,B,456,Incorrect
2,relearn,49,544,B,73.6123742403741,44.294657511872494,3.680618712018705,0.6957788531628728,B,366,Correct
2,relearn,49,545,A,41.07277135847889,56.67276551840892,2.0536385679239446,0.8902137190562521,A,737,Correct
2,relearn,49,546,A,53.08121834088565,73.13275789899856,2.6540609170442826,1.1487666747612741,B,1091,Correct
2,relearn,49,547,B,46.698377694132994,31.288597737418513,2.3349188847066498,0.49148014396500117,A,885,Incorrect
2,relearn,49,548,B,67.20606204566889,34.62704323438938,3.3603031022834444,0.5439203232034692,B,67,Incorrect
2,relearn,49,549,A,55.38714890839271,72.24968406386101,2.7693574454196357,1.1348953833960467,A,2367,Correct
2,relearn,49,550,A,30.33672181230025,41.40727403677728,1.5168360906150125,0.6504239395955943,B,431,Correct
2,relearn,49,551,A,19.99228292792417,42.61686420798442,0.9996141463962084,0.6694241375741883,A,391,Incorrect
2,relearn,49,552,A,15.059686668549954,31.579103326440507,0.7529843334274977,0.4960433950864925,B,161,Correct
2,relearn,49,553,A,48.879276949525796,71.56551958919012,2.4439638474762897,1.1241485529586805,B,276,Incorrect
2,relearn,49,554,B,41.99268958310161,30.443988588530594,2.09963447915508,0.4782130544784961,A,809,Correct
2,relearn,49,555,A,30.74734291871922,58.48436531657747,1.537367145935961,0.9186702621421076,B,261,Incorrect
2,relearn,49,556,A,22.85987160870276,47.57876475577824,1.142993580435138,0.7473654891181494,A,170,Correct
2,relearn,49,557,A,27.971687935081007,44.15426849441154,1.3985843967540503,0.6935736276333727,A,314,Incorrect
2,relearn,49,558,B,30.446034864451786,11.74327749631303,1.5223017432225894,0.18446297155741678,B,1197,Incorrect
2,relearn,49,559,A,28.021760599662812,54.40330983511977,1.4010880299831405,0.854565192544908,A,295,Incorrect
2,relearn,49,560,B,58.643601766233814,44.513775987490206,2.9321800883116906,0.6992207581292049,B,420,Correct
2,relearn,49,561,B,67.41450969599266,56.61845730299328,3.370725484799633,0.8893606476033551,A,816,Correct
2,relearn,49,562,B,73.35706610740054,55.76862402376105,3.667853305370027,0.8760114976692949,B,482,Incorrect
2,relearn,49,563,A,27.776162130769237,49.83651831763319,1.3888081065384619,0.7828301991358481,107,312,Correct
2,relearn,49,564,B,75.16171399772531,63.130646814422775,3.7580856998862657,0.9916538812428123,B,315,Incorrect
2,relearn,49,565,A,16.979989423739468,44.34949207162131,0.8489994711869734,0.6966401924132214,A,875,Correct
2,relearn,49,566,B,30.74566071391915,15.096020683541589,1.5372830356959577,0.23712773838926918,A,247,Correct
2,relearn,49,567,B,70.58273659035838,50.0682086137731,3.5291368295179186,0.786469581797154,A,335,Correct
2,relearn,49,568,A,11.985258565097581,39.200329712401846,0.599262928254879,0.6157573392138966,B,297,Incorrect
2,relearn,49,569,B,86.35512445676571,59.64269543089463,4.317756222838285,0.9368652690299604,B,641,Correct
2,relearn,49,570,B,49.85574632883838,40.79242537421102,2.492787316441919,0.640765919388656,A,398,Incorrect
2,relearn,49,571,A,36.40664310419507,61.082451201897904,1.8203321552097536,0.9594808997956974,B,323,Correct
2,relearn,49,572,A,53.06910302076486,77.1883610287372,2.6534551510382425,1.2124719397525874,A,293,Incorrect
2,relearn,49,573,B,41.375723336435634,23.558255666506312,2.068786166821782,0.3700522146664318,B,185,Incorrect
2,relearn,49,574,B,52.34245105496073,35.71021817164045,2.617122552748037,0.5609347953305718,B,258,Correct
2,relearn,49,575,A,66.81391296162377,84.29309431328588,3.3406956480811885,1.3240728292148525,B,897,Incorrect
2,relearn,49,576,B,58.83088542802752,32.387814357532946,2.941544271401376,0.5087465982572776,A,304,Incorrect
2,relearn,49,577,A,13.006456210752141,39.810368511562146,0.650322810537607,0.6253398062631303,A,468,Correct
2,relearn,49,578,B,64.23997211486362,48.871249519518116,3.2119986057431813,0.7676677923113591,A,315,Correct
2,relearn,49,579,B,43.851692356198726,19.51410622345128,2.192584617809936,0.306526863764827,B,224,Correct
2,relearn,49,580,B,73.03745255051228,59.377803374454274,3.651872627525614,0.9327043543374238,B,68,Incorrect
2,relearn,49,581,A,53.71329969877837,66.26294222607153,2.6856649849389185,1.0408558625133562,A,652,Incorrect
2,relearn,49,582,A,66.49396411145196,78.95711246165847,3.324698205572598,1.2402554222910467,B,287,Incorrect
2,relearn,49,583,B,62.37019934030864,51.92070776078455,3.1185099670154317,0.8155685703523167,B,1146,Incorrect
2,relearn,49,584,A,58.77215169349546,69.60156938653274,2.938607584674773,1.0932988953152576,B,392,Correct
2,relearn,49,585,A,42.06382054307675,60.09626597759448,2.1031910271538377,0.9439899385169452,A,55,Correct
2,relearn,49,586,B,78.93794099155596,47.458786259471495,3.9468970495777977,0.7454808713052192,A,466,Incorrect
2,relearn,49,587,B,34.193357999592465,21.033548661395304,1.7096678999796233,0.33039420976781464,B,397,Correct
2,relearn,49,588,A,37.300667330102044,50.25161283764234,1.8650333665051022,0.7893504886088786,B,653,Correct
2,relearn,49,589,A,50.37406304511259,80.328223618857,2.51870315225563,1.2617927859845963,44,359,Correct
2,relearn,49,590,B,76.36914265813166,50.5208782732682,3.818457132906583,0.793580100181018,B,62,Correct
2,relearn,49,591,A,65.72117463608473,85.04027314634244,3.286058731804236,1.335809486879094,A,15,Incorrect
2,relearn,49,592,A,23.55268554848573,53.583959816374914,1.1776342774242865,0.8416948725468705,B,396,Incorrect
2,relearn,49,593,B,55.96927591895455,24.44900984570331,2.7984637959477277,0.3840441485940302,A,223,Incorrect
2,relearn,49,594,A,66.66806911727991,84.55730120057754,3.3334034558639956,1.328222981295569,B,472,Correct
2,relearn,49,595,B,37.76742065030517,21.238983691326464,1.8883710325152583,0.33362117567192323,B,409,Incorrect
2,relearn,49,596,B,61.29742075521028,34.14615976597964,3.064871037760514,0.536366623345525,A,154,Correct
2,relearn,49,597,A,38.73023663533751,58.1050079513523,1.9365118317668757,0.9127113305837244,B,235,Correct
2,relearn,49,598,A,44.97503553697728,63.77003323171069,2.2487517768488643,1.0016973395995963,B,367,Incorrect
2,relearn,49,599,B,79.96025841856704,55.74024948683315,3.998012920928352,0.8755657914854863,B,401,Correct
2,relearn,49,600,B,65.48463525816737,34.604541843090125,3.274231762908369,0.5435668721754627,A,289,Incorrect
2,relearn,49,601,B,71.07733184020856,56.555449450564794,3.553866592010428,0.8883709225718163,B,3231,Correct
2,relearn,49,602,B,86.67476992308582,62.395792716599175,4.333738496154291,0.9801108200668974,A,1170,Incorrect
2,relearn,49,603,A,21.45819469704992,34.06977176248725,1.0729097348524959,0.5351667233925546,A,714,Correct
2,relearn,49,604,A,44.395289755395744,53.709236570740586,2.2197644877697873,0.8436627152027742,A,527,Correct
2,relearn,49,605,A,13.010537440793911,38.62336154256286,0.6505268720396955,0.6066943443952902,A,913,Correct
2,relearn,49,606,A,69.74499428052658,87.60272543350203,3.4872497140263294,1.3760603932816686,B,1150,Incorrect
2,relearn,49,607,B,75.03982798763863,56.76817098438622,3.751991399381932,0.8917123446113848,B,302,Correct
2,relearn,49,608,A,39.935420432260244,50.76105242319408,1.9967710216130121,0.7973527469059644,B,427,Incorrect
2,relearn,49,609,B,80.93107695730639,62.17576177831631,4.04655384786532,0.9766545821705378,B,759,Correct
2,relearn,49,610,B,45.54526016108791,30.680908850930514,2.277263008054396,0.48193458925770677,A,1483,Incorrect
2,relearn,49,611,B,70.41697514065531,56.026095141673096,3.520848757032766,0.8800558445320151,B,631,Correct
2,relearn,49,612,A,39.4620069194611,47.25018058435693,1.973100345973055,0.7422041010230341,A,589,Correct
2,relearn,49,613,B,66.48171221058162,33.70397785482791,3.3240856105290812,0.5294208461274023,B,989,Correct
2,relearn,49,614,B,44.41216323053158,36.04306459966112,2.220608161526579,0.5661631347957886,A,448,Incorrect
2,relearn,49,615,B,60.80939250888811,47.81684951280641,3.0404696254444055,0.7511053157362064,B,202,Correct
2,relearn,49,616,B,75.79263892629831,64.96608804900211,3.7896319463149153,1.0204849247360634,B,1284,Correct
2,relearn,49,617,A,38.99673169402661,63.67711209906202,1.9498365847013304,1.0002377378611351,A,695,Correct
2,relearn,49,618,A,48.99759282881698,74.23759705929702,2.449879641440849,1.1661214477082338,B,676,Incorrect
2,relearn,49,619,B,48.22543458344192,30.860736647548478,2.4112717291720958,0.484759317681538,A,362,Incorrect
2,relearn,49,620,A,28.003232877861166,55.711427767600796,1.4001616438930582,0.8751130609784654,B,356,Incorrect
2,relearn,49,621,B,64.2094110886292,52.6161744627111,3.2104705544314593,0.8264929357602605,B,1043,Correct
2,relearn,49,622,B,65.36893443492508,45.885830718903556,3.2684467217462543,0.7207729434518614,B,1340,Correct
2,relearn,49,623,B,32.58580872925886,10.192505270722421,1.629290436462943,0.16010349840088403,A,692,Incorrect
2,relearn,49,624,A,28.944067119471846,46.139807178038076,1.4472033559735922,0.72476239634287,A,481,Correct
2,relearn,49,625,B,53.753574837737695,29.852430839038437,2.687678741886885,0.46892088707860263,A,250,Incorrect
2,relearn,49,626,B,67.36426254408656,56.78169573801985,3.368213127204328,0.8919247909446703,A,578,Incorrect
2,relearn,49,627,B,85.36416981247244,68.29410727705014,4.268208490623622,1.0727613285252697,B,293,Correct
2,relearn,49,628,B,49.30651519947614,19.242245102333627,2.465325759973807,0.3022564792603275,B,508,Correct
2,relearn,49,629,A,47.21818236867683,66.55447954490585,2.3609091184338413,1.0454353200088418,A,2206,Correct
2,relearn,49,630,B,89.78898480559309,65.40171191431742,4.489449240279654,1.0273276884110782,B,1220,Correct
2,relearn,49,631,A,33.54430838565865,61.622535601292185,1.6772154192829327,0.9679645257029749,B,763,Incorrect
2,relearn,49,632,A,50.588867617478144,72.19199473911696,2.529443380873907,1.133989201602014,A,707,Correct
2,relearn,49,633,A,58.24729133673054,81.23455600935569,2.9123645668365272,1.2760294218831019,A,561,Correct
2,relearn,49,634,A,59.05472810047334,70.30500713809768,2.952736405023667,1.1043484696781283,A,732,Correct
2,relearn,49,635,A,16.706404095636262,36.03950229122856,0.8353202047818131,0.5661071781857807,A,430,Correct
2,relearn,49,636,B,37.107243241843506,13.741886351734184,1.8553621620921752,0.21585704604536976,B,810,Correct
2,relearn,49,637,B,79.44839497791318,55.920916390211744,3.9724197488956587,0.8784037005674913,B,808,Correct
2,relearn,49,638,B,60.99393300201816,51.699284388651265,3.049696650100908,0.8120904601561816,B,670,Correct
2,relearn,49,639,B,60.039141581701884,36.439423310963086,3.001957079085094,0.5723891228738515,B,617,Correct
2,relearn,49,640,A,46.83451090368919,55.37909791693407,2.3417255451844596,0.8698928358913495,A,615,Correct
2,relearn,49,641,A,28.258051069713794,38.6649328309228,1.4129025534856896,0.6073473446658494,A,967,Correct
2,relearn,49,642,A,56.698212817770084,83.50753790910022,2.834910640888504,1.311733338073002,B,945,Incorrect
2,relearn,49,643,B,59.644236416755184,34.727198235336694,2.9822118208377595,0.545493554279451,A,277,Incorrect
2,relearn,49,644,A,24.682566039628192,36.82828799439841,1.2341283019814098,0.5784973950374561,B,436,Incorrect
2,relearn,49,645,A,52.79834167624478,78.27195932388844,2.6399170838122394,1.229493061970035,B,1076,Incorrect
2,relearn,49,646,B,45.47993785687035,37.995886221050114,2.2739968928435177,0.5968379850934233,A,347,Incorrect
2,relearn,49,647,B,65.1089641597849,41.85022090148719,3.2554482079892453,0.6573817326761108,B,239,Correct
2,relearn,49,648,A,51.250568844234365,75.9443473068535,2.5625284422117183,1.1929310179044137,A,497,Correct
2,relearn,49,649,A,24.370630917973216,36.04094663339546,1.2185315458986608,0.5661298658594848,A,634,Correct
2,relearn,49,650,A,28.523287388921315,55.82285916796739,1.4261643694460657,0.8768634213223198,A,536,Correct
2,relearn,49,651,A,45.745472678022246,56.620751180476674,2.2872736339011124,0.8893966797466055,A,859,Correct
2,relearn,49,652,B,64.52277856891,42.49284701639223,3.2261389284454998,0.667476080084064,B,890,Correct
2,relearn,49,653,A,27.52045197784401,40.133953509974354,1.3760225988922006,0.6304226675322486,B,595,Incorrect
2,relearn,49,654,B,31.331461789746545,11.37589162996115,1.566573089487327,0.1786920878635978,A,378,Incorrect
2,relearn,49,655,B,71.28263027511902,45.12375021785294,3.564131513755951,0.708802210934138,B,504,Correct
2,relearn,49,656,A,46.63068231282831,66.40415863092284,2.3315341156414155,1.0430740846135922,B,608,Incorrect
2,relearn,49,657,A,38.441904190895535,46.82071096826613,1.9220952095447768,0.7354580080687796,A,392,Correct
2,relearn,49,658,B,64.04466202581412,52.46463943502874,3.2022331012907057,0.8241126291116182,B,509,Correct
2,relearn,49,659,A,48.13747868172663,70.04878565613998,2.4068739340863314,1.1003237520510771,B,423,Incorrect
2,relearn,49,660,B,61.76481153415153,44.58143944259067,3.0882405767075762,0.7002836131965055,A,245,Incorrect
2,relearn,49,661,B,43.277096843404834,23.43730187743521,2.1638548421702417,0.36815227699058356,B,125,Correct
2,relearn,49,662,B,61.51324169179028,37.5677265196366,3.075662084589514,0.590112468230804,A,377,Incorrect
2,relearn,49,663,A,65.80011642440294,85.38556040414927,3.2900058212201473,1.3412332464416146,B,314,Incorrect
2,relearn,49,664,B,44.64243340892622,25.879808067987398,2.232121670446311,0.4065190745135153,B,322,Correct
2,relearn,49,665,A,26.414112202878762,47.21375917774867,1.320705610143938,0.7416319949058645,A,512,Correct
2,relearn,49,666,B,56.73849293079574,25.709261776450226,2.8369246465397873,0.4038401396305645,B,614,Correct
2,relearn,49,667,A,36.660280330764785,47.52311546260766,1.8330140165382391,0.7464913520651385,B,1079,Incorrect
2,relearn,49,668,B,59.01550243569412,30.345009571101244,2.9507751217847056,0.47665829570841817,B,632,Correct
2,relearn,49,669,A,33.78586897397279,47.895359582805995,1.6892934486986393,0.7523385490319241,A,620,Correct
2,relearn,49,670,B,73.2346318347615,42.762715525927725,3.661731591738075,0.6717151647190237,A,759,Incorrect
2,relearn,49,671,B,43.04025803597341,15.20406161702088,2.1520129017986704,0.23882484140379673,B,542,Correct
2,relearn,49,672,B,68.77627780021122,42.53256412480644,3.438813890010561,0.6680999549641435,B,642,Correct
2,relearn,49,673,B,84.70087258554872,59.31291419587065,4.2350436292774365,0.931685077503745,A,1165,Incorrect
2,relearn,49,674,A,51.377743312221654,66.62858743812478,2.5688871656110823,1.04659940407339,B,1119,Incorrect
2,relearn,49,675,B,88.78511365470648,66.70774010761858,4.4392556827353244,1.0478427312983587,B,1005,Correct
2,relearn,49,676,B,80.92568033420172,50.364543118510504,4.046284016710086,0.7911243933125949,A,709,Incorrect
2,relearn,49,677,B,54.67432170191154,36.78581375721718,2.733716085095577,0.5778302112799791,A,498,Incorrect
2,relearn,49,678,B,78.38961901952783,53.37971304707808,3.919480950976391,0.8384865717971587,B,507,Correct
2,relearn,49,679,B,36.476282564585986,14.035371450817284,1.8238141282292992,0.2204670992014575,B,785,Correct
2,relearn,49,680,A,55.268465837138606,84.65583818671665,2.76342329185693,1.3297707966543766,A,1097,Correct
2,relearn,49,681,A,57.263410282225244,73.00920527308493,2.863170514111262,1.146825914651764,B,1216,Incorrect
2,relearn,49,682,A,22.931053407485148,54.39827353821771,1.1465526703742575,0.8544860825781638,A,1088,Correct
2,relearn,49,683,B,60.48455212961093,50.14745637962718,3.024227606480547,0.7877144027922567,A,312,Incorrect
2,relearn,49,684,A,57.73779932750129,68.40452121519903,2.886889966375065,1.074495706609982,A,158,Correct
2,relearn,49,685,A,41.9526872658863,50.08059788840582,2.097634363294315,0.7866641920680012,B,778,Incorrect
2,relearn,49,686,B,67.63452610192047,56.24777098502812,3.3817263050960236,0.8835379205368272,A,470,Incorrect
2,relearn,49,687,B,40.610163345970264,23.120492048701603,2.030508167298513,0.3631758398379109,A,263,Incorrect
2,relearn,49,688,B,47.662072225769506,38.98147980708936,2.3831036112884756,0.612319652940054,A,252,Incorrect
2,relearn,49,689,A,59.86549573761723,86.07014555686592,2.993274786880862,1.3519866848742708,A,520,Correct
2,relearn,49,690,B,63.29467587920302,50.9726769989346,3.164733793960151,0.8006769379682918,B,636,Correct
2,relearn,49,691,B,71.32478068355226,51.08669142960264,3.566239034177613,0.8024678724572414,B,428,Correct
2,relearn,49,692,A,33.639521654299,53.147546871752695,1.6819760827149504,0.8348397140430873,B,478,Incorrect
2,relearn,49,693,A,22.405479654493924,35.76861157542293,1.1202739827246961,0.5618520367722777,B,1103,Incorrect
2,relearn,49,694,A,63.93839372217211,87.61942007216678,3.1969196861086058,1.376322632052586,A,969,Correct
2,relearn,49,695,A,43.579641412052936,72.58310520729476,2.178982070602647,1.1401327504698617,A,746,Correct
2,relearn,49,696,A,41.38675022808323,50.84730593513944,2.0693375114041617,0.7987076139033338,B,401,Incorrect
2,relearn,49,697,A,67.37383651335071,84.410304286901,3.3686918256675358,1.325913959175036,A,310,Correct
2,relearn,49,698,A,40.179922844753854,51.51558670279039,2.008996142237693,0.8092049436542715,A,820,Correct
2,relearn,49,699,A,56.601317821275416,78.69453209415413,2.8300658910637706,1.236130819523404,A,623,Correct
2,relearn,49,700,A,11.539816332288794,31.943744323541956,0.5769908166144397,0.5017711624749503,A,603,Correct
2,relearn,49,701,A,53.99375068336437,76.12940872942477,2.6996875341682185,1.1958379559324774,B,475,Incorrect
2,relearn,49,702,B,40.39081661495734,26.902886265913168,2.019540830747867,0.4225895492667728,B,372,Correct
2,relearn,49,703,B,37.92631872269286,14.08939763411729,1.896315936134643,0.22131574050424146,B,620,Correct
2,relearn,49,704,B,36.30570202723131,18.214255845766054,1.8152851013615656,0.2861088617783179,B,502,Correct
2,relearn,49,705,B,66.41174771341541,35.69588351943897,3.3205873856707706,0.5607096271403321,B,517,Correct
2,relearn,49,706,A,15.052502765919751,43.49517641436849,0.7526251382959877,0.6832206334498604,A,683,Correct
2,relearn,49,707,B,49.30176165158924,38.43501574162508,2.4650880825794617,0.6037358154724871,B,643,Correct
2,relearn,49,708,A,39.03035726082917,69.72693682024708,1.9515178630414585,1.0952681623590392,B,605,Incorrect
2,relearn,49,709,A,54.71527438659698,63.222254472893034,2.735763719329849,0.993092850977126,A,463,Correct
2,relearn,49,710,B,45.51223064912249,31.641471131810107,2.2756115324561246,0.49702306628234083,B,509,Correct
2,relearn,49,711,A,31.239420486018176,62.83031921045033,1.5619710243009086,0.9869363462712621,A,725,Correct
2,relearn,49,712,B,44.03539797243751,20.014693326127755,2.2017698986218757,0.3143900675860781,B,863,Correct
2,relearn,49,713,A,57.054977864320804,69.65143887023596,2.85274889321604,1.0940822433334594,A,593,Correct
2,relearn,49,714,A,46.17443900081959,60.8981663247751,2.3087219500409795,0.956586159715014,B,858,Incorrect
2,relearn,49,715,B,75.02218127454165,51.96633851859961,3.7511090637270827,0.8162853366199643,A,693,Incorrect
2,relearn,49,716,A,18.34811550684885,46.698372121625994,0.9174057753424424,0.7335363139595131,B,438,Incorrect
2,relearn,49,717,B,46.343948833428094,33.42198183524037,2.317197441671405,0.5249912630100133,A,372,Incorrect
2,relearn,49,718,A,34.12386323867396,65.64733135796844,1.706193161933698,1.0311858696098426,A,481,Correct
2,relearn,49,719,A,31.81849591181561,54.34406862061017,1.5909247955907804,0.8536346337234426,B,372,Incorrect
2,relearn,49,720,B,64.29622770937817,47.929206499949565,3.2148113854689084,0.7528702151631486,A,232,Incorrect
2,relearn,49,721,A,45.84165607792544,59.826898091162896,2.2920828038962724,0.9397587176513127,A,346,Correct
2,relearn,49,722,A,43.43163174067194,59.27881453825177,2.171581587033597,0.931149441334418,B,492,Incorrect
2,relearn,49,723,A,29.111452150508434,60.36733704053521,1.4555726075254216,0.948247912816622,A,327,Correct
2,relearn,49,724,B,72.3812968843881,57.91339909752561,3.6190648442194053,0.9097015457460012,A,428,Incorrect
2,relearn,49,725,A,54.360137261480325,72.4600098675152,2.718006863074016,1.1381991733941481,B,367,Incorrect
2,relearn,49,726,A,21.61716557566633,37.1749947040592,1.0808582787833165,0.5839434512975592,B,353,Incorrect
2,relearn,49,727,A,37.449379587968146,55.36054398172768,1.8724689793984073,0.8696013913586517,A,254,Correct
2,relearn,49,728,B,35.185025821689266,16.59734055718126,1.7592512910844633,0.2607104158178428,A,319,Incorrect
2,relearn,49,729,B,69.79792981939907,54.08717327654968,3.489896490969954,0.8495993310952332,A,439,Incorrect
2,relearn,49,730,B,55.05683235880882,35.180129424139785,2.752841617940441,0.5526081807560783,B,553,Correct
2,relearn,49,731,B,55.037663867688835,32.531585119735006,2.7518831933844417,0.5110049441089526,B,275,Correct
2,relearn,49,732,A,23.91760806373771,55.74503252874349,1.1958804031868855,0.875640923332123,B,306,Incorrect
2,relearn,49,733,A,45.554727101396956,62.56000006339655,2.2777363550698477,0.9826901830387178,A,416,Correct
2,relearn,49,734,A,19.23815086994148,33.94737267181911,0.9619075434970741,0.5332440829723091,A,375,Correct
2,relearn,49,735,A,27.67947642424848,45.13980860912055,1.383973821212424,0.7090544555543121,A,480,Correct
2,relearn,49,736,A,42.70729191011238,73.20525302364521,2.135364595505619,1.1499054255163288,A,1600,Correct
2,relearn,49,737,A,41.960125655153526,62.32074572170451,2.098006282757676,0.978931984627722,B,367,Incorrect
2,relearn,49,738,A,17.21009713765879,36.45983043639306,0.8605048568829394,0.5727096772505099,A,413,Correct
2,relearn,49,739,B,34.56647499597752,19.611756183078974,1.7283237497988762,0.3080607457437755,A,280,Incorrect
2,relearn,49,740,A,61.908053187451856,72.9872775497783,3.095402659372593,1.1464814747795136,B,142,Incorrect
2,relearn,49,741,B,63.438510461559396,38.93039123796834,3.1719255230779697,0.6115171555728889,B,356,Correct
2,relearn,49,742,B,35.91811542891527,13.659925736280545,1.7959057714457634,0.21456961170840552,B,567,Correct
2,relearn,49,743,B,73.87181214754847,43.144239832020496,3.693590607377423,0.6777081345049586,B,345,Correct
2,relearn,49,744,A,46.61638720238305,54.2705410409711,2.3308193601191527,0.8524796652032909,B,619,Incorrect
2,relearn,49,745,B,36.397810960099676,13.365558221996498,1.8198905480049836,0.20994569760675427,B,371,Correct
2,relearn,49,746,A,15.70922463123686,39.94762188143633,0.7854612315618431,0.6274957771555163,A,686,Correct
2,relearn,49,747,B,73.07355029541345,44.136820857664745,3.6536775147706724,0.6932995607962416,B,915,Correct
2,relearn,49,748,B,53.60664471013276,26.284575995629773,2.680332235506638,0.41287715425296556,A,738,Incorrect
2,relearn,49,749,B,42.71810623377323,14.997601168013155,2.1359053116886613,0.2355817682544991,B,605,Correct
2,relearn,49,750,A,49.60393643917031,80.05168609308963,2.4801968219585153,1.2574489446876327,A,916,Correct
2,relearn,49,751,A,11.395023582570946,34.54702920137548,0.5697511791285472,0.5426634657119663,A,795,Correct
2,relearn,49,752,A,56.33859493673245,64.90638453591453,2.8169297468366223,1.0195471041455162,A,575,Correct
2,relearn,49,753,B,31.2714914394397,13.621080884514981,1.563574571971985,0.21395943820372312,A,2876,Incorrect
2,relearn,49,754,B,50.21632688439794,38.21189196207021,2.5108163442198967,0.6002309953390332,B,523,Correct
2,relearn,49,755,B,78.82839208035165,56.404996995608904,3.9414196040175824,0.8860076209357964,B,376,Correct
2,relearn,49,756,B,71.99648332341837,60.78592820469028,3.5998241661709187,0.9548231274474579,B,886,Correct
2,relearn,49,757,B,50.21042710465,28.841966194745368,2.5105213552325,0.453048545562486,A,509,Incorrect
2,relearn,49,758,B,46.68134072211719,37.67348300299055,2.3340670361058597,0.5917736871866752,A,403,Incorrect
2,relearn,49,759,B,54.38636563712188,37.44626625379134,2.719318281856094,0.5882045748363913,B,374,Correct
2,relearn,49,760,B,81.60612484376684,68.3778714812711,4.080306242188342,1.0740770935683415,A,721,Incorrect
2,relearn,49,761,B,38.99103161541777,26.78302030699028,1.9495515807708883,0.42070669918693454,A,743,Incorrect
2,relearn,49,762,B,39.13984251325154,27.375402545367017,1.956992125662577,0.4300118176279417,B,669,Correct
2,relearn,49,763,A,59.813944883777296,71.12785658226369,2.990697244188865,1.11727375852214,B,1450,Incorrect
2,relearn,49,764,B,74.71978789498873,49.6076696383312,3.7359893947494363,0.7792354524874536,A,426,Incorrect
2,relearn,49,765,B,38.89023215537985,18.453038262203588,1.9445116077689926,0.28985964720475077,A,1190,Incorrect
2,relearn,49,766,A,47.88757906170774,71.93780154646936,2.394378953085387,1.129996344268943,A,571,Correct
2,relearn,49,767,B,40.484039010609735,31.921829184834305,2.024201950530487,0.5014269202811186,B,472,Correct
2,relearn,49,768,B,85.74720103492156,62.743100660245325,4.287360051746078,0.985566320488358,A,48,Incorrect
2,relearn,49,769,B,46.82649234607263,35.936848236717786,2.3413246173036315,0.5644946920682196,B,343,Correct
2,relearn,49,770,B,40.56308503716349,26.525171737262514,2.0281542518581746,0.4166564233249576,A,140,Incorrect
2,relearn,49,771,B,82.61149367059744,63.27630849690247,4.130574683529872,0.9939419296007511,B,429,Correct
2,relearn,49,772,B,55.66528270776223,44.21638831285178,2.7832641353881113,0.6945494034596436,B,397,Correct
2,relearn,49,773,A,19.118648550874536,46.17794313383469,0.9559324275437269,0.7253614345357116,B,434,Incorrect
2,relearn,49,774,A,39.663591231906366,70.58058438885105,1.9831795615953183,1.1086772270104446,A,480,Correct
2,relearn,49,775,B,81.72686655276004,67.65344629794633,4.086343327638002,1.0626978493982988,B,350,Correct
2,relearn,49,776,B,39.52065945116923,12.279093249726031,1.9760329725584613,0.1928795457304166,B,391,Correct
2,relearn,49,777,A,42.27646786737087,63.5301910865071,2.113823393368543,0.9979299079926324,A,250,Correct
2,relearn,49,778,B,67.04900952012468,41.21571801696191,3.352450476006234,0.6474149846725801,B,850,Correct
2,relearn,49,779,A,57.873796111406904,75.30106688439815,2.8936898055703453,1.1828263926574945,B,606,Incorrect
2,relearn,49,780,B,38.228789318372684,14.54611545398545,1.9114394659186342,0.22848984724254828,A,483,Incorrect
2,relearn,49,781,A,27.414336680062583,46.09780131073151,1.370716834003129,0.7241025697221802,A,906,Correct
2,relearn,49,782,B,47.964584400973195,35.214299913937545,2.39822922004866,0.5531449295546694,A,734,Incorrect
2,relearn,49,783,A,55.32442652527595,80.31733383773849,2.7662213262637976,1.2616217297027907,A,818,Correct
2,relearn,49,784,A,29.243191607465334,42.4025392137368,1.4621595803732668,0.6660575284371434,B,761,Incorrect
2,relearn,49,785,A,19.788095922298176,43.803256751920294,0.9894047961149087,0.6880599480757015,A,592,Correct
2,relearn,49,786,A,54.01467384189858,73.51507848528234,2.700733692094929,1.1547721524872006,A,402,Correct
2,relearn,49,787,A,27.134298712228627,45.15614114028251,1.3567149356114314,0.7093110063538768,B,1654,Incorrect
2,relearn,49,788,A,28.563596321418398,47.47187872110495,1.4281798160709198,0.7456865272116445,A,2383,Correct
2,relearn,49,789,A,14.165810203007531,38.938031811762585,0.7082905101503766,0.6116371734253949,A,1476,Correct
2,relearn,49,790,B,49.330946186066264,35.53811483425302,2.466547309303313,0.5582314024285987,B,1514,Correct
2,relearn,49,791,B,81.85379113064982,62.70516786741939,4.092689556532491,0.9849704735719975,B,864,Correct
2,relearn,49,792,B,82.2397790058312,66.7215437870037,4.11198895029156,1.0480595589871025,B,528,Correct
2,relearn,49,793,A,48.51929609368944,71.78780901087468,2.425964804684472,1.1276402670293553,B,515,Incorrect
2,relearn,49,794,B,32.31192296467157,10.293166659854503,1.6155961482335783,0.1616846838038715,A,1080,Incorrect
2,relearn,49,795,B,64.04949262017425,37.32124108140593,3.2024746310087124,0.5862406840209922,B,884,Correct
2,relearn,49,796,B,37.12242983586491,16.60513736650035,1.8561214917932454,0.26083288781223435,A,570,Incorrect
2,relearn,49,797,B,68.60985664790888,35.951122401708886,3.4304928323954442,0.5647189101275804,B,558,Correct
2,relearn,49,798,A,38.54790059243556,71.60484830098171,1.9273950296217779,1.1247663269188786,A,279,Correct
2,relearn,49,799,A,20.167405237015924,50.381438980180974,1.0083702618507961,0.7913897928870949,A,660,Correct
2,relearn,49,800,B,64.85394921736561,38.52286237222547,3.24269746086828,0.605115707119171,B,1090,Correct
2,relearn,49,801,A,34.34385761904705,60.100732906732254,1.7171928809523525,0.9440601048757619,A,599,Correct
2,relearn,49,802,A,60.906096460296034,74.16628185758316,3.0453048230148014,1.1650012311392661,B,662,Incorrect
2,relearn,49,803,A,35.04888136126254,42.92369858143806,1.752444068063127,0.6742438806417421,A,478,Correct
2,relearn,49,804,B,74.923515183968,61.105304004634064,3.7461757591983997,0.9598398707816467,B,342,Correct
2,relearn,49,805,B,64.83688453370407,51.98199199826119,3.241844226685203,0.8165312209035038,A,355,Incorrect
2,relearn,49,806,A,41.38225576315279,60.75690182624348,2.0691127881576397,0.9543671821610139,107,24,Incorrect
2,relearn,49,807,A,53.31562649931948,73.29150776291776,2.665781324965974,1.1512603117925084,A,365,Correct
2,relearn,49,808,A,61.0666693400555,80.91367198458175,3.053333467002775,1.2709889874086815,B,507,Incorrect
2,relearn,49,809,A,37.2032202337845,56.087508333384335,1.8601610116892249,0.8810205206915827,A,641,Correct
2,relearn,49,810,A,47.9542848622796,66.11145978334736,2.3977142431139797,1.0384763818673055,B,720,Incorrect
2,relearn,49,811,A,35.36871415371154,59.674313644198484,1.768435707685577,0.9373619267631357,A,208,Correct
2,relearn,49,812,A,25.312607966878215,43.327892429319604,1.2656303983439108,0.6805929427573963,A,711,Correct
2,relearn,49,813,A,34.965431537319176,60.96789475786314,1.748271576865959,0.9576814513806925,107,1069,Correct
2,relearn,49,814,A,46.19410017036287,53.862559328909384,2.3097050085181436,0.8460711034562305,A,453,Correct
2,relearn,49,815,B,40.746995910262775,14.303457431715756,2.0373497955131388,0.22467818394206276,A,589,Incorrect
2,relearn,49,816,B,47.08698654341778,39.72497733528529,2.3543493271708886,0.6239984848027665,B,293,Correct
2,relearn,49,817,A,42.769380703990336,64.1761256339831,2.138469035199517,1.0080762241378847,B,912,Incorrect
2,relearn,49,818,A,40.519522295391425,52.8864252217913,2.025976114769571,0.8307380247570274,A,548,Correct
2,relearn,49,819,B,34.816847701077364,14.7673863534567,1.7408423850538681,0.2319655624037087,B,1888,Correct
2,relearn,49,820,B,59.717072800338144,41.31059903890802,2.985853640016907,0.648905372280135,B,953,Correct
2,relearn,49,821,A,18.853801182927178,38.32508331231622,0.942690059146359,0.602009000910947,A,742,Correct
2,relearn,49,822,A,60.585626035453004,80.71827133409303,3.02928130177265,1.2679196411682714,B,875,Incorrect
2,relearn,49,823,A,29.636076170936093,62.39754842148385,1.4818038085468046,0.9801383986147354,A,358,Correct
2,relearn,49,824,B,74.74381582770894,60.046287038069785,3.737190791385447,0.9432048711707204,B,607,Correct
2,relearn,49,825,A,34.479749925894026,62.327158301495324,1.7239874962947013,0.979032713195529,A,686,Correct
2,relearn,49,826,B,82.65770610278926,64.2082055634853,4.132885305139463,1.0085801344921435,B,448,Correct
2,relearn,49,827,B,40.42548477191828,20.04177570367525,2.0212742385959137,0.3148154765778029,B,453,Correct
2,relearn,49,828,B,38.37316797977689,12.71625575644412,1.9186583989888444,0.19974647832806885,A,614,Incorrect
2,relearn,49,829,B,76.35164895016227,63.27263891794508,3.8175824475081135,0.9938842879892795,B,298,Correct
2,relearn,49,830,B,78.18751980709587,52.14807070296543,3.9093759903547936,0.8191399790965865,100,147,Correct
2,relearn,49,831,A,25.878377113942676,57.326723215786835,1.293918855697134,0.9004860625454569,100,112,Incorrect
2,relearn,49,832,B,83.93960152622164,55.810792739056396,4.196980076311082,0.8766738823002107,100,12,Incorrect
2,relearn,49,833,A,12.833797530659751,31.013097715008456,0.6416898765329876,0.48715259973266484,B,203,Incorrect
2,relearn,49,834,B,35.60366517420202,18.996870689676083,1.7801832587101012,0.2984021469994082,A,155,Incorrect
2,relearn,49,835,B,71.75465103376253,40.40351308717336,3.587732551688126,0.6346568994694144,B,440,Correct
2,relearn,49,836,A,50.340250747795835,61.403664918697146,2.5170125373897916,0.9645265130603413,B,664,Incorrect
2,relearn,49,837,B,52.31648375584833,43.91429215381214,2.6158241877924167,0.6898040880900606,A,377,Incorrect
2,relearn,49,838,B,49.28789310450749,33.32476463787023,2.4643946552253744,0.5234641788447103,B,31,Correct
2,relearn,49,839,B,79.7862786068907,56.012528032394606,3.9893139303445353,0.8798427328778162,A,71,Incorrect
2,relearn,49,840,B,30.541711947185537,12.510460563708019,1.5270855973592767,0.1965138549998497,B,343,Correct
2,relearn,49,841,A,40.71448003447014,70.90301240364556,2.035724001723507,1.1137419144233944,B,428,Incorrect
2,relearn,49,842,A,30.053914725717057,55.49330200252665,1.5026957362858528,0.8716867494728872,A,462,Correct
2,relearn,49,843,A,57.73873319107865,85.94635885550457,2.8869366595539327,1.350042247916226,A,295,Correct
2,relearn,49,844,A,38.63724925391034,61.82649630709496,1.931862462695517,0.9711683329778301,B,614,Incorrect
2,relearn,49,845,A,39.91586790598492,67.01206530679866,1.995793395299246,1.0526230603485907,100,149,Incorrect
2,relearn,49,846,B,63.02990436680841,45.97119415935961,3.1514952183404206,0.7221138292389709,B,382,Correct
2,relearn,49,847,A,25.187224189799025,52.91564844018138,1.2593612094899513,0.83119706199807,108,576,Incorrect
2,relearn,49,848,B,62.47445492031829,50.88128919818294,3.1237227460159143,0.7992414217509461,A,606,Incorrect
2,relearn,49,849,B,36.247865986996544,16.440610359929572,1.8123932993498273,0.2582485036364349,B,334,Correct
2,relearn,49,850,B,75.5207627551907,48.69883436546945,3.7760381377595356,0.7649595014047249,A,588,Incorrect
2,relearn,49,851,B,39.56837160448863,28.21806403782304,1.9784185802244314,0.44324831339875603,B,746,Correct
2,relearn,49,852,B,67.05312654492795,52.36271103392748,3.3526563272463976,0.8225115415311589,B,445,Correct
2,relearn,49,853,A,23.233995403956225,47.56089597180308,1.1616997701978113,0.7470848069158246,A,567,Correct
2,relearn,49,854,B,75.77928699874187,43.720122470716376,3.7889643499370935,0.686754077840243,B,612,Correct
2,relearn,49,855,A,40.75378606003356,56.69702631891966,2.0376893030016783,0.8905948068195256,B,567,Incorrect
2,relearn,49,856,B,75.02899458985863,44.541438629866946,3.751449729492931,0.6996552818995531,A,316,Incorrect
2,relearn,49,857,A,58.29498769729008,70.67361870962051,2.9147493848645043,1.1101386067037498,B,525,Incorrect
2,relearn,49,858,B,47.868239464666246,32.27652919698907,2.3934119732333126,0.5069985350431866,B,368,Correct
2,relearn,49,859,B,77.079787343464,45.14254500203933,3.8539893671732,0.7090974387137668,A,40,Incorrect
2,relearn,49,860,A,42.506751420751435,60.03656372963986,2.125337571037572,0.9430521377990599,B,480,Incorrect
2,relearn,49,861,A,50.24803513023711,75.81892701500446,2.5124017565118555,1.1909609205669935,A,267,Correct
2,relearn,49,862,A,61.10116498311268,78.84354541628245,3.0550582491556337,1.2384715153138308,B,461,Incorrect
2,relearn,49,863,A,29.019272298039773,52.670718834051165,1.4509636149019887,0.8273497167417435,107,303,Correct
2,relearn,49,864,A,27.116007977956762,40.95456637272566,1.3558003988978382,0.6433128242375526,107,218,Correct
2,relearn,49,865,B,83.49817171388649,56.8222533545391,4.174908585694324,0.8925618684951901,107,260,Incorrect
2,relearn,49,866,A,47.56306680518114,72.87929805691618,2.3781533402590567,1.1447853368719438,B,434,Incorrect
2,relearn,49,867,A,24.71271493924707,40.645050582349214,1.2356357469623536,0.6384509615714691,A,258,Correct
2,relearn,49,868,B,60.312264577878175,43.29444602094142,3.0156132288939084,0.6800675678031471,A,7028,Incorrect
2,relearn,49,869,A,63.352198822093236,85.23872186927386,3.167609941104662,1.3389267121294721,B,779,Incorrect
2,relearn,49,870,B,63.8540569829442,52.91007081091567,3.19270284914721,0.831109448802442,A,321,Incorrect
2,relearn,49,871,B,37.55446891957371,21.02338056593931,1.8777234459786853,0.33023448969788677,A,247,Incorrect
2,relearn,49,872,B,31.99041414281499,10.967149923116438,1.5995207071407496,0.17227158814640234,A,319,Incorrect
2,relearn,49,873,A,18.136034488262176,35.80699715670838,0.9068017244131087,0.5624549960731282,A,947,Correct
2,relearn,49,874,B,56.609091120286266,41.98909003562912,2.8304545560143133,0.6595630839342641,B,778,Correct
2,relearn,49,875,A,63.59362983980489,85.63991167031168,3.179681491990244,1.3452285867876497,A,908,Correct
2,relearn,49,876,B,50.57095273555878,23.012378520021343,2.5285476367779385,0.361477596500633,A,985,Incorrect
2,relearn,49,877,B,61.17536137231832,50.2657900131191,3.058768068615916,0.7895731831605107,B,497,Correct
2,relearn,49,878,B,32.151945083883874,11.307465318738274,1.6075972541941936,0.17761724988034766,A,1458,Incorrect
2,relearn,49,879,B,79.69297686684774,59.29169631415884,3.984648843342387,0.9313517877971922,B,850,Correct
2,relearn,49,880,B,85.11432751589615,56.00919372801397,4.255716375794807,0.879790357747081,B,867,Correct
2,relearn,49,881,A,14.455458959394885,42.374819119508984,0.7227729479697443,0.6656221022152286,A,543,Correct
2,relearn,49,882,B,88.99721528723525,63.67231565403435,4.4498607643617625,1.0001623954788235,B,774,Correct
2,relearn,49,883,B,56.52816641017927,44.88294829812131,2.826408320508963,0.7050197032241422,B,556,Correct
2,relearn,49,884,A,38.87226508726286,63.479675422208416,1.943613254363143,0.9971364097933725,B,745,Incorrect
2,relearn,49,885,B,65.25815253317151,47.29275868681246,3.2629076266585755,0.7428729162924245,A,398,Incorrect
2,relearn,49,886,B,61.542015198498774,41.94868907920012,3.077100759924939,0.6589284671946875,B,517,Correct
2,relearn,49,887,A,66.35613117819366,80.48796559472135,3.317806558909683,1.2643020070738233,B,323,Incorrect
2,relearn,49,888,B,81.87436075047884,67.72925126868546,4.093718037523942,1.063888591094197,B,255,Correct
2,relearn,49,889,A,27.798003267981116,46.01729928584402,1.389900163399056,0.7228380468722522,A,1924,Correct
2,relearn,49,890,A,46.98658759833638,61.389005465315414,2.349329379916819,0.9642962429050929,B,601,Incorrect
2,relearn,49,891,A,67.30265765653074,79.23708620338526,3.365132882826537,1.2446532395420815,A,211,Correct
2,relearn,49,892,A,37.67541103955546,61.381777442124466,1.883770551977773,0.9641827053823095,A,259,Correct
2,relearn,49,893,A,30.949975018809596,61.0970654133658,1.5474987509404798,0.9597104592926251,B,1103,Incorrect
2,relearn,49,894,B,52.77164740217033,40.91101339140428,2.6385823701085167,0.6426286956067467,A,1217,Incorrect
2,relearn,49,895,B,47.50415559224494,34.61609214953004,2.3752077796122473,0.5437483039647545,B,1172,Correct
2,relearn,49,896,A,50.66519390845107,66.84146411845308,2.5332596954225535,1.0499432631485897,B,1588,Incorrect
2,relearn,49,897,A,45.38151671949478,58.8789335351491,2.269075835974739,0.9248681252261306,100,905,Incorrect
2,relearn,49,898,B,57.77384576942495,28.747475183752975,2.8886922884712476,0.45156428423266615,A,70,Incorrect
