experiment,condition,subject,trial,cat,x,y,xt,yt,resp,rt,fb
1,new_learn,6,0,A,21.80066720771345,47.4383427468827,1.0900333603856724,0.7451597453604066,A,2599,Correct
1,new_learn,6,1,B,45.91403528526702,18.128030115737086,2.2957017642633506,0.28475443117827076,A,1199,Incorrect
1,new_learn,6,2,B,67.93645387708132,55.62611607131933,3.396822693854066,0.8737729879869496,B,1972,Correct
1,new_learn,6,3,A,15.116372152942986,39.400196157319606,0.7558186076471494,0.6188968339891603,A,902,Correct
1,new_learn,6,4,A,66.3356026330543,89.44574315461657,3.3167801316527146,1.4050104479471144,B,767,Incorrect
1,new_learn,6,5,B,62.03181928337522,41.48039551952494,3.1015909641687607,0.6515725291606926,B,2242,Correct
1,new_learn,6,6,B,62.89126013996652,36.773902093265896,3.1445630069983257,0.5776431033001722,A,1458,Incorrect
1,new_learn,6,7,A,62.14080143447221,88.49063393511157,3.1070400717236106,1.3900076274102509,A,1294,Correct
1,new_learn,6,8,B,61.47833498908304,49.374321403475136,3.0739167494541517,0.7755700269856939,B,1158,Correct
1,new_learn,6,9,A,37.59048971885033,68.95253995805692,1.8795244859425164,1.0831039648929415,B,1308,Incorrect
1,new_learn,6,10,A,11.689166978795434,30.664869450682957,0.5844583489397717,0.48168264294777824,A,828,Correct
1,new_learn,6,11,A,60.59047512992607,77.66752933750608,3.0295237564963036,1.219998697945894,B,960,Incorrect
1,new_learn,6,12,A,66.29930029337146,86.5562720050714,3.314965014668573,1.359622741266261,A,768,Correct
1,new_learn,6,13,B,73.22557499365038,40.77205741708005,3.6612787496825194,0.6404459802661996,B,1566,Correct
1,new_learn,6,14,B,36.70449881014268,26.19786762631797,1.8352249405071341,0.41151514237279196,B,2470,Correct
1,new_learn,6,15,A,13.604691362771774,35.47909296223811,0.6802345681385887,0.557304289030983,A,662,Correct
1,new_learn,6,16,A,13.93095712975563,30.707504082218104,0.6965478564877814,0.48235234617387496,A,806,Correct
1,new_learn,6,17,A,54.178315479281366,67.64897731496548,2.708915773964068,1.0626276507777905,A,2037,Correct
1,new_learn,6,18,B,62.78345478554838,33.577728355499566,3.139172739277419,0.5274377236293556,B,685,Correct
1,new_learn,6,19,A,44.92247114137268,60.78453068667539,2.246123557068634,0.9548011752858137,A,1037,Correct
1,new_learn,6,20,A,33.80605498256886,60.45545690831806,1.690302749128443,0.9496320964629318,A,1014,Correct
1,new_learn,6,21,B,84.67589005362426,64.50583069764807,4.233794502681213,1.0132552191671906,A,1922,Incorrect
1,new_learn,6,22,A,59.726928062677274,72.4944860018154,2.986346403133864,1.1387407232453568,A,1022,Correct
1,new_learn,6,23,B,65.34105579800934,43.84733920723266,3.267052789900467,0.6887523936645091,B,1172,Correct
1,new_learn,6,24,A,62.465897882628816,81.59157748718005,3.123294894131441,1.2816375021426358,A,1487,Correct
1,new_learn,6,25,A,28.416266982593797,39.65384599045291,1.42081334912969,0.6228811562509396,A,1003,Correct
1,new_learn,6,26,B,67.539904091565,55.152112866190215,3.3769952045782503,0.8663273630518914,B,1159,Correct
1,new_learn,6,27,B,76.10234305910672,48.04959228253106,3.8051171529553356,0.7547612306139221,B,1299,Correct
1,new_learn,6,28,B,72.10753583496293,43.08305087063017,3.6053767917481467,0.6767469805470353,B,775,Correct
1,new_learn,6,29,B,84.85955462546758,62.16364914500657,4.242977731273379,0.9764643173714305,B,831,Correct
1,new_learn,6,30,A,17.880384466175002,35.419024606037894,0.89401922330875,0.5563607374982238,A,623,Correct
1,new_learn,6,31,B,49.79116475436476,32.128411712045505,2.4895582377182377,0.5046719110303521,B,925,Correct
1,new_learn,6,32,B,89.25835220520162,66.46145527583403,4.462917610260081,1.0439740982072339,B,1151,Correct
1,new_learn,6,33,A,50.68073477844522,79.8821939281469,2.534036738922261,1.2547865679865076,A,815,Correct
1,new_learn,6,34,A,64.39701715324446,88.08269517417347,3.219850857662223,1.3835997403378624,A,1655,Correct
1,new_learn,6,35,A,40.46250422773145,72.76884463170488,2.0231252113865725,1.1430503385259054,A,1208,Correct
1,new_learn,6,36,B,53.318932184422586,31.679209685944556,2.6659466092211295,0.4976158621044701,B,495,Correct
1,new_learn,6,37,B,57.667601329706535,39.43102549265152,2.8833800664853264,0.6193811000561295,B,556,Correct
1,new_learn,6,38,B,52.409488021872036,31.669045987305594,2.620474401093602,0.4974562110995829,B,544,Correct
1,new_learn,6,39,A,12.182056868738776,36.73801887532054,0.6091028434369388,0.5770794510307508,A,598,Correct
1,new_learn,6,40,A,53.34430809474556,73.3945028333537,2.6672154047372776,1.1528781545756963,A,685,Correct
1,new_learn,6,41,A,54.56747132762359,82.4589351233237,2.7283735663811797,1.2952619240313554,A,539,Correct
1,new_learn,6,42,A,51.606475912077464,67.40366301015672,2.580323795603873,1.0587742626887522,A,484,Correct
1,new_learn,6,43,A,61.640773843401085,75.58722652615884,3.0820386921700544,1.1873213777990408,A,508,Correct
1,new_learn,6,44,A,32.10204826590609,60.35947849556248,1.6051024132953047,0.9481244710808507,A,742,Correct
1,new_learn,6,45,A,17.221371589612552,36.49262480886556,0.8610685794806275,0.5732248100487033,A,670,Correct
1,new_learn,6,46,B,59.00632672030077,50.66428687403993,2.950316336015039,0.7958327572142482,B,1208,Correct
1,new_learn,6,47,B,76.23945165120685,53.8843099211028,3.8119725825603425,0.8464127609594608,B,955,Correct
1,new_learn,6,48,A,14.650694192048896,30.761624192135145,0.7325347096024447,0.4832024628725092,A,855,Correct
1,new_learn,6,49,A,37.934253322001325,69.97401165569867,1.8967126661000662,1.0991492047987474,A,714,Correct
1,new_learn,6,50,A,12.93504166652503,39.26973439849318,0.6467520833262514,0.616847545473643,A,588,Correct
1,new_learn,6,51,B,45.79702109101703,37.51210793887043,2.2898510545508515,0.5892388136071135,B,1245,Correct
1,new_learn,6,52,A,33.382081311123116,51.587551273603346,1.6691040655561558,0.8103353604891952,B,1328,Incorrect
1,new_learn,6,53,A,37.96177138327821,65.03311827100683,1.8980885691639104,1.021537833001156,A,632,Correct
1,new_learn,6,54,A,48.5647640131093,64.90730703830137,2.428238200655465,1.0195615947791232,A,661,Correct
1,new_learn,6,55,A,51.09513469122109,64.54193006520919,2.5547567345610545,1.0138222667068368,A,761,Correct
1,new_learn,6,56,A,46.51090294920267,61.7470154775574,2.3255451474601334,0.969919851026948,A,518,Correct
1,new_learn,6,57,A,23.231160767720976,45.65329352818695,1.1615580383860489,0.7171202578016527,A,677,Correct
1,new_learn,6,58,A,37.323122643775356,65.97060811932512,1.8661561321887676,1.0362638891026148,A,669,Correct
1,new_learn,6,59,A,27.28152013480467,42.03939606061576,1.3640760067402333,0.6603532891269108,A,652,Correct
1,new_learn,6,60,A,50.00505414323981,62.24042560768179,2.5002527071619904,0.9776703192269758,A,812,Correct
1,new_learn,6,61,B,37.78495560514913,27.696762804846905,1.8892477802574563,0.4350597327796304,B,759,Correct
1,new_learn,6,62,A,51.187377211635805,77.29134138835863,2.5593688605817904,1.214089551458841,A,700,Correct
1,new_learn,6,63,B,76.23085573449849,61.39367476367628,3.8115427867249245,0.9643695880722324,B,806,Correct
1,new_learn,6,64,A,29.58823577166553,54.32281856176803,1.4794117885832765,0.8533008385797086,A,507,Correct
1,new_learn,6,65,B,60.239434147536244,49.69861392780033,3.011971707376812,0.7806640020458643,B,764,Correct
1,new_learn,6,66,A,19.093229717139497,43.05745800599958,0.9546614858569749,0.6763449687694965,A,561,Correct
1,new_learn,6,67,B,56.39430273406393,40.39198066601089,2.8197151367031963,0.6344757486214038,B,639,Correct
1,new_learn,6,68,B,36.83204828762527,17.32636176593795,1.8416024143812635,0.2721618541865487,B,1904,Correct
1,new_learn,6,69,A,36.558172645272734,50.32995133027377,1.8279086322636369,0.7905810267735995,B,1475,Incorrect
1,new_learn,6,70,B,53.5896443105082,26.490269002233035,2.6794822155254097,0.4161081724451636,B,723,Correct
1,new_learn,6,71,B,80.17846606547045,61.04009126686488,4.008923303273522,0.9588155114921659,B,1025,Correct
1,new_learn,6,72,B,80.87008514319638,52.741654102290255,4.043504257159819,0.8284639653296452,B,853,Correct
1,new_learn,6,73,A,58.189015160169845,68.61568369753232,2.909450758008492,1.0778126391260423,A,1236,Correct
1,new_learn,6,74,B,52.184572993066936,23.014234127189876,2.6092286496533466,0.36150674430987606,B,717,Correct
1,new_learn,6,75,B,82.89027337012936,61.79587882942905,4.144513668506468,0.9706873947632967,B,1056,Correct
1,new_learn,6,76,A,35.772616202461684,47.29819472460507,1.7886308101230841,0.742958305374394,A,539,Correct
1,new_learn,6,77,B,71.14968938415826,53.638650943119764,3.557484469207913,0.8425539587568613,B,659,Correct
1,new_learn,6,78,B,73.90899242196818,62.09292516645592,3.6954496210984087,0.9753533877141934,B,645,Correct
1,new_learn,6,79,A,38.53732672577528,54.21186026665094,1.926866336288764,0.851557909755735,A,564,Correct
1,new_learn,6,80,A,34.81103497307106,57.64130383336475,1.7405517486535529,0.9054274833311794,A,588,Correct
1,new_learn,6,81,B,35.05461236572303,10.837680988969488,1.7527306182861515,0.17023789488448154,B,997,Correct
1,new_learn,6,82,A,62.52685270846489,72.50860816917672,3.1263426354232444,1.1389625537315322,B,1149,Incorrect
1,new_learn,6,83,B,69.4518602179722,38.37655348831356,3.47259301089861,0.6028174925449082,A,473,Incorrect
1,new_learn,6,84,B,71.39835848759107,46.489041600685916,3.569917924379553,0.7302481578257257,B,1419,Correct
1,new_learn,6,85,A,25.950296769562737,42.51057380738659,1.297514838478137,0.667754531865862,A,512,Correct
1,new_learn,6,86,B,77.86509262695442,62.632790038767546,3.8932546313477214,0.9838335652981205,A,694,Incorrect
1,new_learn,6,87,A,38.34509969101624,54.582048883114375,1.9172549845508118,0.8573728189453556,A,828,Correct
1,new_learn,6,88,B,74.77078273209356,50.31371318632403,3.738539136604678,0.7903259586048973,B,620,Correct
1,new_learn,6,89,A,35.91374190153284,63.30016935825398,1.7956870950766417,0.9943167351344022,A,587,Correct
1,new_learn,6,90,B,65.99579673745036,55.12962269734153,3.299789836872518,0.8659740883057263,B,565,Correct
1,new_learn,6,91,B,79.20014168619647,66.66476636597827,3.960007084309824,1.0471677013431864,B,721,Correct
1,new_learn,6,92,A,26.575225037691194,56.06905022585429,1.3287612518845597,0.880730581416505,A,497,Correct
1,new_learn,6,93,A,30.729132062570443,44.64526758559771,1.536456603128522,0.7012862233223214,A,579,Correct
1,new_learn,6,94,B,70.5891070944417,57.06675718634186,3.529455354722085,0.8964025257040207,B,615,Correct
1,new_learn,6,95,A,53.29370557519681,67.0033481687257,2.66468527875984,1.0524861318639387,A,1509,Correct
1,new_learn,6,96,B,41.307307420853945,20.540805463953884,2.065365371042697,0.322654217721873,B,1366,Correct
1,new_learn,6,97,A,50.326231474886676,61.6237876204037,2.516311573744334,0.9679841923731894,A,2624,Correct
1,new_learn,6,98,B,60.41629050243539,51.425692481895325,3.0208145251217697,0.807792888534451,B,1042,Correct
1,new_learn,6,99,A,56.013496655649035,71.16004077172366,2.8006748327824518,1.117779306587986,A,939,Correct
1,new_learn,6,100,A,56.582964352795614,84.10410754858741,2.829148217639781,1.3211042320568402,A,608,Correct
1,new_learn,6,101,A,69.55637235671654,85.70959450602882,3.477818617835827,1.346323162211501,B,1254,Incorrect
1,new_learn,6,102,B,42.789174873922605,29.329862137248483,2.1394587436961303,0.4607123971059063,B,1110,Correct
1,new_learn,6,103,B,41.608777390565606,27.797229684184742,2.08043886952828,0.4366378628299145,B,1284,Correct
1,new_learn,6,104,A,55.304828435405014,79.74834565683848,2.7652414217702503,1.2526840842573161,A,814,Correct
1,new_learn,6,105,B,77.01116856743774,58.18508246534448,3.8505584283718868,0.9139691381082126,B,603,Correct
1,new_learn,6,106,A,46.292947241364736,67.4598418309391,2.314647362068237,1.0596567175420384,A,540,Correct
1,new_learn,6,107,B,66.86580216790975,42.71460943759939,3.3432901083954873,0.6709595160505974,B,512,Correct
1,new_learn,6,108,B,55.88885459298688,24.861657396568127,2.7944427296493437,0.3905260011656238,B,475,Correct
1,new_learn,6,109,A,61.207018045412184,80.87510120178543,3.060350902270609,1.270383118969301,A,572,Correct
1,new_learn,6,110,B,39.58757962575521,12.135318388022934,1.9793789812877605,0.19062113548392992,A,1025,Incorrect
1,new_learn,6,111,A,54.956094235509084,65.97397155158042,2.7478047117754545,1.0363167217729352,B,1048,Incorrect
1,new_learn,6,112,A,60.325910492983475,82.66145770080075,3.016295524649174,1.2984431412392954,A,929,Correct
1,new_learn,6,113,B,43.45630607236609,25.741483941465063,2.1728153036183047,0.4043462842150314,B,1542,Correct
1,new_learn,6,114,A,21.669966240946714,42.14859171608474,1.0834983120473356,0.6620685304720371,A,867,Correct
1,new_learn,6,115,A,32.78510882271094,45.77936249798015,1.6392554411355469,0.7191005445483926,A,1082,Correct
1,new_learn,6,116,A,27.96317941061607,41.44595476105033,1.3981589705308037,0.6510315349916531,A,665,Correct
1,new_learn,6,117,A,34.89085057579632,50.624590495780645,1.744542528789816,0.7952092079626807,A,965,Correct
1,new_learn,6,118,B,49.295836680390764,28.360433376865508,2.4647918340195383,0.44548464574691726,B,643,Correct
1,new_learn,6,119,B,54.12262831065294,44.7619135457242,2.706131415532647,0.7031184937793429,B,757,Correct
1,new_learn,6,120,B,47.19449976787074,20.584908393542708,2.359724988393537,0.3233469849198632,B,596,Correct
1,new_learn,6,121,A,47.465452507035124,64.85535903157798,2.373272625351756,1.018745597397669,A,1398,Correct
1,new_learn,6,122,B,63.50621664775141,49.02026402024292,3.1753108323875705,0.7700085066151361,B,1637,Correct
1,new_learn,6,123,A,27.82160503377628,46.73048695077857,1.3910802516888139,0.7340407725161983,A,669,Correct
1,new_learn,6,124,B,73.51204404447292,43.058932208535055,3.675602202223646,0.6763681254887732,B,824,Correct
1,new_learn,6,125,B,58.67073743212208,37.808516081600175,2.9335368716061043,0.5938947818254333,B,1022,Correct
1,new_learn,6,126,A,21.86317183386171,49.01871930687353,1.0931585916930855,0.7699842423142703,A,493,Correct
1,new_learn,6,127,A,25.049916897816875,52.544532662114214,1.2524958448908436,0.8253675889880348,A,507,Correct
1,new_learn,6,128,B,80.32408068198322,66.5668146414312,4.016204034099161,1.0456290792519687,B,877,Correct
1,new_learn,6,129,A,41.504201217953494,65.66224510388435,2.0752100608976747,1.031420134182877,B,1032,Incorrect
1,new_learn,6,130,B,66.47433301628763,46.495728992522785,3.3237166508143816,0.7303532031310577,B,600,Correct
1,new_learn,6,131,A,37.60848150757267,64.0927932099974,1.8804240753786334,1.006767241482888,A,607,Correct
1,new_learn,6,132,A,50.58194953711912,72.8299318030384,2.529097476855956,1.1440098935693555,A,1475,Correct
1,new_learn,6,133,A,67.76905483571312,83.15745076078088,3.388452741785656,1.3062341820066208,B,1173,Incorrect
1,new_learn,6,134,B,45.65545829274329,28.50405502151548,2.2827729146371643,0.4477406492655614,B,609,Correct
1,new_learn,6,135,A,32.020607112252684,54.7244606539646,1.6010303556126342,0.8596098178107943,A,827,Correct
1,new_learn,6,136,A,60.240192215468994,71.96795294333077,3.0120096107734495,1.1304699613033196,A,1140,Correct
1,new_learn,6,137,A,64.11674462388345,81.25796416997238,3.2058372311941725,1.2763971164102395,A,689,Correct
1,new_learn,6,138,B,55.17604572662924,32.36261584451874,2.758802286331462,0.5083507809404436,B,844,Correct
1,new_learn,6,139,B,56.98133263334952,39.85887313184981,2.8490666316674758,0.6261017150569348,B,1913,Correct
1,new_learn,6,140,A,27.763836381444634,47.36820329449645,1.3881918190722318,0.7440579974186894,A,686,Correct
1,new_learn,6,141,A,55.20105755152482,78.98804793090676,2.760052877576241,1.2407413555056757,A,783,Correct
1,new_learn,6,142,B,57.46145846331123,40.17686197712732,2.873072923165562,0.6310966721581714,B,1006,Correct
1,new_learn,6,143,B,54.40642153981996,31.730219181812544,2.7203210769909982,0.49841711739188105,B,518,Correct
1,new_learn,6,144,A,34.90681915404905,57.22485356187936,1.7453409577024528,0.8988858977637594,A,587,Correct
1,new_learn,6,145,B,31.476945091509215,10.544602025602629,1.5738472545754607,0.16563422129330635,A,1232,Incorrect
1,new_learn,6,146,B,47.060621994034804,24.955003710614786,2.3530310997017403,0.3919922816378672,B,2275,Correct
1,new_learn,6,147,B,76.21496945091573,53.924108454980406,3.8107484725457867,0.8470379148677285,B,2285,Correct
1,new_learn,6,148,B,68.10663054220007,51.415515639676656,3.405331527110003,0.8076330310706965,107,1980,Incorrect
1,new_learn,6,149,A,60.719797678859436,71.25130132370717,3.035989883942972,1.1192128239863557,A,971,Correct
1,new_learn,6,150,B,65.21192333130625,34.555248354197296,3.2605961665653127,0.5427925718625851,B,707,Correct
1,new_learn,6,151,B,67.18104717422784,42.88293556329116,3.3590523587113923,0.67360357665,B,1087,Correct
1,new_learn,6,152,A,51.54952135554207,61.45805684663038,2.577476067777104,0.9653808994663894,A,596,Correct
1,new_learn,6,153,B,55.35883118200099,23.244524243645802,2.76794155910005,0.3651241330001374,B,652,Correct
1,new_learn,6,154,A,39.947029253955144,62.414909574073505,1.9973514626977573,0.9804111069619029,A,1077,Correct
1,new_learn,6,155,A,20.101110493193147,42.4235853400946,1.0050555246596573,0.6663881202169041,A,619,Correct
1,new_learn,6,156,A,33.194806489487355,44.79263428461055,1.6597403244743676,0.7036010540173341,A,560,Correct
1,new_learn,6,157,B,71.66572990527304,56.218211270937076,3.583286495263652,0.883073597633674,107,849,Incorrect
1,new_learn,6,158,A,25.59300496783137,58.06145006206801,1.2796502483915686,0.9120271248588174,A,661,Correct
1,new_learn,6,159,B,44.53330408575463,19.05309569828631,2.2266652042877313,0.2992853273693978,B,642,Correct
1,new_learn,6,160,B,51.352160143169726,22.369062378472226,2.567608007158486,0.3513724101795008,B,943,Correct
1,new_learn,6,161,B,50.753629051599574,37.675222087896344,2.537681452579979,0.5918010046684953,B,801,Correct
1,new_learn,6,162,A,21.344300385285532,53.00126442332917,1.0672150192642766,0.832541914716505,A,529,Correct
1,new_learn,6,163,A,40.680716101213726,60.98521666758603,2.0340358050606864,0.9579535433023504,A,687,Correct
1,new_learn,6,164,B,85.8194347887202,69.21079146830074,4.29097173943601,1.0871605701297438,107,675,Incorrect
1,new_learn,6,165,B,34.4343983847771,18.7822682557029,1.7217199192388548,0.295031179849345,B,1183,Correct
1,new_learn,6,166,A,42.709337822491236,66.83703830128445,2.135466891124562,1.0498737425750742,A,1008,Correct
1,new_learn,6,167,B,39.45973272560547,14.739809950758477,1.9729866362802735,0.2315323932830628,B,634,Correct
1,new_learn,6,168,A,25.383831513170662,48.580837978187475,1.269191575658533,0.763106018487549,A,550,Correct
1,new_learn,6,169,A,50.93402417532544,76.21319913739526,2.546701208766272,1.1971541325830846,A,686,Correct
1,new_learn,6,170,A,30.024356380519475,52.0130033050614,1.5012178190259737,0.8170183453716127,A,739,Correct
1,new_learn,6,171,A,60.498870777944305,83.5008417599078,3.0249435388972152,1.311628155207451,A,731,Correct
1,new_learn,6,172,A,39.58332867605622,67.48918321712856,1.979166433802811,1.0601176109585333,A,730,Correct
1,new_learn,6,173,B,56.85518508651358,44.2870611405011,2.8427592543256788,0.6956595296404013,B,2203,Correct
1,new_learn,6,174,A,16.8558250176043,44.41001843779087,0.842791250880215,0.6975909383497553,A,1307,Correct
1,new_learn,6,175,A,47.24637876675461,77.87649571484204,2.3623189383377308,1.2232811341253236,A,1434,Correct
1,new_learn,6,176,B,77.13831106571949,58.58046076008214,3.8569155532859747,0.920179725838896,107,1360,Incorrect
1,new_learn,6,177,B,54.42865324504592,44.926382497042894,2.7214326622522957,0.705701966025375,B,607,Correct
1,new_learn,6,178,A,54.94831055058786,72.14098141165908,2.7474155275293928,1.13318788612813,A,1138,Correct
1,new_learn,6,179,A,62.76619714416637,72.04307997565473,3.1383098572083186,1.131650053967494,B,785,Incorrect
1,new_learn,6,180,B,34.95086662059532,24.0776615660694,1.7475433310297661,0.3782110234579247,107,1212,Incorrect
1,new_learn,6,181,A,64.53771032170135,89.30286080584929,3.226885516085068,1.4027660572610403,A,1327,Correct
1,new_learn,6,182,A,58.05298458052556,68.06633481153726,2.902649229026278,1.0691834870035433,A,729,Correct
1,new_learn,6,183,A,54.14444194161054,67.834012392091,2.7072220970805265,1.0655341749725602,A,750,Correct
1,new_learn,6,184,B,72.9121121573031,59.66100934629112,3.6456056078651553,0.9371529433403009,107,1048,Incorrect
1,new_learn,6,185,B,76.03161733470695,48.43909345418722,3.8015808667353475,0.7608795007111201,B,536,Correct
1,new_learn,6,186,B,64.26823182236043,42.050852647388766,3.213411591118022,0.6605332487711173,B,424,Correct
1,new_learn,6,187,A,46.939011554625566,57.24945193300046,2.346950577731278,0.8992722880737809,100,447,Incorrect
1,new_learn,6,188,B,66.33178328893528,35.89544620231645,3.316589164446764,0.5638443504326249,B,783,Correct
1,new_learn,6,189,A,41.7186067903933,67.98073287355105,2.085930339519665,1.0678388549059905,A,2121,Correct
1,new_learn,6,190,B,62.86837046049285,45.39509582628285,3.1434185230246423,0.7130644977842745,B,1669,Correct
1,new_learn,6,191,B,43.52534721874147,22.829875348956538,2.1762673609370737,0.3586108433932629,B,1464,Correct
1,new_learn,6,192,B,73.37769737585145,45.835409448136126,3.6688848687925724,0.7199809279827232,B,874,Correct
1,new_learn,6,193,A,37.78445941365549,66.39765488197992,1.8892229706827746,1.0429719239640929,A,1003,Correct
1,new_learn,6,194,B,80.85230161748532,65.84080335748527,4.042615080874266,1.0342249206716296,B,647,Correct
1,new_learn,6,195,B,63.31624086094212,33.77318166630217,3.165812043047106,0.530507897056042,B,654,Correct
1,new_learn,6,196,A,51.493781378119124,66.53359096523333,2.5746890689059563,1.0451072029666264,A,1657,Correct
1,new_learn,6,197,A,33.636196311119996,59.18685128281254,1.6818098155559997,0.9297048858959774,A,732,Correct
1,new_learn,6,198,A,32.366361174811836,42.16546714741882,1.6183180587405916,0.6623336091275637,A,501,Correct
1,new_learn,6,199,A,14.216827641587518,43.24073961333623,0.7108413820793759,0.6792239495252312,A,469,Correct
1,new_learn,6,200,B,55.92432804454467,33.88440189485113,2.796216402227234,0.5322549403207419,B,825,Correct
1,new_learn,6,201,A,25.054228033060966,49.76022685085527,1.2527114016530483,0.7816318155780424,A,782,Correct
1,new_learn,6,202,B,62.855786512267734,36.12611001960592,3.1427893256133865,0.5674676092018529,B,494,Correct
1,new_learn,6,203,B,61.32853077845846,49.23333214452235,3.066426538922923,0.7733553728848881,B,500,Correct
1,new_learn,6,204,B,73.42492756518502,44.03307065645093,3.671246378259251,0.6916698564465327,B,674,Correct
1,new_learn,6,205,B,43.13893057534421,17.579413659990117,2.1569465287672105,0.2761367840432051,B,945,Correct
1,new_learn,6,206,B,46.55753946171325,30.661080526327567,2.3278769730856625,0.48162312666317875,B,748,Correct
1,new_learn,6,207,B,40.30062042844206,18.109315584525547,2.015031021422103,0.28446046400942304,B,639,Correct
1,new_learn,6,208,B,37.55604118223049,28.138037590180225,1.8778020591115245,0.44199126089871815,B,591,Correct
1,new_learn,6,209,B,46.12756204415177,26.523294043742396,2.3063781022075887,0.41662692858411515,B,584,Correct
1,new_learn,6,210,B,59.62106051546725,27.495576128645652,2.9810530257733627,0.4318994998598603,B,842,Correct
1,new_learn,6,211,B,85.49713432538582,58.808068214237245,4.274856716269291,0.9237549753682758,B,503,Correct
1,new_learn,6,212,B,84.51891946050458,64.35488081427935,4.225945973025229,1.0108841039439338,B,690,Correct
1,new_learn,6,213,B,47.58701427006792,24.109658356804864,2.379350713503396,0.3787136278714896,B,739,Correct
1,new_learn,6,214,A,39.17949494001117,67.16051129490255,1.9589747470005585,1.054954844477001,A,582,Correct
1,new_learn,6,215,A,36.33527040103305,68.23805168722214,1.8167635200516525,1.0718808093792882,A,425,Correct
1,new_learn,6,216,A,58.130059361691465,72.06307074761324,2.906502968084573,1.1319640682791163,A,417,Correct
1,new_learn,6,217,B,44.83199665551682,34.764135385349384,2.241599832775841,0.546073761675073,B,514,Correct
1,new_learn,6,218,A,39.89913982211792,71.74913706074582,1.9949569911058957,1.127032809457231,A,371,Correct
1,new_learn,6,219,A,46.016336464724624,70.67474997123286,2.300816823236231,1.110156376519603,A,484,Correct
1,new_learn,6,220,B,68.28883530737595,58.420266059387906,3.4144417653687977,0.917663393364671,107,558,Incorrect
1,new_learn,6,221,B,76.84799225544873,60.02296098314758,3.8423996127724367,0.9428384663568162,B,897,Correct
1,new_learn,6,222,A,41.1923259389796,57.58339218954207,2.0596162969489797,0.9045178093572261,B,1385,Incorrect
1,new_learn,6,223,B,72.95825164178329,56.3335025878814,3.6479125820891647,0.8848845894053491,B,559,Correct
1,new_learn,6,224,B,75.2455494254478,45.18687850987311,3.76227747127239,0.7097938278263594,B,806,Correct
1,new_learn,6,225,A,20.826162717869227,42.51075359996898,1.0413081358934613,0.667757356041142,A,499,Correct
1,new_learn,6,226,B,40.59968684173481,28.114278701308024,2.0299843420867405,0.44161805714502633,B,683,Correct
1,new_learn,6,227,A,31.094231058972042,58.8957033597448,1.5547115529486022,0.9251315450148897,A,976,Correct
1,new_learn,6,228,A,12.225598117393965,30.65422989120038,0.6112799058696983,0.4815155171382388,A,917,Correct
1,new_learn,6,229,B,73.41867048491616,56.71900270631395,3.6709335242458083,0.8909400111054775,B,624,Correct
1,new_learn,6,230,B,65.28752434171909,38.99155471565506,3.2643762170859545,0.612477909233732,B,542,Correct
1,new_learn,6,231,B,83.55614214305243,62.201525566633165,4.177807107152621,0.9770592788110622,B,441,Correct
1,new_learn,6,232,A,38.37477411028803,64.32475146006706,1.9187387055144014,1.01041083315468,A,679,Correct
1,new_learn,6,233,B,56.834651241637765,42.358685381834135,2.8417325620818885,0.6653686740564575,B,652,Correct
1,new_learn,6,234,B,75.79545034955252,55.77751914006709,3.7897725174776262,0.8761512218294943,B,1670,Correct
1,new_learn,6,235,B,58.09805872917124,48.06547358516601,2.9049029364585626,0.755010693532359,B,901,Correct
1,new_learn,6,236,A,36.864319213960115,65.3176777354637,1.8432159606980059,1.0260076826163917,A,710,Correct
1,new_learn,6,237,B,78.52006878719003,49.38234072620359,3.9260034393595014,0.7756959942125462,B,581,Correct
1,new_learn,6,238,A,47.26009762985355,64.9953784968593,2.363004881492677,1.020945018015106,A,2185,Correct
1,new_learn,6,239,B,37.34933504667938,11.161668280732208,1.867466752333969,0.17532707536277262,107,643,Incorrect
1,new_learn,6,240,B,85.78150647554361,66.77564072179425,4.289075323777181,1.0489093116517012,B,815,Correct
1,new_learn,6,241,A,64.82650103659243,75.79360925549601,3.2413250518296217,1.190563230130608,A,1480,Correct
1,new_learn,6,242,A,29.284602902903913,47.449510409642464,1.4642301451451956,0.745335166596826,A,895,Correct
1,new_learn,6,243,A,29.075113337549787,52.070117525415895,1.4537556668774894,0.8179154934470186,A,607,Correct
1,new_learn,6,244,B,31.764379912556326,13.391865411695886,1.5882189956278163,0.2103589299762352,B,625,Correct
1,new_learn,6,245,B,36.62961458036597,10.874947026536987,1.8314807290182984,0.1708232684337338,B,620,Correct
1,new_learn,6,246,A,65.66947411947217,76.66830453094653,3.2834737059736083,1.2043029113880332,A,1438,Correct
1,new_learn,6,247,B,60.60277595168782,43.75568917939734,3.030138797584391,0.6873127583937655,B,843,Correct
1,new_learn,6,248,A,60.766537839641046,77.46588805999448,3.0383268919820523,1.2168313241654396,A,843,Correct
1,new_learn,6,249,A,45.71646168832933,60.1421081067293,2.2858230844164664,0.9447100249975197,A,1210,Correct
1,new_learn,6,250,B,50.67215795434191,24.753118647184042,2.5336078977170957,0.3888210784771495,B,429,Correct
1,new_learn,6,251,A,31.98356955459076,62.28913150795325,1.599178477729538,0.9784353897193724,A,632,Correct
1,new_learn,6,252,A,47.30781367087312,74.28061531087191,2.365390683543656,1.1667971768238237,A,1223,Correct
1,new_learn,6,253,B,59.54549812765894,49.11361813202557,2.977274906382947,0.77147490957393,B,665,Correct
1,new_learn,6,254,B,71.54637871290282,61.135328443320354,3.577318935645141,0.9603114935616718,B,512,Correct
1,new_learn,6,255,A,40.89462937336269,71.81897898311806,2.0447314686681346,1.1281298838084173,A,614,Correct
1,new_learn,6,256,A,29.258985339444628,54.01072307403704,1.4629492669722313,0.8483984541223374,A,734,Correct
1,new_learn,6,257,B,38.4206042468964,21.920706756784984,1.9210302123448202,0.34432965654305925,B,876,Correct
1,new_learn,6,258,A,45.60529889057621,74.50298470476316,2.28026494452881,1.1702901470949836,A,762,Correct
1,new_learn,6,259,B,61.62663262863409,50.720368066249065,3.0813316314317047,0.796713678521492,B,519,Correct
1,new_learn,6,260,B,63.77853916948427,50.514560507770284,3.1889269584742137,0.793480860952641,B,496,Correct
1,new_learn,6,261,B,67.1430167621609,48.11271230575104,3.3571508381080446,0.7557527176201336,B,517,Correct
1,new_learn,6,262,B,45.2211118598202,22.526505409963494,2.26105559299101,0.35384551953496024,B,757,Correct
1,new_learn,6,263,B,67.69314291612383,35.74685136300073,3.384657145806192,0.5615102281548469,B,770,Correct
1,new_learn,6,264,A,39.50157546168893,57.685759518346536,1.9750787730844466,0.9061257915979248,A,798,Correct
1,new_learn,6,265,A,67.55358463506853,86.44499995637331,3.3776792317534268,1.3578748840125618,A,675,Correct
1,new_learn,6,266,B,56.25168057213814,34.6465755186958,2.812584028606907,0.5442271356078935,B,614,Correct
1,new_learn,6,267,A,42.09068050603987,49.632804225013096,2.104534025301993,0.7796302656518078,100,902,Incorrect
1,new_learn,6,268,B,53.379933192159505,40.79283591111025,2.6689966596079753,0.6407723680871893,B,848,Correct
1,new_learn,6,269,A,36.22773774513098,65.78961100130427,1.811386887256549,1.0334207930211385,A,536,Correct
1,new_learn,6,270,A,52.04049473950894,79.67403820167058,2.602024736975447,1.2515168654810043,A,693,Correct
1,new_learn,6,271,A,68.24139792227453,86.11983734067536,3.4120698961137266,1.3527672415890681,A,954,Correct
1,new_learn,6,272,B,79.68569282530379,55.49900393416303,3.9842846412651896,0.8717763152055881,B,1293,Correct
1,new_learn,6,273,A,31.108817463692745,40.28110613511862,1.5554408731846372,0.632734135562797,A,785,Correct
1,new_learn,6,274,A,40.76301339210964,50.15942127351559,2.038150669605482,0.7879023469059607,A,2131,Correct
1,new_learn,6,275,B,57.40867763778132,34.73191127276267,2.870433881889066,0.5455675864982186,B,2267,Correct
1,new_learn,6,276,B,52.53344114769387,33.74313702260257,2.6266720573846936,0.53003595689641,B,509,Correct
1,new_learn,6,277,A,54.280982489598415,72.90334798774921,2.7140491244799203,1.1451631123020658,A,772,Correct
1,new_learn,6,278,B,55.259873718461726,39.729097919797624,2.762993685923086,0.6240632107929288,B,716,Correct
1,new_learn,6,279,B,79.96502345008936,50.95002743108621,3.998251172504468,0.8003211593884945,B,748,Correct
1,new_learn,6,280,A,37.77466282199424,67.54294304655376,1.8887331410997121,1.0609620683844354,A,668,Correct
1,new_learn,6,281,A,41.90624879036717,72.29258432940087,2.0953124395183584,1.1355692591913318,A,968,Correct
1,new_learn,6,282,A,58.78452605290104,85.61147347910324,2.939226302645052,1.3447818807247407,A,578,Correct
1,new_learn,6,283,B,52.08971561273046,39.08711468641359,2.604485780636523,0.6139789617442933,B,726,Correct
1,new_learn,6,284,B,84.58039763743948,59.489538451570354,4.229019881871974,0.9344594848245047,B,756,Correct
1,new_learn,6,285,A,49.84039370428077,67.16711639350652,2.4920196852140384,1.0550585971232533,A,789,Correct
1,new_learn,6,286,B,38.250800973711314,28.797122384830914,1.9125400486855657,0.4523441406435549,A,709,Incorrect
1,new_learn,6,287,A,11.424067564001891,32.64311374766986,0.5712033782000945,0.5127568316998781,A,674,Correct
1,new_learn,6,288,A,41.75982365815882,72.92141682879718,2.0879911829079414,1.1454469369935416,A,819,Correct
1,new_learn,6,289,A,34.75774221891852,47.408702780447626,1.737887110945926,0.7446941618563813,B,1043,Incorrect
1,new_learn,6,290,A,67.3026058446847,82.58762269648138,3.365130292234235,1.2972833437035578,A,687,Correct
1,new_learn,6,291,B,64.79839783183107,49.045670297177175,3.239919891591553,0.7704075874799947,B,882,Correct
1,new_learn,6,292,B,61.246716706510966,52.895908603040844,3.062335835325548,0.8308869893613513,B,489,Correct
1,new_learn,6,293,B,57.94270375182927,27.254091076416316,2.8971351875914637,0.4281062615296832,B,818,Correct
1,new_learn,6,294,B,79.39924759943469,66.15658273274286,3.9699623799717347,1.0391851714989517,B,2616,Correct
1,new_learn,6,295,A,45.88949700318916,57.402491001677305,2.294474850159458,0.9016762201431182,A,1182,Correct
1,new_learn,6,296,A,22.717269175516098,40.98391160639784,1.1358634587758047,0.6437737780901646,A,608,Correct
1,new_learn,6,297,A,47.77535845747285,56.71133045446268,2.3887679228736425,0.8908194956552155,B,778,Incorrect
1,new_learn,6,298,A,51.30086337225329,68.2099261685119,2.5650431686126645,1.0714390147644959,A,598,Correct
1,new_learn,6,299,A,16.388294110368822,33.27754119591337,0.8194147055184411,0.5227223947530657,A,915,Correct
1,new_learn,6,300,B,71.82727366435486,51.49590391503648,3.5913636832177427,0.8088957671472223,B,980,Correct
1,new_learn,6,301,A,19.762190490838893,43.638601793399545,0.9881095245419447,0.6854735540353719,A,609,Correct
1,new_learn,6,302,A,55.40465122285898,75.30122214642522,2.770232561142949,1.1828288315077122,A,833,Correct
1,new_learn,6,303,B,49.71291981169724,38.627294571995705,2.485645990584862,0.606756124277153,B,636,Correct
1,new_learn,6,304,B,42.60350508430001,16.33696959965869,2.1301752542150005,0.2566205183810376,B,647,Incorrect
1,new_learn,6,305,A,43.77804959991058,72.8755594114123,2.1889024799955292,1.144726610365697,A,989,Correct
1,new_learn,6,306,B,82.64354199550408,67.10149932263846,4.132177099775204,1.0540278865843073,B,1017,Incorrect
1,new_learn,6,307,B,70.91528460720927,40.57550992967491,3.5457642303604637,0.6373586195536319,B,712,Incorrect
1,new_learn,6,308,B,49.626157295796794,23.79259610343257,2.4813078647898394,0.3737332256418645,B,894,Incorrect
1,new_learn,6,309,B,53.62075619750797,30.54529126460325,2.681037809875398,0.4798043131931903,A,687,Incorrect
1,new_learn,6,310,B,36.097058388535196,25.865075825095275,1.80485291942676,0.40628766098331137,A,1268,Incorrect
1,new_learn,6,311,B,75.89285005334722,46.4693474076669,3.7946425026673607,0.729938802165191,B,1440,Incorrect
1,new_learn,6,312,A,37.03019275122069,55.66915715192202,1.8515096375610343,0.8744490757000695,A,3227,Correct
1,new_learn,6,313,B,65.75503934303823,48.78926077313382,3.2877519671519115,0.7663799160947694,B,654,Correct
1,new_learn,6,314,B,49.858965775625286,20.169655453971366,2.4929482887812644,0.31682420699816877,B,661,Correct
1,new_learn,6,315,A,62.287904226558524,73.39955265943212,3.114395211327926,1.1529574770582454,A,739,Correct
1,new_learn,6,316,A,43.36092843552142,58.37930237924438,2.1680464217760713,0.9170199373816564,A,716,Correct
1,new_learn,6,317,A,19.37454013676015,48.59354921578675,0.9687270068380074,0.7633056861408485,A,644,Incorrect
1,new_learn,6,318,A,38.14341555017984,46.998408306832395,1.9071707775089919,0.7382492713357907,A,1707,Correct
1,new_learn,6,319,A,23.98637286427296,56.282649782896904,1.199318643213648,0.8840857954125805,A,1324,Correct
1,new_learn,6,320,B,37.45478067578941,23.29384562516913,1.8727390337894705,0.3658988714494304,B,825,Incorrect
1,new_learn,6,321,B,40.87578725503356,19.81010297177887,2.043789362751678,0.31117636981498914,B,633,Correct
1,new_learn,6,322,A,23.237841192506092,41.461799954278945,1.1618920596253046,0.6512804307048617,A,766,Incorrect
1,new_learn,6,323,B,48.30931167713682,34.581801148199595,2.415465583856841,0.5432096621754345,B,1113,Correct
1,new_learn,6,324,B,52.610700156372395,22.81209823518286,2.63053500781862,0.35833160114309576,B,2674,Correct
1,new_learn,6,325,A,28.002768072831508,59.449458501762734,1.4001384036415754,0.9338299104451454,B,601,Correct
1,new_learn,6,326,B,74.96849843591698,48.34483576299731,3.7484249217958494,0.7593989043601872,A,650,Correct
1,new_learn,6,327,A,38.670888399314755,49.18978193606836,1.9335444199657377,0.7726712878101814,B,790,Correct
1,new_learn,6,328,B,52.12439896715862,36.548834016815185,2.6062199483579307,0.5741077422224966,B,1564,Correct
1,new_learn,6,329,B,65.51287646996293,56.80137498893363,3.2756438234981466,0.8922339118951645,107,1486,Incorrect
1,new_learn,6,330,A,29.572205271799213,47.51038448320446,1.4786102635899607,0.7462913743083083,B,824,Correct
1,new_learn,6,331,B,78.24843983488934,62.439777925333836,3.9124219917444667,0.9808017381100345,A,777,Correct
1,new_learn,6,332,A,14.013432224594219,40.20758216297279,0.700671611229711,0.6315792237090166,B,1018,Correct
1,new_learn,6,333,B,56.30461239853579,49.044956050556564,2.8152306199267896,0.770396368120314,B,1504,Incorrect
1,new_learn,6,334,B,86.34315919913088,65.75449054465649,4.3171579599565435,1.0328691221781616,A,806,Incorrect
1,new_learn,6,335,A,41.38962981842031,51.997015954588456,2.0694814909210155,0.816767216657632,B,1736,Incorrect
1,new_learn,6,336,A,38.54415421102649,47.5971192344716,1.9272077105513246,0.747653800595267,A,645,Correct
1,new_learn,6,337,B,46.268027647868564,35.23115872980606,2.3134013823934283,0.5534097472150731,B,685,Correct
1,new_learn,6,338,B,49.914210600080224,26.802670852583052,2.495710530004011,0.4210153692353009,B,652,Correct
1,new_learn,6,339,A,58.10562102692309,71.45006564503244,2.9052810513461544,1.1223350066447118,A,823,Incorrect
1,new_learn,6,340,A,41.607190432425504,53.786971586165315,2.080359521621275,0.8448837739696995,B,1994,Incorrect
1,new_learn,6,341,B,61.514341221160656,48.63233282783609,3.075717061058033,0.7639148976943179,B,683,Correct
1,new_learn,6,342,B,32.12384392568683,18.386651951494308,1.6061921962843413,0.2888168534746347,B,1746,Correct
1,new_learn,6,343,A,39.3564523028492,52.49293016023989,1.9678226151424598,0.8245570187840586,107,1516,Incorrect
1,new_learn,6,344,B,43.40229432407948,32.44162270595884,2.1701147162039742,0.5095918178178607,B,979,Incorrect
1,new_learn,6,345,A,56.9405158634607,66.44685890021387,2.847025793173035,1.0437448188751473,B,1354,Correct
1,new_learn,6,346,B,49.23300375536025,25.234439272082284,2.4616501877680124,0.39638164517315727,A,859,Incorrect
1,new_learn,6,347,A,30.209834353941346,55.470395286302576,1.5104917176970674,0.8713269316158503,A,665,Correct
1,new_learn,6,348,B,68.71521984982066,59.46227216656301,3.4357609924910326,0.9340311870211558,B,671,Incorrect
1,new_learn,6,349,A,56.94713001230767,81.74517626390379,2.847356500615383,1.2840502260854143,A,2414,Incorrect
1,new_learn,6,350,B,45.86173878443365,20.518678646150793,2.2930869392216824,0.32230665048058543,B,925,Correct
1,new_learn,6,351,A,69.10506897217812,89.12674409535528,3.455253448608906,1.3999996224417282,B,1075,Correct
1,new_learn,6,352,B,85.23845717440578,68.4804498622623,4.261922858720289,1.0756883910090371,B,892,Correct
1,new_learn,6,353,B,76.3400719819227,63.78777314883729,3.8170035990961355,1.0019759975661975,B,466,Correct
1,new_learn,6,354,A,62.813100822866346,78.67741991648965,3.140655041143317,1.235862022065216,B,387,Incorrect
1,new_learn,6,355,A,44.79593660839204,66.75855196211839,2.2397968304196016,1.048640882042418,A,728,Correct
1,new_learn,6,356,A,11.584681128737678,38.13556537445004,0.5792340564368839,0.5990320601043275,B,868,Incorrect
1,new_learn,6,357,B,55.0172543268957,31.660556629517735,2.7508627163447854,0.4973228605792827,B,520,Correct
1,new_learn,6,358,B,57.0534606862558,37.937161795377634,2.85267303431279,0.5959155439720286,B,492,Incorrect
1,new_learn,6,359,A,35.88787019727146,48.956730888814725,1.794393509863573,0.7690105305203642,B,1086,Incorrect
1,new_learn,6,360,B,66.73173509873348,44.50641280696136,3.3365867549366737,0.6991050975599223,B,1789,Correct
1,new_learn,6,361,A,66.99996542853026,85.8655671537744,3.3499982714265126,1.3487731748330936,100,1287,Incorrect
1,new_learn,6,362,A,28.708589251985746,51.43934935268058,1.4354294625992872,0.8080074101591009,A,881,Incorrect
1,new_learn,6,363,B,79.93025120959027,54.052550973150915,3.9965125604795135,0.8490554852251937,B,1438,Correct
1,new_learn,6,364,A,19.09686002173011,38.74583426903974,0.9548430010865054,0.6086181414841145,B,936,Correct
1,new_learn,6,365,A,50.7823422845634,75.72604012799766,2.53911711422817,1.1895018567578168,B,886,Correct
1,new_learn,6,366,B,53.18631764457664,27.723244401194393,2.659315882228832,0.43547570472233327,100,828,Incorrect
1,new_learn,6,367,B,53.09495207342556,33.662083361878366,2.6547476036712783,0.5287627689710215,A,617,Correct
1,new_learn,6,368,B,55.60922485314496,42.7016772443752,2.780461242657248,0.6707563776344577,107,1078,Incorrect
1,new_learn,6,369,A,61.91962050433841,84.43341678587717,3.0959810252169206,1.3262770094599838,B,921,Incorrect
1,new_learn,6,370,B,69.14681669178604,36.716660776466824,3.4573408345893024,0.5767439587984834,A,481,Correct
1,new_learn,6,371,A,39.0482359431476,54.19935417706351,1.9524117971573802,0.8513614645598699,B,950,Incorrect
1,new_learn,6,372,A,64.5440881860191,79.6487358746316,3.227204409300955,1.2511194174572822,A,2441,Correct
1,new_learn,6,373,B,71.12671263553558,47.06596216086414,3.556335631776779,0.7393104047935299,A,579,Correct
1,new_learn,6,374,B,54.94869104698218,43.76997821958946,2.747434552349109,0.6875372101122376,B,730,Correct
1,new_learn,6,375,A,64.76469020948912,81.03648439050875,3.238234510474456,1.2729181201698312,A,896,Correct
1,new_learn,6,376,A,37.892947871383676,58.045795021324786,1.8946473935691839,0.9117812160538646,A,1505,Incorrect
1,new_learn,6,377,A,35.65752931531368,58.800810913674695,1.7828764657656841,0.9236409779576148,B,1894,Incorrect
1,new_learn,6,378,B,70.85907379004801,55.273870278091145,3.5429536895024007,0.8682399240056318,B,1841,Incorrect
1,new_learn,6,379,A,34.736413093815315,48.248680437462355,1.7368206546907659,0.7578885000386665,B,868,Incorrect
1,new_learn,6,380,A,57.3781019805254,65.98632527153215,2.86890509902627,1.0365107735521597,A,488,Incorrect
1,new_learn,6,381,B,80.07297103452241,67.3752826895986,4.003648551726121,1.0583284656558927,A,962,Incorrect
1,new_learn,6,382,A,35.48662323928821,60.62997511984635,1.7743311619644104,0.9523734221192063,A,784,Correct
1,new_learn,6,383,A,52.68034275715067,82.49212363045861,2.634017137857534,1.2957832478823488,B,1020,Incorrect
1,new_learn,6,384,A,27.50533083619841,54.25210562061043,1.3752665418099206,0.8521900822974362,B,1335,Correct
1,new_learn,6,385,B,48.4235985127566,36.60116005193528,2.42117992563783,0.5749296776601204,A,700,Correct
1,new_learn,6,386,B,83.41311968390966,56.34309936657614,4.1706559841954824,0.8850353352525766,100,1509,Incorrect
1,new_learn,6,387,A,44.47498091033302,73.08119424515836,2.2237490455166506,1.1479567147807908,B,1111,Incorrect
1,new_learn,6,388,B,72.63459951035288,56.458546786107895,3.631729975517644,0.8868487790779609,A,755,Correct
1,new_learn,6,389,A,28.751188774182936,49.23176248586075,1.4375594387091468,0.7733307167442884,A,672,Incorrect
1,new_learn,6,390,A,35.359110240722444,53.29316249554312,1.7679555120361221,0.8371270389128267,B,498,Correct
1,new_learn,6,391,B,61.73167600930974,29.946126073467276,3.086583800465487,0.47039264837939276,B,865,Incorrect
1,new_learn,6,392,A,52.84677001783649,69.30874860979029,2.6423385008918245,1.0886992773100947,B,1178,Correct
1,new_learn,6,393,B,62.22968678349833,39.469547219670794,3.1114843391749165,0.619986197929166,B,1207,Correct
1,new_learn,6,394,B,89.6441860414627,66.09461098471697,4.4822093020731355,1.0382117215573103,A,1403,Correct
1,new_learn,6,395,A,50.744212608123966,65.90832606154206,2.5372106304061983,1.035285564826706,B,843,Incorrect
1,new_learn,6,396,B,57.97645318788108,43.63193717562929,2.898822659394054,0.6853688664642418,A,1021,Incorrect
1,new_learn,6,397,B,45.69088707932852,27.4941783554831,2.284544353966426,0.431877543690366,B,831,Correct
1,new_learn,6,398,A,56.684116748651974,72.91972831147334,2.8342058374325982,1.1454204138254414,B,973,Correct
1,new_learn,6,399,B,56.30855550599807,39.70686973505429,2.8154277752999035,0.6237140512834672,B,591,Correct
1,new_learn,6,400,A,64.35399274203371,89.50421077194216,3.2176996371016857,1.4059288551324294,A,963,Correct
1,new_learn,6,401,B,83.26099415610494,65.46262208931893,4.163049707805247,1.0282844632026462,B,925,Incorrect
1,new_learn,6,402,A,44.0803566266751,59.758140642327525,2.204017831333755,0.9386786781706089,B,733,Correct
1,new_learn,6,403,A,48.18179310328992,56.40851095248373,2.409089655164496,0.8860628180413114,B,974,Incorrect
1,new_learn,6,404,A,28.803671239128104,47.68232988519517,1.4401835619564052,0.748992286366871,B,1141,Correct
1,new_learn,6,405,B,76.25525989293365,58.936320821126984,3.812762994646682,0.9257695626063184,A,747,Incorrect
1,new_learn,6,406,B,41.710951402336036,27.362762993061132,2.085547570116802,0.42981327600459757,B,765,Correct
1,new_learn,6,407,B,75.62964459593871,53.75515136505364,3.7814822297969357,0.8443839431052993,B,707,Correct
1,new_learn,6,408,B,80.06492562484853,63.193942679027764,4.0032462812424265,0.9926481303590406,A,1077,Correct
1,new_learn,6,409,A,28.504725548933123,49.01311498754126,1.4252362774466563,0.7698962098720571,B,548,Correct
1,new_learn,6,410,B,66.48759394014033,58.24596452830565,3.324379697007016,0.9149254713168836,A,663,Correct
1,new_learn,6,411,B,51.93613069026445,24.154571611934948,2.5968065345132225,0.37941912363331703,B,795,Correct
1,new_learn,6,412,A,65.34067372427738,85.66200698228474,3.2670336862138694,1.3455756591365164,A,713,Incorrect
1,new_learn,6,413,A,51.47770483428756,65.32617859606988,2.5738852417143776,1.0261412138225396,B,1003,Correct
1,new_learn,6,414,A,15.525961986020459,39.5130053898601,0.776298099301023,0.6206688372701918,A,755,Correct
1,new_learn,6,415,A,16.590036600228807,38.69104565840496,0.8295018300114404,0.6077575240007614,A,633,Incorrect
1,new_learn,6,416,A,31.16368981150935,42.75296208850828,1.5581844905754676,0.6715619580823028,B,1288,Correct
1,new_learn,6,417,A,49.58414504011064,74.65120732796913,2.4792072520055317,1.1726184226157816,B,960,Incorrect
1,new_learn,6,418,B,61.19937895718558,36.15066509211082,3.059968947859279,0.5678533193788017,B,708,Incorrect
1,new_learn,6,419,B,83.43613741172874,59.73905215226958,4.171806870586437,0.9383788368699381,B,640,Correct
1,new_learn,6,420,A,38.85079206736518,54.91789003383195,1.942539603368259,0.8626481994046928,A,638,Incorrect
1,new_learn,6,421,B,71.92087814399284,41.81915857750212,3.5960439071996415,0.6568938068319363,B,550,Correct
1,new_learn,6,422,A,35.35818769721877,49.68972114923024,1.7679093848609384,0.7805243146067354,A,1043,Incorrect
1,new_learn,6,423,B,75.51716070114068,63.85593578487189,3.7758580350570345,1.0030466937492755,B,601,Correct
1,new_learn,6,424,A,37.132829594997425,59.71097723650497,1.8566414797498711,0.9379378371243567,B,626,Correct
1,new_learn,6,425,B,59.88717092062145,41.71342948056137,2.9943585460310724,0.6552330180608376,B,355,Incorrect
1,new_learn,6,426,B,40.1376267634399,18.720026569287956,2.0068813381719948,0.2940534897254039,B,954,Correct
1,new_learn,6,427,B,38.607131211889424,13.591890504950573,1.9303565605944712,0.2135009167937479,A,833,Incorrect
1,new_learn,6,428,B,72.05841604653729,53.93371182039146,3.602920802326864,0.8471887641788539,B,936,Correct
1,new_learn,6,429,B,55.01378168515493,37.523671855983956,2.750689084257747,0.5894204591923664,A,1274,Correct
1,new_learn,6,430,A,58.39632904109374,79.5888493885436,2.9198164520546874,1.2501787227335652,B,2016,Correct
1,new_learn,6,431,B,52.68531327485525,39.617170873619564,2.6342656637427626,0.6223050648628737,A,2302,Correct
1,new_learn,6,432,A,18.709407047824072,48.17051127428639,0.9354703523912036,0.7566606216948121,107,862,Incorrect
1,new_learn,6,433,A,60.61670646764598,80.79135243882199,3.0308353233822993,1.2690675964769347,B,791,Incorrect
1,new_learn,6,434,A,56.38682741567473,84.419729359516,2.8193413707837363,1.3260620078694703,A,1063,Correct
1,new_learn,6,435,B,46.7606774413827,24.20930555721805,2.338033872069135,0.3802788824353339,B,785,Incorrect
1,new_learn,6,436,B,54.38280205980258,38.80449600900494,2.7191401029901288,0.609539597940722,A,1257,Incorrect
1,new_learn,6,437,B,74.66119015211856,48.64401853340544,3.7330595076059283,0.7640984563281614,B,833,Correct
1,new_learn,6,438,B,59.34072436696772,28.005554259260464,2.967036218348386,0.439910217603015,B,716,Incorrect
1,new_learn,6,439,A,60.32752617396956,77.8387545897822,3.0163763086984776,1.2226882979191926,A,622,Incorrect
1,new_learn,6,440,A,54.56860354415921,62.21917127013862,2.7284301772079607,0.977336456873563,B,689,Correct
1,new_learn,6,441,A,33.84832151591593,51.18807067947071,1.6924160757957964,0.8040603339903013,B,1078,Incorrect
1,new_learn,6,442,A,27.838455296189935,44.13486725603681,1.3919227648094965,0.6932688736936298,A,679,Correct
1,new_learn,6,443,A,44.35967114820748,76.5844379219459,2.217983557410374,1.202985537774444,B,603,Incorrect
1,new_learn,6,444,A,49.51783405816189,71.35064006323569,2.4758917029080947,1.1207732332579543,A,466,Incorrect
1,new_learn,6,445,B,50.084807205823054,38.59585353148273,2.5042403602911527,0.606262249567669,B,798,Correct
1,new_learn,6,446,B,72.92195285542587,49.41887314125554,3.6460976427712932,0.7762698440462716,B,687,Correct
1,new_learn,6,447,A,59.2143463642061,79.70217661716964,2.960717318210305,1.2519588626780815,A,1186,Correct
1,new_learn,6,448,A,22.99416398572605,36.451783806081934,1.1497081992863025,0.572583281077152,B,1613,Incorrect
1,new_learn,6,449,B,37.797915015391894,23.3219694885815,1.8898957507695946,0.3663406400628648,B,1008,Correct
1,new_learn,6,450,B,52.109806758324225,20.79389669979975,2.605490337916211,0.3266297655579797,B,906,Correct
1,new_learn,6,451,A,38.407551874737564,63.704033711164186,1.9203775937368783,1.0006606215551497,A,1736,Correct
1,new_learn,6,452,A,49.5997932172933,72.63897574054847,2.479989660864665,1.1410103627539716,B,1176,Incorrect
1,new_learn,6,453,B,35.75079733415304,16.958994655722307,1.787539866707652,0.2663912651134288,A,1062,Incorrect
1,new_learn,6,454,B,62.35372173374704,36.71965605947679,3.1176860866873515,0.5767910085939811,B,942,Incorrect
1,new_learn,6,455,B,59.16733538066664,41.87583823442341,2.9583667690333324,0.6577841288008959,B,802,Incorrect
1,new_learn,6,456,A,56.75850562061191,82.40567406118467,2.8379252810305955,1.2944253012236635,B,1049,Correct
1,new_learn,6,457,A,11.619068957385597,31.746558587993402,0.5809534478692798,0.49867377618399017,A,1556,Incorrect
1,new_learn,6,458,B,49.2763592452562,39.52048739418292,2.46381796226281,0.6207863643192656,B,1356,Incorrect
1,new_learn,6,459,B,68.28223986717558,40.1615198637544,3.414111993358779,0.6308556788048568,B,1433,Incorrect
1,new_learn,6,460,A,14.63723233927806,34.85853973084893,0.731861616963903,0.5475566616665146,B,1024,Incorrect
1,new_learn,6,461,B,80.82920971295428,62.65603088569625,4.041460485647714,0.9841986316679925,B,706,Incorrect
1,new_learn,6,462,B,57.668496373203546,44.980170853272064,2.8834248186601776,0.7065468715492662,A,1067,Incorrect
1,new_learn,6,463,A,47.29891435362927,71.53893396101212,2.3649457176814637,1.1237309468878052,A,992,Incorrect
1,new_learn,6,464,A,47.16465935187733,64.53840166444192,2.3582329675938665,1.01376684271719,B,520,Incorrect
1,new_learn,6,465,A,44.96505603729059,66.44994547875368,2.2482528018645294,1.0437933027374744,B,732,Correct
1,new_learn,6,466,A,56.902696353925656,74.8850407217802,2.845134817696283,1.176291468976586,B,662,Incorrect
1,new_learn,6,467,A,58.75949133024045,78.67427714244924,2.9379745665120227,1.2358126554860296,A,821,Incorrect
1,new_learn,6,468,B,86.00689185306632,58.050885459747605,4.300344592653317,0.9118611764736282,B,840,Correct
1,new_learn,6,469,B,37.72228685815968,26.33879054638424,1.886114342907984,0.4137287544248051,B,1436,Incorrect
1,new_learn,6,470,B,38.57708603035836,27.643571795201787,1.928854301517918,0.4342242103539397,A,624,Correct
1,new_learn,6,471,A,49.27790726055751,68.24461968022186,2.4638953630278757,1.071983979172072,B,783,Incorrect
1,new_learn,6,472,B,60.86182718343271,46.2914638382291,3.043091359171635,0.7271446135904907,B,719,Incorrect
1,new_learn,6,473,B,76.12852974313003,45.97420755037803,3.8064264871565014,0.7221611634744002,A,671,Correct
1,new_learn,6,474,B,54.276281660359324,36.792168366276016,2.7138140830179664,0.5779300292456575,A,549,Incorrect
1,new_learn,6,475,B,45.07651202245481,27.26304000144932,2.2538256011227404,0.4282468309153893,B,524,Correct
1,new_learn,6,476,A,66.53950818252508,79.36954376009892,3.3269754091262542,1.2467338779775017,A,569,Correct
1,new_learn,6,477,A,23.957350226860438,34.86970413634073,1.197867511343022,0.5477320317378883,B,441,Correct
1,new_learn,6,478,A,41.504362665354904,59.59133142714587,2.0752181332677453,0.93605844514578,A,294,Correct
1,new_learn,6,479,B,73.43991085449741,57.99991026438595,3.6719955427248703,0.9110604599773109,B,310,Correct
1,new_learn,6,480,A,26.82144535646608,49.284162226795935,1.341072267823304,0.7741538099501486,A,277,Correct
1,new_learn,6,481,B,46.50282013782454,37.670937237208456,2.325141006891227,0.5917336983912813,B,284,Incorrect
1,new_learn,6,482,A,27.36003890312664,41.1329653420175,1.3680019451563319,0.6461151086942287,B,396,Incorrect
1,new_learn,6,483,B,58.73271267293232,47.46689352944853,2.9366356336466164,0.7456082200042219,A,309,Incorrect
1,new_learn,6,484,A,17.659943073979676,34.73088511024515,0.8829971536989838,0.5455514675750864,A,848,Incorrect
1,new_learn,6,485,A,36.16353107933266,60.87397527789322,1.8081765539666328,0.95620616763918,A,637,Incorrect
1,new_learn,6,486,B,73.78910816295499,58.01217614505177,3.6894554081477495,0.9112531319802585,A,867,Correct
1,new_learn,6,487,B,67.80948376423132,50.05335811194085,3.390474188211566,0.7862363106598623,B,719,Incorrect
1,new_learn,6,488,B,80.02495591197732,55.74900938811935,4.001247795598866,0.8757033916931208,A,981,Correct
1,new_learn,6,489,B,67.9217450709897,54.1815913052925,3.396087253549485,0.8510824460225574,A,422,Incorrect
1,new_learn,6,490,A,27.793853789379483,44.09536137634925,1.389692689468974,0.6926483167866296,B,980,Incorrect
1,new_learn,6,491,B,52.73941752713657,35.80206670979113,2.6369708763568283,0.5623775487940575,B,870,Correct
1,new_learn,6,492,B,55.059613943872186,28.79682160539268,2.752980697193609,0.45233941601118743,A,950,Correct
1,new_learn,6,493,B,36.96414863829851,18.764944002638448,1.8482074319149258,0.294759051118564,A,717,Correct
1,new_learn,6,494,A,62.49288618012594,79.25669164898561,3.1246443090062974,1.2449612011614233,A,1518,Correct
1,new_learn,6,495,B,73.06417123463218,53.175469301751754,3.653208561731609,0.8352783185478644,B,1460,Incorrect
1,new_learn,6,496,B,34.82846661134399,15.495224716149181,1.7414233305671996,0.24339842066988632,A,1436,Correct
1,new_learn,6,497,A,32.8347180171914,52.34423501981871,1.6417359008595698,0.8222213209802004,B,777,Incorrect
1,new_learn,6,498,A,50.86956315243817,79.73842218346638,2.5434781576219083,1.252528206702097,B,1428,Incorrect
1,new_learn,6,499,B,78.99685243232321,48.340886593514014,3.94984262161616,0.7593368709510047,107,1576,Incorrect
1,new_learn,6,500,B,87.39847581663768,63.67614524486183,4.369923790831884,1.0002225505508728,A,649,Incorrect
1,new_learn,6,501,A,51.692737435080474,79.80240482042139,2.5846368717540233,1.2535332436131728,A,1091,Incorrect
1,new_learn,6,502,B,63.772255624613464,33.317475693754695,3.1886127812306735,0.5233496843782812,B,1013,Incorrect
1,new_learn,6,503,B,71.73851044888085,57.728706363127756,3.586925522444042,0.9068003990582225,A,852,Correct
1,new_learn,6,504,B,67.48668269088977,52.11581470337551,3.3743341345444886,0.818633303039857,A,1375,Correct
1,new_learn,6,505,B,34.153264330266694,22.965142920459282,1.7076632165133347,0.3607356214377726,B,799,Incorrect
1,new_learn,6,506,A,24.454079411869145,50.82692360200607,1.2227039705934573,0.7983874489631597,A,1345,Incorrect
1,new_learn,6,507,A,22.67962694644593,39.07248315993778,1.1339813473222964,0.6137491302638572,B,772,Correct
1,new_learn,6,508,A,50.272768987565655,78.0831167453639,2.513638449378283,1.226526729683147,A,1023,Incorrect
1,new_learn,6,509,B,51.43656544671772,42.15653246512115,2.5718282723358863,0.6621932634662212,B,628,Correct
1,new_learn,6,510,A,47.395198399813616,79.16790381524015,2.3697599199906807,1.2435665251303092,A,800,Incorrect
1,new_learn,6,511,A,60.0136253694934,71.78033449443687,3.00068126847467,1.1275228575997045,B,816,Correct
1,new_learn,6,512,B,71.2911595161874,57.33409089050876,3.5645579758093704,0.900601793709359,B,504,Incorrect
1,new_learn,6,513,A,21.11397217877342,44.81363305503373,1.055698608938671,0.7039309019318135,A,1256,Incorrect
1,new_learn,6,514,A,21.998007748954645,33.357512927504885,1.0999003874477322,0.5239785877753795,A,611,Correct
1,new_learn,6,515,B,70.47465346457226,46.90065192254306,3.523732673228613,0.7367137176421666,B,1618,Correct
1,new_learn,6,516,B,80.71852382027292,64.05663998880419,4.035926191013647,1.006199348012367,B,876,Correct
1,new_learn,6,517,A,30.478239508437717,51.63670302729757,1.523911975421886,0.8111074344307794,A,1258,Correct
1,new_learn,6,518,A,54.96856923986893,82.76977358066424,2.7484284619934467,1.3001445631015265,B,423,Correct
1,new_learn,6,519,A,28.20266819155151,58.89954224152697,1.4101334095775755,0.9251918460289141,A,608,Incorrect
1,new_learn,6,520,B,65.14167391708307,54.97947144093412,3.257083695854153,0.8636155178854423,B,432,Correct
1,new_learn,6,521,B,36.23313539907067,12.431660280557736,1.8116567699535335,0.195276063046621,100,959,Incorrect
1,new_learn,6,522,B,55.376815133587655,46.4614417100375,2.768840756679383,0.7298146197572208,B,833,Correct
1,new_learn,6,523,B,69.73056071339218,37.32817451925477,3.486528035669609,0.5863495942080424,107,654,Incorrect
1,new_learn,6,524,B,63.77547339077949,50.30705331613682,3.1887736695389743,0.7902213456086274,B,548,Correct
1,new_learn,6,525,B,70.51163335698268,57.95066874395103,3.525581667849134,0.910286975983061,B,1191,Correct
1,new_learn,6,526,A,44.71541017407044,73.72042930014149,2.235770508703522,1.1579977955440512,A,644,Incorrect
1,new_learn,6,527,A,37.56976648265189,54.44716022734155,1.8784883241325945,0.8552539928952129,B,641,Correct
1,new_learn,6,528,A,19.98754876943908,38.651495072259785,0.999377438471954,0.6071362648463672,A,1224,Correct
1,new_learn,6,529,A,37.592084952409664,55.73076950943338,1.8796042476204833,0.8754168803487097,A,1395,Incorrect
1,new_learn,6,530,B,71.28552153182669,46.16571725586916,3.5642760765913346,0.7251693908937106,B,660,Correct
1,new_learn,6,531,B,84.53295525707318,65.22663432999096,4.226647762853659,1.024577576147437,B,713,Correct
1,new_learn,6,532,A,33.44876347101688,46.767982899696506,1.6724381735508442,0.734629757504498,A,653,Correct
1,new_learn,6,533,B,61.772292141645615,35.461391322321916,3.088614607082281,0.5570262323213969,107,851,Incorrect
1,new_learn,6,534,A,44.3441850142429,76.62454876456461,2.2172092507121453,1.2036155974169451,B,704,Correct
1,new_learn,6,535,B,52.13239678630176,25.324584352965566,2.6066198393150883,0.39779764079245816,B,1075,Correct
1,new_learn,6,536,A,60.04220612430342,69.79808070750545,3.002110306215171,1.0963856879268328,B,621,Incorrect
1,new_learn,6,537,B,48.30407039864696,35.5749332552818,2.415203519932348,0.5588097448337026,B,601,Incorrect
1,new_learn,6,538,B,80.7574412426339,54.555973371821,4.037872062131695,0.8569632257717661,B,840,Incorrect
1,new_learn,6,539,B,67.37989639756785,57.1792164997933,3.3689948198783926,0.8981690324688545,A,443,Incorrect
1,new_learn,6,540,A,64.25534624494838,76.62611276724554,3.2127673122474194,1.2036401647136084,A,836,Incorrect
1,new_learn,6,541,B,47.743940306812576,36.67574970737776,2.387197015340629,0.57610132922798,B,386,Incorrect
1,new_learn,6,542,A,21.635282646616133,51.57168242974713,1.0817641323308067,0.810086093272797,A,1150,Incorrect
1,new_learn,6,543,A,21.026704959411905,40.49111766340877,1.0513352479705953,0.6360329889350246,B,508,Correct
1,new_learn,6,544,A,42.296288466256605,67.14814939840986,2.1148144233128305,1.0547606642609715,B,548,Incorrect
1,new_learn,6,545,A,37.88409452716492,59.177914667321126,1.8942047263582458,0.9295645098680987,A,816,Incorrect
1,new_learn,6,546,B,62.2271796639908,35.716425034682864,3.1113589831995405,0.5610322925072513,B,513,Incorrect
1,new_learn,6,547,A,11.41087542231126,33.659842587633705,0.5705437711155631,0.5287275709714945,A,792,Correct
1,new_learn,6,548,B,60.28446653170223,46.438982639280816,3.0142233265851117,0.7294618334987428,107,734,Incorrect
1,new_learn,6,549,B,78.44873726517054,61.38527604217984,3.9224368632585267,0.9642376612634684,B,608,Incorrect
1,new_learn,6,550,A,60.64292224786265,81.60907237639769,3.032146112393132,1.2819123112198436,B,557,Incorrect
1,new_learn,6,551,B,38.9136674486505,27.742797084620566,1.945683372432525,0.4357828375553815,B,927,Incorrect
1,new_learn,6,552,B,55.273186288354,38.16446987431193,2.7636593144177,0.5994860909264368,A,511,Correct
1,new_learn,6,553,B,73.57483198004827,49.33541098928309,3.6787415990024135,0.7749588236288245,A,368,Incorrect
1,new_learn,6,554,B,87.11402745931858,67.94679689481842,4.355701372965928,1.0673057897985967,B,699,Incorrect
1,new_learn,6,555,B,30.105682183152606,12.003729027777776,1.5052841091576303,0.18855413464674606,A,747,Incorrect
1,new_learn,6,556,A,47.84995826575955,76.79569001575408,2.3924979132879773,1.2063038779042603,A,818,Incorrect
1,new_learn,6,557,A,59.97961686205798,77.2491942504758,2.998980843102899,1.2134275057651283,B,628,Incorrect
1,new_learn,6,558,B,69.38442098473038,50.67396888870631,3.469221049236519,0.7959848419449874,A,568,Incorrect
1,new_learn,6,559,B,72.3521303995879,42.211958464650465,3.6176065199793954,0.6630638930309168,B,316,Correct
1,new_learn,6,560,B,82.24219837863123,57.10487629551508,4.112109918931561,0.8970012992707207,B,667,Correct
1,new_learn,6,561,A,44.35883272361822,54.384290890440965,2.217941636180911,0.8542664436604982,A,843,Correct
1,new_learn,6,562,B,61.60056699605249,35.42024535467393,3.080028349802625,0.5563799129729581,B,470,Correct
1,new_learn,6,563,A,42.616395529006525,62.26190399550031,2.130819776450326,0.9780077009538838,A,657,Correct
1,new_learn,6,564,A,32.60496116334613,51.203385667737635,1.6302480581673067,0.8043009012634472,A,502,Incorrect
1,new_learn,6,565,A,57.702071882126944,75.9659497800359,2.8851035941063468,1.1932703487596599,B,1180,Correct
1,new_learn,6,566,B,60.13458710569853,32.34594672063777,3.0067293552849264,0.5080889429548124,B,469,Correct
1,new_learn,6,567,A,28.803266548776783,44.50856446959069,1.440163327438839,0.6991388957974689,A,510,Correct
1,new_learn,6,568,B,67.48373515637134,41.58593303190279,3.374186757818567,0.6532303085285146,B,756,Incorrect
1,new_learn,6,569,A,18.969513025713916,48.271720465571924,0.9484756512856959,0.7582504119539042,A,702,Incorrect
1,new_learn,6,570,A,35.05069473218017,63.96446603689937,1.7525347366090085,1.0047514829615842,B,1501,Incorrect
1,new_learn,6,571,B,49.35963465456699,18.591282198947013,2.4679817327283495,0.29203117788513316,B,741,Correct
1,new_learn,6,572,B,51.72451543239484,27.102376889901173,2.5862257716197417,0.42572314066067657,A,791,Incorrect
1,new_learn,6,573,B,69.09352286029959,39.05936271033001,3.454676143014979,0.6135430347233594,A,1814,Incorrect
1,new_learn,6,574,B,54.76296737169478,26.588334112229646,2.738148368584739,0.4176485755908577,B,2404,Correct
1,new_learn,6,575,A,29.165581050698464,57.03070365939233,1.458279052534923,0.8958361982270173,A,614,Incorrect
1,new_learn,6,576,A,43.699596691942695,57.1475515437926,2.1849798345971347,0.8976716405031144,B,640,Incorrect
1,new_learn,6,577,B,74.74889070033976,42.42630059606796,3.737444535016988,0.6664307713579968,B,390,Incorrect
1,new_learn,6,578,B,72.6067223064654,57.58945555548858,3.63033611532327,0.9046130524867941,B,1016,Correct
1,new_learn,6,579,A,44.88148505798817,57.117823743602656,2.244074252899409,0.8972046773096939,A,599,Incorrect
1,new_learn,6,580,A,41.74941768179144,63.77282026030364,2.087470884089572,1.0017411181423612,B,605,Correct
1,new_learn,6,581,B,80.78835948847313,51.0374742916402,4.039417974423657,0.8016947714619739,B,888,Incorrect
1,new_learn,6,582,B,85.96331411633395,67.5772274041419,4.2981657058166975,1.061500605814095,A,748,Correct
1,new_learn,6,583,A,62.639501151648716,80.20842970446193,3.1319750575824354,1.2599110675775547,B,1633,Correct
1,new_learn,6,584,B,53.988361646328755,32.57753960992067,2.6994180823164378,0.5117267955527864,107,1858,Incorrect
1,new_learn,6,585,B,38.400417669167524,14.960729527204148,1.9200208834583763,0.23500258987504227,A,767,Incorrect
1,new_learn,6,586,A,22.88080911670114,43.86384860723362,1.144040455835057,0.6890117227133001,B,1326,Incorrect
1,new_learn,6,587,A,33.40942079058092,52.29868843625496,1.6704710395290459,0.8215058769186002,B,601,Correct
1,new_learn,6,588,A,43.46855625220743,64.86164135618692,2.1734278126103717,1.0188442799218635,A,1196,Correct
1,new_learn,6,589,B,55.748007774368794,42.89372094192929,2.78740038871844,0.6737729929814785,B,1922,Correct
1,new_learn,6,590,A,32.528633344985174,51.55580708099477,1.6264316672492587,0.809836723877729,B,876,Correct
1,new_learn,6,591,A,28.564366955362722,52.54440057352105,1.428218347768136,0.8253655141452653,B,594,Incorrect
1,new_learn,6,592,A,35.38334114879557,52.75310248681966,1.7691670574397786,0.8286437961333104,B,886,Incorrect
1,new_learn,6,593,B,55.55749718839403,41.929679728844086,2.7778748594197014,0.6586298690175472,B,524,Correct
1,new_learn,6,594,A,58.758753764712026,75.85161439712176,2.937937688235601,1.1914743727646178,B,692,Correct
1,new_learn,6,595,B,73.22004619580423,48.24558435917011,3.6610023097902116,0.7578398669545773,B,912,Incorrect
1,new_learn,6,596,A,49.80622451259216,77.53191835287578,2.490311225629608,1.2178685255805908,A,968,Incorrect
1,new_learn,6,597,A,26.096150190589533,51.37571800314163,1.3048075095294767,0.8070078912578531,A,644,Incorrect
1,new_learn,6,598,B,81.58821110379793,62.09175182976929,4.079410555189896,0.9753349569846189,A,706,Correct
1,new_learn,6,599,A,55.00939509196878,70.2804359630699,2.750469754598439,1.1039625065633414,B,723,Correct
1,new_learn,6,600,B,28.360433376865508,50.704163319609236,1.4180216688432754,0.796459134956507,107,1215,Incorrect
1,new_learn,6,601,A,52.49293016023989,60.6435476971508,2.624646508011994,0.952586619664956,B,3106,Incorrect
1,new_learn,6,602,B,11.506893402793864,65.70456849428159,0.5753446701396931,1.032084948444612,A,1367,Incorrect
1,new_learn,6,603,B,24.433986275495553,46.119000034141465,1.2216993137747776,0.7244355584908312,A,1316,Incorrect
1,new_learn,6,604,A,60.45545690831806,66.19394501743113,3.022772845415903,1.0397720568944417,B,1340,Incorrect
1,new_learn,6,605,A,71.77242637440655,51.57610758078452,3.5886213187203277,0.8101556033827475,A,565,Correct
1,new_learn,6,606,B,38.627294571995705,50.28708018830276,1.9313647285997855,0.789907608450264,B,1192,Correct
1,new_learn,6,607,A,60.35947849556248,67.89795173409391,3.017973924778124,1.0665385318081189,A,501,Correct
1,new_learn,6,608,A,80.20842970446193,37.360498848351284,4.010421485223096,0.5868573435821516,B,771,Incorrect
1,new_learn,6,609,A,72.14098141165908,45.05168944941214,3.607049070582954,0.7076702830304097,A,460,Correct
1,new_learn,6,610,B,59.921836508482485,29.652679979815204,2.9960918254241244,0.4657832079191829,A,545,Incorrect
1,new_learn,6,611,B,10.544602025602629,68.52305490849079,0.5272301012801315,1.0763576295102233,A,1852,Incorrect
1,new_learn,6,612,A,65.3176777354637,63.135680786039885,3.265883886773185,0.9917329546840659,A,1165,Correct
1,new_learn,6,613,A,81.25796416997238,35.88325537611655,4.06289820849862,0.563652857382471,B,683,Incorrect
1,new_learn,6,614,A,39.65384599045291,71.5837330174062,1.9826922995226455,1.1244346488200823,A,1823,Correct
1,new_learn,6,615,A,87.71689918135704,37.53342205737856,4.385844959067851,0.5895736149977279,100,1544,Incorrect
1,new_learn,6,616,B,62.59435964502585,24.760611807273165,3.1297179822512926,0.3889387807605903,B,811,Correct
1,new_learn,6,617,B,27.68748028440666,39.292887540319484,1.3843740142203331,0.6172112341749879,B,1100,Correct
1,new_learn,6,618,B,50.514560507770284,36.22146083051573,2.5257280253885144,0.5689653762371933,B,874,Correct
1,new_learn,6,619,B,66.09461098471697,10.355813958537297,3.304730549235848,0.162668745270417,B,1496,Correct
1,new_learn,6,620,B,57.99991026438595,26.560089145502587,2.8999955132192974,0.4172049046910047,B,881,Correct
1,new_learn,6,621,B,37.51210793887043,54.20297890898297,1.8756053969435214,0.8514184017157169,A,613,Incorrect
1,new_learn,6,622,B,33.77318166630217,36.68375913905788,1.6886590833151087,0.5762271410866083,A,1114,Incorrect
1,new_learn,6,623,B,42.15653246512115,48.56343455328228,2.1078266232560576,0.7628326461284017,A,937,Incorrect
1,new_learn,6,624,A,47.4383427468827,78.19933279228655,2.371917137344135,1.228352247079354,A,715,Correct
1,new_learn,6,625,B,26.492798426534264,46.100506859399104,1.324639921326713,0.7241450683812705,B,1005,Correct
1,new_learn,6,626,A,72.63897574054847,50.4002067827067,3.6319487870274236,0.7916845968397891,A,2281,Correct
1,new_learn,6,627,B,32.57753960992067,46.011638353671245,1.6288769804960337,0.7227491251576197,B,1162,Correct
1,new_learn,6,628,A,56.67666509524242,71.40704114172337,2.833833254762121,1.1216591793271113,A,627,Correct
1,new_learn,6,629,B,56.34309936657614,16.586880316090344,2.8171549683288073,0.2605461067350129,B,940,Correct
1,new_learn,6,630,B,55.38425771120417,22.762848835173003,2.7692128855602083,0.3575579933767724,B,673,Correct
1,new_learn,6,631,B,31.669045987305594,47.590511978127964,1.5834522993652798,0.7475500140553193,107,751,Incorrect
1,new_learn,6,632,A,62.07605507342355,48.973510389651565,3.1038027536711774,0.769274102303164,A,1215,Correct
1,new_learn,6,633,A,67.16051129490255,60.82050505998883,3.3580255647451276,0.9553662594204089,A,688,Correct
1,new_learn,6,634,A,37.001001700465274,72.89068867787599,1.8500500850232637,1.1449642603275794,B,1464,Incorrect
1,new_learn,6,635,A,69.86476258352803,56.78009984687674,3.493238129176402,0.8918997227452145,A,596,Correct
1,new_learn,6,636,A,53.29316249554312,64.64088975927756,2.664658124777156,1.0153767219462704,A,571,Correct
1,new_learn,6,637,A,32.64311374766986,88.57593243599811,1.632155687383493,1.3913474931289878,B,1736,Incorrect
1,new_learn,6,638,B,28.79682160539268,44.940386056127814,1.4398410802696338,0.7059219334171016,B,640,Correct
1,new_learn,6,639,A,38.74583426903974,80.90313997826989,1.937291713451987,1.2708235510403971,A,747,Correct
1,new_learn,6,640,A,63.95098871673183,48.62513957277629,3.1975494358365917,0.7638019063080617,A,1126,Correct
1,new_learn,6,641,B,36.71965605947679,37.64627826625296,1.8359828029738394,0.591346356181287,B,640,Correct
1,new_learn,6,642,A,68.61568369753232,41.810984839830155,3.430784184876616,0.6567654140608232,B,1136,Incorrect
1,new_learn,6,643,B,38.636059413858085,34.136565644507456,1.931802970692904,0.5362159192378517,B,588,Correct
1,new_learn,6,644,A,64.9953784968593,52.73990237014645,3.2497689248429653,0.828436449185475,A,2247,Correct
1,new_learn,6,645,A,30.664869450682957,88.31083302120456,1.5332434725341477,1.3871833212590556,A,1460,Correct
1,new_learn,6,646,A,61.6237876204037,49.673768525113324,3.081189381020185,0.7802737313730795,A,920,Correct
1,new_learn,6,647,B,45.97420755037803,23.87147025686997,2.2987103775189017,0.37497217794684967,B,2041,Correct
1,new_learn,6,648,A,85.66200698228474,34.65932627572262,4.283100349114237,0.5444274240309094,A,2348,Correct
1,new_learn,6,649,A,71.53893396101212,52.70108564637073,3.5769466980506057,0.8278267175142238,A,530,Correct
1,new_learn,6,650,A,66.75855196211839,55.20406339160796,3.3379275981059195,0.8671433999969039,A,414,Correct
1,new_learn,6,651,A,49.632804225013096,57.90931949396013,2.481640211250655,0.9096374634830469,A,1017,Correct
1,new_learn,6,652,A,76.62454876456461,55.6558149857571,3.8312274382282308,0.8742394974440361,A,1452,Correct
1,new_learn,6,653,A,66.83703830128445,57.290662177508764,3.3418519150642227,0.8999196170807808,A,739,Correct
1,new_learn,6,654,B,60.02296098314758,23.15200774455127,3.0011480491573788,0.3636708872306813,B,653,Correct
1,new_learn,6,655,A,50.624590495780645,65.10914942420368,2.531229524789032,1.0227321275627919,A,785,Correct
1,new_learn,6,656,A,86.39173891122914,35.53543430100851,4.319586945561457,0.5581892967108554,A,1792,Correct
1,new_learn,6,657,A,79.67403820167058,47.95950526049106,3.983701910083529,0.7533461469807989,A,726,Correct
1,new_learn,6,658,A,86.5562720050714,33.70069970662854,4.32781360025357,0.5293693530958996,B,1093,Incorrect
1,new_learn,6,659,B,29.676904695574784,37.7651545745224,1.4838452347787392,0.5932136608650128,B,801,Correct
1,new_learn,6,660,B,25.865075825095275,63.902941611464804,1.293253791254764,1.0037850595467768,A,822,Incorrect
1,new_learn,6,661,A,59.73541086429891,49.265339302382685,2.9867705432149454,0.7738581401448696,A,1070,Correct
1,new_learn,6,662,B,30.661080526327567,53.44246053828675,1.5330540263163783,0.8394722070842203,A,1946,Incorrect
1,new_learn,6,663,B,46.495728992522785,33.52566698371237,2.3247864496261395,0.5266199455136433,B,714,Correct
1,new_learn,6,664,B,29.467947637763885,40.68161501380089,1.473397381888194,0.6390253143176255,B,1212,Correct
1,new_learn,6,665,B,32.34594672063777,39.86541289430147,1.6172973360318883,0.6262044414053065,B,762,Correct
1,new_learn,6,666,B,50.830972262920916,34.29893877690658,2.5415486131460456,0.538766470437279,107,1223,Incorrect
1,new_learn,6,667,A,64.0927932099974,62.39151849242733,3.20463966049987,0.980043680710607,A,556,Correct
1,new_learn,6,668,B,42.42630059606796,25.251109299660243,2.121315029803398,0.3966434973540276,B,462,Correct
1,new_learn,6,669,A,61.45805684663038,48.45047864445793,3.0729028423315192,0.761058338861691,A,730,Correct
1,new_learn,6,670,A,70.67474997123286,53.983663535275376,3.533737498561643,0.8479734038814216,A,636,Correct
1,new_learn,6,671,A,53.786971586165315,58.392809567574496,2.6893485793082657,0.917232107799799,A,795,Correct
1,new_learn,6,672,A,69.93901738703383,47.674019967041474,3.496950869351691,0.748861754477753,A,940,Correct
1,new_learn,6,673,A,51.997015954588456,58.61037018157969,2.599850797729423,0.9206495419331451,A,670,Correct
1,new_learn,6,674,B,27.742797084620566,61.0863325513495,1.3871398542310283,0.9595418678903133,107,709,Incorrect
1,new_learn,6,675,B,54.1815913052925,32.0782549290103,2.709079565264625,0.5038840501247966,B,698,Correct
1,new_learn,6,676,B,34.62496837523261,38.78354970212314,1.7312484187616306,0.6092105741216233,B,1220,Correct
1,new_learn,6,677,B,39.67348219063635,44.066433683953925,1.9836741095318176,0.6921939216570573,B,934,Correct
1,new_learn,6,678,A,71.25130132370717,39.280202321140564,3.5625650661853583,0.6170119752180798,A,833,Correct
1,new_learn,6,679,B,44.50641280696136,33.26826490126652,2.225320640348068,0.5225766830574903,B,1010,Correct
1,new_learn,6,680,B,49.33541098928309,26.425168019951727,2.4667705494641545,0.4150855686067814,B,845,Correct
1,new_learn,6,681,B,44.7619135457242,45.87737168934706,2.23809567728621,0.7206400693263054,B,1017,Correct
1,new_learn,6,682,B,52.11581470337551,32.513317309110235,2.6057907351687755,0.5107179940106729,B,877,Correct
1,new_learn,6,683,A,47.36820329449645,72.23616361855537,2.3684101647248226,1.1346830047378194,A,630,Correct
1,new_learn,6,684,A,34.42217097049547,83.23807386978197,1.7211085485247737,1.307500606841358,A,484,Correct
1,new_learn,6,685,B,53.93371182039146,27.94158395346271,2.696685591019573,0.43890537438930444,B,861,Correct
1,new_learn,6,686,A,46.80651181052606,67.01734950426274,2.340325590526303,1.052706064328257,A,1397,Correct
1,new_learn,6,687,B,47.654545223712425,45.527827162011775,2.382727261185621,0.7151494367304101,107,865,Incorrect
1,new_learn,6,688,A,64.54193006520919,48.90486530877891,3.227096503260459,0.7681958278942909,A,1407,Correct
1,new_learn,6,689,B,23.244524243645802,44.64116881799901,1.1622262121822902,0.7012218400314372,B,1587,Correct
1,new_learn,6,690,A,76.62611276724554,35.744653755051615,3.831305638362277,0.5614757082099048,A,784,Correct
1,new_learn,6,691,A,69.50309336386927,55.50213973132378,3.475154668193463,0.8718255721922048,A,416,Correct
1,new_learn,6,692,B,10.837680988969488,64.94538763427697,0.5418840494484745,1.0201597633819297,A,1005,Incorrect
1,new_learn,6,693,B,44.980170853272064,42.331503626796454,2.2490085426636033,0.6649417040467671,B,1796,Correct
1,new_learn,6,694,A,51.43934935268058,71.29141074801426,2.5719674676340287,1.11984286135007,A,957,Correct
1,new_learn,6,695,B,46.16571725586916,28.71447846817331,2.308285862793458,0.45104597303637783,107,597,Incorrect
1,new_learn,6,696,B,50.31371318632403,25.229217267906435,2.5156856593162016,0.3962996181233781,B,573,Correct
1,new_learn,6,697,B,54.22665598453929,20.54474557120338,2.7113327992269647,0.3227161087818199,B,587,Correct
1,new_learn,6,698,A,70.03594657216246,55.77102779683101,3.5017973286081228,0.8760492560483821,A,703,Correct
1,new_learn,6,699,B,40.17686197712732,42.53854153668877,2.008843098856366,0.6681938479304286,B,628,Correct
1,new_learn,6,700,A,40.49111766340877,78.9732950405881,2.0245558831704384,1.2405096176464543,A,597,Correct
1,new_learn,6,701,B,56.458546786107895,27.365400489647115,2.822927339305395,0.4298547057040895,B,577,Correct
1,new_learn,6,702,A,49.60075776670398,63.42597438382081,2.4800378883351986,0.9962928758549293,A,1421,Correct
1,new_learn,6,703,A,86.44499995637331,32.44641536493147,4.322249997818665,0.5096671007289585,A,1037,Correct
1,new_learn,6,704,B,57.06675718634186,29.4108929055583,2.8533378593170933,0.4619852254380906,A,1144,Incorrect
1,new_learn,6,705,A,57.24945193300046,53.060988445374434,2.8624725966500226,0.833480057461006,A,1112,Correct
1,new_learn,6,706,A,57.59438849184773,50.485386628213234,2.8797194245923867,0.7930225987241752,A,863,Correct
1,new_learn,6,707,B,35.9901769112801,31.25907120201765,1.7995088455640051,0.49101634223149454,B,1135,Correct
1,new_learn,6,708,A,51.78051637574844,68.20775673838033,2.5890258187874218,1.0714049374356769,A,1156,Correct
1,new_learn,6,709,A,42.03939606061576,72.71847986519533,2.101969803030788,1.1422592106235747,A,1065,Correct
1,new_learn,6,710,A,44.62411874916889,72.47962656006527,2.2312059374584448,1.1385073116801634,A,738,Correct
1,new_learn,6,711,B,16.28902907551067,63.32740501218124,0.8144514537755334,0.9947445517858701,B,833,Correct
1,new_learn,6,712,B,37.937161795377634,42.9465393137442,1.8968580897688816,0.6746026620258202,107,1049,Incorrect
1,new_learn,6,713,A,85.26075848839297,34.752544314434076,4.263037924419648,0.5458916895588992,A,656,Correct
1,new_learn,6,714,A,67.0033481687257,46.70629442480319,3.3501674084362842,0.7336607572068181,A,1045,Correct
1,new_learn,6,715,A,88.08269517417347,35.60298284675554,4.404134758708674,0.5592503467862531,A,603,Correct
1,new_learn,6,716,A,59.758140642327525,55.9196433733249,2.987907032116376,0.8783837040649934,A,813,Correct
1,new_learn,6,717,A,69.29634743691793,57.07226935415349,3.4648173718458963,0.8964891106335325,A,594,Correct
1,new_learn,6,718,B,43.84733920723266,34.658944201990664,2.192366960361633,0.5444214224307621,B,491,Correct
1,new_learn,6,719,B,49.374321403475136,38.52166501091696,2.4687160701737567,0.6050968990117186,B,653,Correct
1,new_learn,6,720,A,74.04544249074885,40.468377717991274,3.702272124537443,0.6356757907076914,B,717,Incorrect
1,new_learn,6,721,B,32.128411712045505,50.20883524563524,1.6064205856022753,0.7886785397649398,B,819,Correct
1,new_learn,6,722,B,44.03307065645093,26.575072434814984,2.201653532822547,0.4174402616491569,B,698,Correct
1,new_learn,6,723,B,33.18001263325578,53.37150158950109,1.659000631662789,0.838357586523163,B,1476,Correct
1,new_learn,6,724,B,37.808516081600175,41.32926256787792,1.8904258040800088,0.6491985383076445,B,653,Correct
1,new_learn,6,725,A,84.419729359516,43.61317258432527,4.2209864679758,0.6850741129533002,A,915,Correct
1,new_learn,6,726,A,40.03102134865855,78.32808749760038,2.0015510674329273,1.2303747212609994,A,614,Correct
1,new_learn,6,727,B,45.835409448136126,26.622302624148546,2.291770472406806,0.4181821517283467,B,748,Correct
1,new_learn,6,728,B,19.81010297177887,59.12421274496644,0.9905051485889436,0.928720962044333,B,1341,Correct
1,new_learn,6,729,B,53.8843099211028,23.76054834879315,2.69421549605514,0.37322982068916827,B,1045,Correct
1,new_learn,6,730,A,82.66145770080075,39.674089507016525,4.133072885040037,0.6231991406655351,B,592,Incorrect
1,new_learn,6,731,B,38.46059313263129,49.13518311004318,1.9230296566315643,0.7718136514565047,A,653,Incorrect
1,new_learn,6,732,B,62.17262810801413,21.752711519194463,3.1086314054007067,0.34169079352179693,B,745,Correct
1,new_learn,6,733,B,28.005554259260464,40.65927563303228,1.4002777129630233,0.6386744081450835,B,926,Correct
1,new_learn,6,734,B,23.79259610343257,50.373842704203206,1.1896298051716285,0.7912704708630629,B,820,Correct
1,new_learn,6,735,B,55.273870278091145,29.140926209951985,2.7636935139045575,0.45774459849993704,B,873,Correct
1,new_learn,6,736,B,43.08305087063017,27.89246416503707,2.154152543531508,0.4381338025569851,B,617,Correct
1,new_learn,6,737,A,80.79135243882199,39.38329353235402,4.039567621941099,0.6186313281770689,A,591,Correct
1,new_learn,6,738,A,76.79569001575408,52.15004173424045,3.8397845007877036,0.8191709399834546,A,487,Correct
1,new_learn,6,739,A,37.69806912490855,72.05725953966396,1.8849034562454277,1.1318727860381068,B,1150,Incorrect
1,new_learn,6,740,B,49.23333214452235,38.67146922154154,2.4616666072261175,0.6074500180495934,B,562,Correct
1,new_learn,6,741,A,68.24461968022186,50.72209273944249,3.4122309840110927,0.7967407696246636,A,1189,Correct
1,new_learn,6,742,B,36.53770358694305,43.40449590148543,1.8268851793471526,0.6817962272843746,B,1147,Correct
1,new_learn,6,743,B,30.564291385298546,38.98982823781359,1.5282145692649272,0.6124507897832152,B,585,Correct
1,new_learn,6,744,B,29.329862137248483,57.210825126077395,1.466493106862424,0.8986655396094754,A,1102,Incorrect
1,new_learn,6,745,A,63.96446603689937,64.94930526781982,3.198223301844968,1.020221301425718,A,869,Correct
1,new_learn,6,746,A,51.55580708099477,67.47136665501483,2.5777903540497387,1.0598377490552897,A,718,Correct
1,new_learn,6,747,B,46.90065192254306,29.525346535427744,2.345032596127153,0.4637830588519632,B,1714,Correct
1,new_learn,6,748,B,24.154571611934948,48.06386930973555,1.2077285805967475,0.7549854936328257,A,1209,Incorrect
1,new_learn,6,749,B,10.874947026536987,63.37038541963403,0.5437473513268494,0.9954196864473801,B,630,Correct
1,new_learn,6,750,B,40.50037015072566,47.44542851096887,2.0250185075362825,0.7452710482823975,A,1119,Incorrect
1,new_learn,6,751,A,81.03648439050875,35.23530979051088,4.051824219525438,0.5534749519241475,A,2000,Correct
1,new_learn,6,752,A,49.76022685085527,74.94577196693903,2.4880113425427637,1.1772454331447575,A,1508,Correct
1,new_learn,6,753,B,67.3752826895986,19.92702896547759,3.3687641344799304,0.31301303902907707,B,935,Correct
1,new_learn,6,754,A,49.284162226795935,73.17855464353391,2.4642081113397967,1.1494860483422267,A,714,Correct
1,new_learn,6,755,B,49.02026402024292,36.49378335224859,2.4510132010121457,0.5732430084056083,B,703,Correct
1,new_learn,6,756,A,40.20758216297279,85.98656777540577,2.0103791081486393,1.3506738481530782,A,767,Correct
1,new_learn,6,757,B,38.16446987431193,44.726813711646,1.9082234937155966,0.7025671468749315,B,1287,Correct
1,new_learn,6,758,A,46.998408306832395,61.85658444982016,2.3499204153416198,0.9716409564185584,A,935,Correct
1,new_learn,6,759,B,26.523294043742396,53.87243795584823,1.32616470218712,0.8462262765653235,A,671,Incorrect
1,new_learn,6,760,A,61.82836469222509,61.90228538803012,3.0914182346112544,0.9723588250772711,A,804,Correct
1,new_learn,6,761,A,71.45006564503244,41.89437897307691,3.5725032822516223,0.6580753660426256,B,882,Incorrect
1,new_learn,6,762,A,59.2493197436121,52.27959179964739,2.962465987180605,0.821205907652227,A,984,Correct
1,new_learn,6,763,A,77.66752933750608,39.40952487007393,3.8833764668753044,0.6190433690664425,A,745,Correct
1,new_learn,6,764,A,83.5008417599078,39.501129222055695,4.17504208799539,0.6204822868625564,A,661,Correct
1,new_learn,6,765,B,63.85593578487189,24.482839298859318,3.192796789243595,0.3845755404015796,B,944,Correct
1,new_learn,6,766,B,42.01674495030465,38.17107264132341,2.1008372475152326,0.5995898069481199,B,980,Correct
1,new_learn,6,767,A,49.01311498754126,71.49527445106688,2.450655749377063,1.1230451449092886,A,567,Correct
1,new_learn,6,768,A,72.65649169416729,40.90802011493447,3.6328245847083647,0.6425816773299082,A,794,Correct
1,new_learn,6,769,A,76.66830453094653,34.33052588052783,3.8334152265473267,0.5392626395007025,A,1314,Correct
1,new_learn,6,770,A,62.04376713104271,54.075658191991515,3.1021883565521358,0.8494184525699663,A,2340,Correct
1,new_learn,6,771,B,61.22998594138424,23.561995420668723,3.0614992970692123,0.370110958587446,B,758,Correct
1,new_learn,6,772,B,21.196816843211803,54.99681932039496,1.0598408421605903,0.8638880177387901,B,697,Correct
1,new_learn,6,773,A,42.14859171608474,78.3300337590533,2.107429585804237,1.2304052930644116,A,735,Correct
1,new_learn,6,774,B,24.264420800400792,54.651410743813585,1.2132210400200396,0.8584623525054152,B,874,Correct
1,new_learn,6,775,A,47.449510409642464,70.71539709709609,2.3724755204821233,1.1107948600796103,A,856,Correct
1,new_learn,6,776,A,89.44574315461657,33.66439736694571,4.472287157730829,0.528799117277621,B,842,Incorrect
1,new_learn,6,777,A,34.52932895522312,87.4271717757542,1.726466447761156,1.3733028028742114,A,1211,Correct
1,new_learn,6,778,A,51.228387652397544,71.50264848015908,2.561419382619877,1.1231609758874057,A,699,Correct
1,new_learn,6,779,B,48.24558435917011,26.77995380419577,2.4122792179585053,0.42065853067367737,B,603,Correct
1,new_learn,6,780,A,41.20855780312064,80.70789045519457,2.0604278901560322,1.2677565787038452,A,638,Correct
1,new_learn,6,781,B,53.94228115545752,29.198708351510092,2.6971140577728763,0.45865223825707513,B,1774,Correct
1,new_learn,6,782,B,25.234439272082284,50.76699624463975,1.2617219636041141,0.7974461122349044,B,1462,Correct
1,new_learn,6,783,B,62.201525566633165,16.443857856947574,3.1100762783316585,0.2582995152003065,B,762,Correct
1,new_learn,6,784,A,74.40419855002074,46.034342331289125,3.720209927501037,0.7231057584040778,100,953,Incorrect
1,new_learn,6,785,B,48.63233282783609,38.485658778839344,2.431616641391804,0.6045313144408261,B,582,Correct
1,new_learn,6,786,B,40.1615198637544,31.717760132824424,2.00807599318772,0.4982214111080221,B,796,Correct
1,new_learn,6,787,B,66.20360101723008,11.945486826055316,3.3101800508615042,0.1876392682814452,B,618,Correct
1,new_learn,6,788,A,79.98950288396432,42.86534069123694,3.999475144198216,0.6733271970460679,A,1195,Correct
1,new_learn,6,789,A,73.08119424515836,55.52501908966698,3.654059712257918,0.8721849603126541,A,858,Correct
1,new_learn,6,790,B,32.44162270595884,56.59770567592052,1.6220811352979423,0.8890346818075463,107,915,Incorrect
1,new_learn,6,791,B,27.254091076416316,42.05729624817073,1.362704553820816,0.6606344646155137,B,485,Correct
1,new_learn,6,792,B,58.24596452830565,33.51240605985967,2.9122982264152824,0.526411643408866,B,1473,Correct
1,new_learn,6,793,A,46.87631128248216,73.89668971367321,2.343815564124108,1.1607664876454011,A,2034,Correct
1,new_learn,6,794,B,43.75568917939734,39.39722404831218,2.187784458969867,0.6188501482100435,B,1810,Correct
1,new_learn,6,795,B,52.895908603040844,38.753283293489034,2.644795430152042,0.608735150486546,B,2126,Correct
1,new_learn,6,796,A,50.15942127351559,59.23698660789036,2.5079710636757797,0.9304924097407266,A,1446,Correct
1,new_learn,6,797,A,71.78033449443687,39.9863746305066,3.589016724721844,0.6281045039144442,B,1842,Incorrect
1,new_learn,6,798,A,64.53840166444192,52.83534064812267,3.226920083222096,0.8299355901502818,A,821,Correct
1,new_learn,6,799,A,65.03311827100683,62.03822861672179,3.2516559135503416,0.9744942163200863,A,2282,Correct
1,new_learn,6,800,B,27.4941783554831,54.30911292067148,1.374708917774155,0.8530855508728001,B,819,Correct
1,new_learn,6,801,A,53.00126442332917,78.65569961471446,2.6500632211664583,1.2355208403627624,A,793,Correct
1,new_learn,6,802,B,42.61226973000814,28.918260019651058,2.130613486500407,0.45424696616167587,B,1330,Correct
1,new_learn,6,803,B,35.16278732206628,35.75100353374543,1.7581393661033138,0.5615754503003869,B,826,Correct
1,new_learn,6,804,A,39.26973439849318,87.06495833347498,1.9634867199246588,1.3676131674277319,A,924,Correct
1,new_learn,6,805,B,56.218211270937076,28.33427009472696,2.810910563546854,0.44507367387211594,B,1317,Correct
1,new_learn,6,806,B,49.11361813202557,40.45450187234106,2.4556809066012786,0.635457829433906,B,2139,Correct
1,new_learn,6,807,B,62.16364914500657,15.140445374532419,3.1081824572503285,0.23782555980354306,107,1123,Incorrect
1,new_learn,6,808,A,43.86384860723362,77.11919088329886,2.193192430361681,1.2113854176488033,A,559,Correct
1,new_learn,6,809,B,13.59189050495057,61.392868788110576,0.6795945252475285,0.9643569278376515,B,845,Correct
1,new_learn,6,810,B,36.548834016815185,47.87560103284138,1.8274417008407593,0.752028182454852,B,732,Correct
1,new_learn,6,811,A,66.44994547875368,55.03494396270941,3.3224972739376835,0.8644868782198691,A,1765,Correct
1,new_learn,6,812,B,25.783448996842807,60.001236139035626,1.2891724498421404,0.9424972133035037,B,738,Correct
1,new_learn,6,813,A,45.77936249798015,67.21489117728906,2.2889681248990077,1.0558090416720438,A,771,Correct
1,new_learn,6,814,B,36.18485101283673,54.16007157443876,1.8092425506418366,0.850744414880771,B,633,Correct
1,new_learn,6,815,A,79.5888493885436,41.60367095890626,3.97944246942718,0.6535089352343345,B,782,Incorrect
1,new_learn,6,816,A,30.707504082218104,86.06904287024437,1.5353752041109052,1.3519693639133235,A,1002,Correct
1,new_learn,6,817,B,18.591282198947013,50.64036534543301,0.9295641099473506,0.7954569987215774,B,1433,Correct
1,new_learn,6,818,A,69.17822381886981,56.89802749216822,3.4589111909434904,0.8937521258657287,A,2355,Correct
1,new_learn,6,819,B,39.52048739418292,50.7236407547438,1.976024369709146,0.7967650857921549,B,664,Correct
1,new_learn,6,820,B,63.5663468940663,22.885013898169163,3.178317344703315,0.35947695769894283,B,815,Correct
1,new_learn,6,821,A,79.8821939281469,49.31926522155478,3.994109696407345,0.7747052065024153,A,1386,Correct
1,new_learn,6,822,B,28.797122384830914,61.749199026288686,1.4398561192415458,0.9699541501302126,A,786,Incorrect
1,new_learn,6,823,B,61.86824307811084,23.301042630245604,3.0934121539055415,0.3660119217408108,B,1012,Correct
1,new_learn,6,824,A,75.13522140306787,54.392997728520086,3.7567610701533938,0.854403210353225,A,1032,Correct
1,new_learn,6,825,B,50.07989581141393,28.453371530119085,2.5039947905706965,0.44694451484441544,B,1850,Correct
1,new_learn,6,826,A,49.18978193606836,61.329111600685245,2.4594890968034178,0.9633554322795067,A,723,Correct
1,new_learn,6,827,B,18.7822682557029,65.5656016152229,0.939113412785145,1.0299020618128967,B,795,Correct
1,new_learn,6,828,A,51.874026512601745,78.44866379194222,2.593701325630087,1.2322687292635064,A,768,Correct
1,new_learn,6,829,A,31.746558587993402,88.3809310426144,1.58732792939967,1.3882844184045178,A,1027,Correct
1,new_learn,6,830,A,48.248680437462355,65.26358690618468,2.4124340218731177,1.0251580258569442,A,1466,Correct
1,new_learn,6,831,A,60.62997511984635,64.5133767607118,3.031498755992317,1.013373752448613,A,1256,Correct
1,new_learn,6,832,A,41.1329653420175,72.63996109687336,2.056648267100875,1.1410258406949285,A,1089,Correct
1,new_learn,6,833,B,45.18687850987311,24.754450574552195,2.2593439254936554,0.388842000343324,B,534,Correct
1,new_learn,6,834,A,79.80240482042139,48.307262564919526,3.990120241021069,0.7588087059449221,A,2742,Correct
1,new_learn,6,835,B,48.340886593514014,21.00314756767679,2.4170443296757007,0.32991667050437873,B,785,Correct
1,new_learn,6,836,B,36.716660776466824,30.853183308213957,1.8358330388233413,0.48464067010472095,B,943,Correct
1,new_learn,6,837,B,59.46227216656301,31.284780150179344,2.9731136083281506,0.491420177444876,A,1100,Incorrect
1,new_learn,6,838,B,37.523671855983956,44.98621831484507,1.8761835927991979,0.7066418648535193,B,966,Correct
1,new_learn,6,839,B,26.33879054638424,62.27771314184032,1.316939527319212,0.9782560304438904,B,1267,Correct
1,new_learn,6,840,A,61.291555521042795,69.17915254721999,3.06457777605214,1.0866635871195698,A,871,Correct
1,new_learn,6,841,A,75.0203715127366,50.677697711234124,3.75101857563683,0.7960434141522869,A,1318,Correct
1,new_learn,6,842,A,42.60628910430107,85.36661154435467,2.1303144552150535,1.3409355984479914,A,704,Correct
1,new_learn,6,843,B,36.67574970737776,52.256059693187424,1.833787485368888,0.8208362661883367,B,1415,Correct
1,new_learn,6,844,A,62.414909574073505,60.052970746044856,3.120745478703675,0.9433098586100864,A,553,Correct
1,new_learn,6,845,A,76.21319913739526,49.06597582467456,3.8106599568697628,0.77072654596006,B,724,Incorrect
1,new_learn,6,846,B,19.05309569828631,55.46669591424537,0.9526547849143155,0.8712688220154612,B,775,Correct
1,new_learn,6,847,A,41.92595570635888,72.50174653081594,2.096297785317944,1.138854771368203,A,602,Correct
1,new_learn,6,848,B,52.738640068961615,28.573125117690935,2.6369320034480808,0.44882559979919917,B,532,Correct
1,new_learn,6,849,A,81.40560294116116,46.511321348417006,4.0702801470580585,0.7305981272847049,A,621,Correct
1,new_learn,6,850,B,35.28113443710951,37.284800324594144,1.7640567218554752,0.5856682739515364,B,936,Correct
1,new_learn,6,851,A,47.5971192344716,61.45584578897351,2.37985596172358,0.965346168253932,A,801,Correct
1,new_learn,6,852,A,37.5593568229793,82.86287503529304,1.8779678411489646,1.3016069973310287,A,1203,Correct
1,new_learn,6,853,B,66.77564072179425,14.218493524456392,3.3387820360897127,0.2233435740077312,B,1046,Correct
1,new_learn,6,854,A,82.40567406118467,43.24149437938809,4.120283703059233,0.6792358053626497,100,1128,Incorrect
1,new_learn,6,855,B,29.493518525077484,56.765972224078354,1.4746759262538742,0.8916778065652339,B,1174,Correct
1,new_learn,6,856,B,27.643571795201787,61.42291396964164,1.3821785897600893,0.9648288764455202,B,1956,Correct
1,new_learn,6,857,B,55.10696846367998,22.021378487704936,2.755348423183999,0.34591100439447064,A,984,Incorrect
1,new_learn,6,858,B,35.371184400254535,47.988784042335226,1.768559220012727,0.753806057010537,A,758,Incorrect
1,new_learn,6,859,A,65.0615490283303,52.72327548410119,3.2530774514165155,0.8281752746702155,A,671,Correct
1,new_learn,6,860,B,38.99155471565506,34.71247565828091,1.9495777357827533,0.545262292579849,B,957,Correct
1,new_learn,6,861,B,65.22663432999096,15.467044742926817,3.2613317164995475,0.24295577068561763,B,850,Correct
1,new_learn,6,862,B,40.39198066601089,43.60569726593607,2.0195990333005445,0.6849566909266265,B,912,Correct
1,new_learn,6,863,B,61.79587882942905,17.109726629870636,3.089793941471452,0.26875895742665623,A,923,Incorrect
1,new_learn,6,864,A,78.98804793090676,44.79894244847518,3.949402396545338,0.7037001424236078,A,1314,Correct
1,new_learn,6,865,B,50.720368066249065,38.37336737136591,2.5360184033124535,0.6027674451369271,B,1442,Correct
1,new_learn,6,866,A,51.203385667737635,67.39503883665387,2.5601692833868817,1.0586387944881528,A,699,Correct
1,new_learn,6,867,B,50.30705331613682,36.22452660922051,2.5153526658068412,0.5690135333764756,107,1336,Incorrect
1,new_learn,6,868,A,79.36954376009892,33.46049181747492,3.968477188004946,0.525596176396403,A,1078,Correct
1,new_learn,6,869,B,42.88293556329116,32.81895282577216,2.1441467781645582,0.515518905479779,B,749,Correct
1,new_learn,6,870,B,48.04959228253106,23.897656940893285,2.4024796141265528,0.3753835174175974,B,1307,Correct
1,new_learn,6,871,B,53.924108454980406,23.78503054908427,2.6962054227490206,0.3736143861920597,B,767,Correct
1,new_learn,6,872,A,60.98521666758603,59.319283898786274,3.0492608333793014,0.9317851325631712,A,1009,Correct
1,new_learn,6,873,A,69.79808070750545,39.95779387569658,3.4899040353752726,0.627655558467718,B,1511,Incorrect
1,new_learn,6,874,A,50.82692360200607,75.54592058813085,2.5413461801003034,1.186672545641749,A,1830,Correct
1,new_learn,6,875,B,38.04184839279776,32.12128968094372,1.902092419639888,0.5045600384274121,B,1211,Correct
1,new_learn,6,876,A,52.34423501981871,67.16528198280861,2.6172117509909354,1.0550297822673922,A,714,Correct
1,new_learn,6,877,A,58.219555688243126,63.29221933740716,2.910977784412156,0.9941918564989608,A,420,Correct
1,new_learn,6,878,B,12.431660280557736,63.76686460092933,0.6215830140278868,1.001647566863673,B,798,Correct
1,new_learn,6,879,A,70.59066767606778,58.617423682289306,3.529533383803389,0.9207603380632022,A,972,Correct
1,new_learn,6,880,B,67.5772274041419,14.036685883666053,3.378861370207095,0.2204877462643641,B,824,Correct
1,new_learn,6,881,A,31.644354466574082,89.19378160553896,1.5822177233287043,1.4010526451892682,A,697,Correct
1,new_learn,6,882,A,47.51038448320446,70.42779472820078,2.375519224160223,1.1062772126332276,A,614,Correct
1,new_learn,6,883,A,48.59354921578675,80.62545986323985,2.4296774607893377,1.2664617619932652,A,399,Correct
1,new_learn,6,884,B,27.696762804846905,62.21504439485087,1.3848381402423453,0.9772716320681316,107,366,Incorrect
1,new_learn,6,885,B,49.044956050556564,43.69538760146421,2.452247802527828,0.6863655434225925,B,571,Correct
1,new_learn,6,886,B,33.12494253974532,51.44271568838576,1.656247126987266,0.8080602884367055,B,553,Correct
1,new_learn,6,887,B,39.08711468641359,47.91028438726954,1.9543557343206797,0.7525729873122188,A,1128,Incorrect
1,new_learn,6,888,A,66.44685890021387,43.0594841365393,3.3223429450106936,0.6763767951535905,A,720,Correct
1,new_learn,6,889,A,58.89954224152697,71.79733180844849,2.944977112076349,1.1277898507838526,A,654,Correct
1,new_learn,6,890,B,23.29384562516913,62.54521932421059,1.1646922812584564,0.982458007730512,B,573,Correct
1,new_learn,6,891,A,67.64897731496548,45.821684520718634,3.3824488657482736,0.7197653373269941,A,1288,Correct
1,new_learn,6,892,A,62.26190399550031,57.383604470993475,3.1130951997750156,0.9013795512128776,A,550,Correct
1,new_learn,6,893,A,44.09536137634925,72.20614621062052,2.2047680688174625,1.1342114923965796,A,672,Correct
1,new_learn,6,894,B,42.358685381834135,43.165348758362235,2.1179342690917067,0.6780397127445604,B,504,Correct
1,new_learn,6,895,B,26.802670852583052,50.085789399919776,1.3401335426291527,0.7867457401401675,B,699,Correct
1,new_learn,6,896,A,78.0831167453639,49.727231012434345,3.9041558372681946,0.7811135181601314,A,578,Correct
1,new_learn,6,897,B,38.40304379547375,45.293523565854414,1.9201521897736875,0.711469004448422,B,636,Correct
1,new_learn,6,898,A,64.86164135618692,56.53144374779257,3.243082067809346,0.8879938418744489,A,745,Correct
