experiment,condition,subject,trial,cat,x,y,xt,yt,resp,rt,fb
1,relearn,29,0,A,22.384854660206734,51.50025519880197,1.1192427330103367,0.8089641169527791,B,1955,Incorrect
1,relearn,29,1,A,30.685805998467764,56.48661791743502,1.5342902999233883,0.8872897193777372,A,1165,Correct
1,relearn,29,2,A,57.30883479082466,66.96451395331587,2.8654417395412333,1.0518761254347417,B,1264,Incorrect
1,relearn,29,3,A,14.54922534645539,37.62347047735777,0.7274612673227695,0.5909880922710982,B,2342,Incorrect
1,relearn,29,4,A,38.69470804322459,48.524531146963845,1.9347354021612293,0.7622215528509536,A,791,Correct
1,relearn,29,5,A,40.206034172929094,61.27036930332532,2.0103017086464545,0.9624327104303019,A,848,Correct
1,relearn,29,6,B,59.022845173381505,51.58698568391029,2.9511422586690754,0.810326476227072,A,1159,Incorrect
1,relearn,29,7,B,75.55136767441388,46.44969513935127,3.777568383720694,0.7296301050563573,B,1326,Correct
1,relearn,29,8,A,28.381590214999132,41.59732513260775,1.4190795107499565,0.6534092552279328,A,880,Correct
1,relearn,29,9,A,35.816862775373394,53.48900409656549,1.7908431387686699,0.8402033115880224,A,2145,Correct
1,relearn,29,10,A,36.60275763281874,64.7195678821519,1.8301378816409368,1.0166125950103717,A,648,Correct
1,relearn,29,11,B,63.520143136119614,35.18629648516246,3.1760071568059804,0.5527050527240938,B,929,Correct
1,relearn,29,12,B,85.06704281123491,67.62978502872045,4.253352140561746,1.0623261790504257,B,723,Correct
1,relearn,29,13,B,56.76695297958112,29.543101729249372,2.838347648979056,0.4640619567843287,A,804,Incorrect
1,relearn,29,14,A,15.258841643032621,45.02011551439451,0.7629420821516311,0.7071743208189283,A,791,Correct
1,relearn,29,15,A,43.33124921748772,57.75700119136375,2.166562460874386,0.9072448531808263,A,1210,Correct
1,relearn,29,16,A,45.608602787024715,66.9785446597449,2.280430139351236,1.0520965192559522,B,1077,Incorrect
1,relearn,29,17,B,87.15664222696843,63.28791387970765,4.357832111348421,0.9941242265275654,B,663,Correct
1,relearn,29,18,B,56.67623398963664,29.594686333646607,2.8338116994818323,0.4648722458553921,B,766,Correct
1,relearn,29,19,A,20.429915922050686,40.26334835926545,1.0214957961025342,0.632455197071975,A,774,Correct
1,relearn,29,20,B,65.21806182670112,37.500934424233336,3.260903091335056,0.5890633004496201,B,634,Correct
1,relearn,29,21,A,25.149133359474796,37.229337829864974,1.2574566679737398,0.584797071121582,A,492,Correct
1,relearn,29,22,A,35.17669818599289,49.81340211665593,1.7588349092996447,0.7824670907000025,A,900,Correct
1,relearn,29,23,A,55.956353906260105,84.99080469043348,2.7978176953130056,1.3350324381907537,B,1725,Incorrect
1,relearn,29,24,A,30.74471275354282,49.2956645711901,1.537235637677141,0.7743344883533874,A,626,Correct
1,relearn,29,25,A,22.0069373253151,53.56104961315121,1.1003468662657552,0.8413349999161714,A,730,Correct
1,relearn,29,26,A,68.38209119130661,87.54649779914193,3.4191045595653304,1.3751771716664964,B,633,Incorrect
1,relearn,29,27,B,67.79054395446072,56.33070803380194,3.3895271977230355,0.8848406926525184,B,2042,Correct
1,relearn,29,28,B,85.37344057831822,69.80535616486719,4.268672028915911,1.0964999705438288,B,922,Correct
1,relearn,29,29,A,29.028161171072625,42.45150662119434,1.451408058553631,0.666826706674813,A,1322,Correct
1,relearn,29,30,B,74.87488735068165,63.39968667287815,3.7437443675340827,0.9958799494570434,B,1616,Correct
1,relearn,29,31,A,51.637435173019576,59.485054937726126,2.5818717586509785,0.9343890579537283,B,1333,Incorrect
1,relearn,29,32,B,37.14640509865488,25.992630764216536,1.857320254932744,0.4082912892816736,A,710,Incorrect
1,relearn,29,33,B,58.467552548472646,36.84152898527011,2.923377627423632,0.5787053840356999,B,2359,Correct
1,relearn,29,34,B,47.45080874916157,20.903230846693393,2.3725404374580785,0.32834718232131754,A,3318,Incorrect
1,relearn,29,35,A,31.201337409103893,43.71259125310295,1.5600668704551948,0.6866357777506084,A,825,Correct
1,relearn,29,36,A,49.64765829153938,60.9036819692784,2.482382914576969,0.9566727992562709,B,1165,Incorrect
1,relearn,29,37,A,39.459441906776085,63.47438095823261,1.9729720953388041,0.997053244547717,A,2344,Correct
1,relearn,29,38,A,33.601014164894465,52.13166662988254,1.6800507082447234,0.8188823045191558,A,849,Correct
1,relearn,29,39,B,52.68855045605244,39.882134590648036,2.634427522802622,0.6264671051972962,B,997,Correct
1,relearn,29,40,A,61.78004332816681,76.29864168232989,3.0890021664083407,1.198496260940438,B,1241,Incorrect
1,relearn,29,41,A,41.77112567283862,49.11931027605627,2.088556283641931,0.77156432156328,B,2507,Incorrect
1,relearn,29,42,A,18.485153809319954,37.47083268220663,0.9242576904659977,0.5885904633915633,A,783,Correct
1,relearn,29,43,B,55.406941281493665,39.32142963737209,2.770347064074683,0.6176595723870807,B,795,Correct
1,relearn,29,44,B,81.09565362913342,51.452403636404355,4.054782681456671,0.8082124663683233,B,645,Correct
1,relearn,29,45,B,62.69815065515828,35.39477690563337,3.134907532757914,0.5559798555109374,B,633,Correct
1,relearn,29,46,A,13.805091142992318,34.11661135715731,0.6902545571496159,0.5359024780251176,A,722,Correct
1,relearn,29,47,B,46.96126477500209,28.504843060009083,2.348063238750105,0.44775302774527265,B,1254,Correct
1,relearn,29,48,A,26.141504004989553,40.62261909890067,1.3070752002494777,0.6380986086534138,A,783,Correct
1,relearn,29,49,B,55.56097993696663,31.040187972090855,2.778048996848332,0.4875781324958344,B,708,Correct
1,relearn,29,50,B,82.18901279197543,54.227505196715,4.109450639598771,0.8518036597425109,B,647,Correct
1,relearn,29,51,A,54.111022732252266,74.63291792751707,2.705551136612613,1.172331133385288,B,800,Incorrect
1,relearn,29,52,B,48.56201556193524,26.825940123327833,2.4281007780967623,0.4213808820854319,B,673,Correct
1,relearn,29,53,B,61.53393464741853,52.38645449523651,3.0766967323709262,0.822884502949255,B,719,Correct
1,relearn,29,54,B,60.83464648999038,38.690364056205574,3.041732324499519,0.6077468174184502,B,654,Correct
1,relearn,29,55,B,69.97927867942319,54.96560777127555,3.49896393397116,0.8633977478716865,B,628,Correct
1,relearn,29,56,A,28.515432532931396,58.07409692731441,1.4257716266465699,0.9122257813535626,A,886,Correct
1,relearn,29,57,A,62.17482136949266,82.666667579422,3.108741068474633,1.2985249778213084,B,775,Incorrect
1,relearn,29,58,B,52.54641071257226,41.576126638370404,2.627320535628613,0.6530762700591167,B,725,Correct
1,relearn,29,59,B,68.5474115745181,43.76364133623084,3.427370578725905,0.687437670581207,B,847,Correct
1,relearn,29,60,A,19.506896251327817,45.405001333688574,0.9753448125663908,0.713220093130754,A,801,Correct
1,relearn,29,61,B,75.64695126981748,44.25078928247015,3.7823475634908736,0.695089772626791,B,619,Correct
1,relearn,29,62,A,27.17067883849302,38.860477800784494,1.3585339419246512,0.610418957869669,A,714,Correct
1,relearn,29,63,B,43.336986871363706,24.67161428700991,2.1668493435681855,0.3875408109813566,B,688,Correct
1,relearn,29,64,A,45.735205436817125,55.27438393707381,2.286760271840856,0.8682479925420636,B,1122,Incorrect
1,relearn,29,65,B,71.81950877819459,40.184329752203936,3.5909754389097293,0.6312139756947682,B,888,Correct
1,relearn,29,66,B,85.98121706385537,63.465591855794756,4.299060853192768,0.9969151856494651,A,1339,Incorrect
1,relearn,29,67,A,49.77486472904722,67.89762271083225,2.488743236452361,1.0665333635228105,A,1326,Correct
1,relearn,29,68,B,66.0567662557796,54.65412976244946,3.3028383127889804,0.8585050627502724,B,990,Correct
1,relearn,29,69,B,76.32099713031435,53.041937294886836,3.816049856515718,0.8331808026889347,B,669,Correct
1,relearn,29,70,B,52.18367628601362,31.288528173587906,2.609183814300681,0.4914790512589052,B,897,Correct
1,relearn,29,71,A,53.695714128212195,63.79447024322849,2.6847857064106098,1.0020811952788966,A,1093,Correct
1,relearn,29,72,B,67.12044078280448,37.05627016180028,3.3560220391402242,0.5820785305487521,B,657,Correct
1,relearn,29,73,B,35.456245479555356,23.351627104422477,1.7728122739777676,0.3668065008031097,A,1987,Incorrect
1,relearn,29,74,A,47.98064011095064,58.39049312280784,2.399032005547532,0.9171957211704923,A,2083,Correct
1,relearn,29,75,A,52.583433026398865,63.099310369381826,2.6291716513199437,0.9911616495151611,B,770,Incorrect
1,relearn,29,76,A,14.451358480570395,34.9990072456158,0.7225679240285197,0.5497631202288127,A,689,Correct
1,relearn,29,77,A,65.07844476159809,85.58412221293723,3.253922238079905,1.3443522480404733,A,1056,Correct
1,relearn,29,78,B,57.114085627333594,27.247567878967153,2.8557042813666795,0.42800379538376215,B,776,Correct
1,relearn,29,79,A,33.247744683693604,55.04362008232337,1.6623872341846804,0.8646231623880735,A,738,Correct
1,relearn,29,80,A,52.544657586224794,80.95953332765546,2.62723287931124,1.271709375701102,A,635,Correct
1,relearn,29,81,B,69.4405576478595,55.9845569719396,3.4720278823929753,0.8794033644876234,B,1389,Correct
1,relearn,29,82,B,58.618516337045506,38.48650623391158,2.930925816852275,0.604544626233972,B,1327,Correct
1,relearn,29,83,B,41.31461950441029,24.01481888531223,2.0657309752205144,0.37722389293693165,B,733,Correct
1,relearn,29,84,A,44.78451056659399,59.03133644322824,2.2392255283296993,0.9272620645081662,B,1086,Incorrect
1,relearn,29,85,A,17.126993202527075,39.534434011858494,0.8563496601263537,0.6210054372774254,A,822,Correct
1,relearn,29,86,B,35.693485274641034,18.937735253993896,1.7846742637320516,0.2974732497478783,B,861,Correct
1,relearn,29,87,B,60.86235266290794,38.270150850993126,3.043117633145397,0.6011461238262659,B,734,Correct
1,relearn,29,88,B,59.725785674552284,43.1296091939379,2.9862892837276145,0.6774783169793706,B,942,Correct
1,relearn,29,89,B,73.82263601598939,59.73195397012617,3.6911318007994693,0.9382673388855604,B,1388,Correct
1,relearn,29,90,B,70.72685408217835,50.74605008915937,3.5363427041089177,0.7971170907940136,A,1040,Incorrect
1,relearn,29,91,A,34.361190645289376,54.30233711069386,1.718059532264469,0.8529791166985612,A,1311,Correct
1,relearn,29,92,A,37.59819133156841,54.79848795120072,1.8799095665784205,0.8607726358766047,A,717,Correct
1,relearn,29,93,B,75.61193498760738,61.35002018390131,3.780596749380369,0.9636838635366494,A,688,Incorrect
1,relearn,29,94,A,25.50890406073682,58.27216226717345,1.275445203036841,0.9153369844367224,A,820,Correct
1,relearn,29,95,A,29.354159487817213,57.93687758626249,1.4677079743908608,0.9100703449846669,A,660,Correct
1,relearn,29,96,B,45.44421669363607,34.30069590458215,2.2722108346818035,0.5387940713342638,B,667,Correct
1,relearn,29,97,A,43.77412741671035,63.57577511440562,2.1887063708355172,0.9986459402284675,B,1126,Incorrect
1,relearn,29,98,A,69.03736210101509,85.12660155277715,3.451868105050755,1.3371655303163508,A,879,Correct
1,relearn,29,99,B,56.817080957197014,48.580978737967115,2.840854047859851,0.7631082295369971,B,1552,Correct
1,relearn,29,100,A,56.24195372946933,81.82020523112782,2.8120976864734666,1.2852287783466017,A,877,Correct
1,relearn,29,101,A,29.75206983823763,51.591553049685174,1.4876034919118815,0.8103982202408951,A,1081,Correct
1,relearn,29,102,A,36.90797155616517,60.43802429235296,1.8453985778082584,0.9493582655716877,A,645,Correct
1,relearn,29,103,A,59.82841195591568,85.42410040694557,2.991420597795784,1.3418386313898851,A,1439,Correct
1,relearn,29,104,A,43.73171822057722,57.75019499863201,2.1865859110288612,0.9071379417554017,B,674,Incorrect
1,relearn,29,105,B,81.54545964606274,65.20989369007009,4.077272982303137,1.024314614790478,B,702,Correct
1,relearn,29,106,A,25.44420072461319,46.693448476875574,1.2722100362306594,0.733458973528629,A,615,Correct
1,relearn,29,107,B,60.16432275476024,37.114563817649625,3.008216137738012,0.582994205153588,B,804,Correct
1,relearn,29,108,A,35.43647851859328,53.281865566652584,1.771823925929664,0.8369495871687735,A,754,Correct
1,relearn,29,109,B,47.03092772481053,32.794807306839644,2.3515463862405266,0.5151396285553015,B,819,Correct
1,relearn,29,110,B,73.18219490181338,55.44117520545079,3.6591097450906687,0.870867943659144,B,692,Correct
1,relearn,29,111,B,57.84992492866368,44.904810241064254,2.892496246433184,0.7053631098208559,B,587,Correct
1,relearn,29,112,A,23.40102623955961,53.29867374763021,1.1700513119779805,0.8372136094581711,A,507,Correct
1,relearn,29,113,B,74.02743132430578,49.62617244935765,3.701371566215289,0.7795260939634109,B,509,Correct
1,relearn,29,114,B,67.70619199911943,41.98319711684981,3.3853095999559715,0.6594705181825377,B,479,Correct
1,relearn,29,115,B,57.248216544988516,34.11289366133098,2.862410827249426,0.5358440805956362,B,565,Correct
1,relearn,29,116,B,77.28659171728532,62.342672287477185,3.864329585864266,0.9792764063174715,B,546,Correct
1,relearn,29,117,A,64.61422787265597,82.73523047636488,3.2307113936327987,1.2996019612880312,A,837,Correct
1,relearn,29,118,B,83.9170173785047,69.24262457083266,4.195850868925235,1.0876606033350198,A,830,Incorrect
1,relearn,29,119,B,53.73597293328047,34.56002218330701,2.6867986466640237,0.5428675589948879,B,824,Correct
1,relearn,29,120,A,25.225547718410624,56.829996769613736,1.2612773859205313,0.892683501774751,A,703,Correct
1,relearn,29,121,A,62.98668902346668,76.39555692384091,3.149334451173334,1.2000186019941974,B,714,Incorrect
1,relearn,29,122,A,56.69275747754565,82.47973269695724,2.8346378738772824,1.2955886115540536,A,1284,Correct
1,relearn,29,123,A,14.685007333615854,43.738401221519894,0.7342503666807927,0.6870411997864487,A,669,Correct
1,relearn,29,124,B,52.13685829088734,21.86858206990235,2.606842914544367,0.3435108838761534,B,1106,Correct
1,relearn,29,125,A,57.744596042757735,81.92088877898769,2.887229802137887,1.2868103118180712,A,781,Correct
1,relearn,29,126,A,44.528969940153075,73.56873603812237,2.2264484970076537,1.1556150033562596,A,754,Correct
1,relearn,29,127,A,47.06581546928049,76.57264308189805,2.3532907734640243,1.202800264860221,A,760,Correct
1,relearn,29,128,A,57.99842995192854,70.04539158511189,2.899921497596427,1.100270438108039,A,807,Correct
1,relearn,29,129,A,33.667456482096554,58.69384371680662,1.6833728241048278,0.9219607411583356,A,747,Correct
1,relearn,29,130,B,67.45854961670452,38.3028908565127,3.372927480835226,0.6016604026303598,B,1150,Correct
1,relearn,29,131,A,35.704474359427465,63.29139882036274,1.7852237179713735,0.9941789678473665,A,642,Correct
1,relearn,29,132,A,55.8743232229493,77.41829804505807,2.7937161611474655,1.2160837819588972,A,762,Correct
1,relearn,29,133,B,60.90482759971913,32.263436101423295,3.0452413799859563,0.5067928691789757,A,3020,Incorrect
1,relearn,29,134,B,45.87288528055967,29.271480842038628,2.2936442640279835,0.45979534586521453,B,702,Correct
1,relearn,29,135,A,44.95564689921252,61.15708944721512,2.247782344960626,0.9606533146115245,A,946,Correct
1,relearn,29,136,A,29.216696379601625,40.713772256440016,1.4608348189800813,0.6395304391037995,A,586,Correct
1,relearn,29,137,A,32.29447049454124,64.00533866360587,1.6147235247270617,1.0053935086805548,A,587,Correct
1,relearn,29,138,A,23.454460114304755,45.54583330402538,1.1727230057152378,0.7154322765477573,A,414,Correct
1,relearn,29,139,A,18.983687828222585,39.12470803336458,0.9491843914111293,0.6145694766573185,A,403,Correct
1,relearn,29,140,B,47.4238670264836,28.324080541912586,2.37119335132418,0.4449136167507909,B,845,Correct
1,relearn,29,141,B,56.61426882394438,37.47659066271848,2.830713441197219,0.5886809095379412,B,662,Correct
1,relearn,29,142,B,58.37408652693372,50.01758092134807,2.9187043263466865,0.7856743238642004,B,537,Correct
1,relearn,29,143,A,30.541000285682628,56.823614550394225,1.5270500142841315,0.8925832501096829,A,617,Correct
1,relearn,29,144,A,61.47925834515617,77.58317137334433,3.0739629172578082,1.2186736061434824,A,715,Correct
1,relearn,29,145,B,39.515996405214054,23.034843698518596,1.9757998202607028,0.36183047869927576,B,515,Correct
1,relearn,29,146,A,53.12949267442954,74.46918354090978,2.6564746337214773,1.1697591996547605,A,725,Correct
1,relearn,29,147,B,59.88940167111505,27.6008069091216,2.9944700835557523,0.4335524610942342,B,582,Correct
1,relearn,29,148,A,54.845510987869,79.19833605801303,2.74227554939345,1.2440445536819467,A,715,Correct
1,relearn,29,149,B,78.04950261491882,48.65057433040338,3.902475130745941,0.7642014345465972,B,712,Correct
1,relearn,29,150,B,60.424610758450775,40.1865183575024,3.0212305379225386,0.6312483542264045,B,626,Correct
1,relearn,29,151,A,28.96461616446315,48.12047608491403,1.4482308082231574,0.7558746707780464,A,2040,Correct
1,relearn,29,152,A,13.481010781260945,31.949672349272934,0.6740505390630473,0.5018642796853839,A,551,Correct
1,relearn,29,153,B,78.06838774658172,57.150170590866516,3.903419387329086,0.8977127803983485,B,631,Correct
1,relearn,29,154,B,84.17594693578845,67.05878409413957,4.208797346789422,1.0533569173440647,B,554,Correct
1,relearn,29,155,B,61.25647004577788,29.781323011786004,3.0628235022888943,0.4678039279400578,B,717,Correct
1,relearn,29,156,A,30.711554146677145,61.37999457598274,1.5355777073338572,0.9641547001864437,B,779,Incorrect
1,relearn,29,157,B,82.1819139892479,57.57052730788398,4.1090956994623955,0.9043157282686943,B,617,Correct
1,relearn,29,158,B,49.14346986564645,25.848391318394405,2.4571734932823226,0.4060255813649103,A,1357,Incorrect
1,relearn,29,159,B,36.15813998823345,16.63599653486844,1.8079069994116725,0.26131762249543977,A,1163,Incorrect
1,relearn,29,160,B,85.95803453772788,63.93901506472282,4.297901726886394,1.0043517000255016,B,1415,Correct
1,relearn,29,161,A,52.16747989564955,62.74530912396577,2.608373994782477,0.9856010109553576,B,1089,Incorrect
1,relearn,29,162,A,37.9755654669359,63.505506762949125,1.898778273346795,0.9975421675448894,A,1133,Correct
1,relearn,29,163,B,73.04063805776107,60.21326106118164,3.6520319028880532,0.945827692992463,B,895,Correct
1,relearn,29,164,A,36.632554908953395,66.04130328966187,1.83162774544767,1.0373743662414858,A,534,Correct
1,relearn,29,165,A,35.8357710343635,50.43466641419549,1.7917885517181753,0.7922258874654421,A,656,Correct
1,relearn,29,166,B,38.44065278057913,15.174551634976321,1.9220326390289564,0.238361299689803,A,838,Incorrect
1,relearn,29,167,A,36.865112448407274,68.03800738064098,1.8432556224203638,1.068738520759549,A,854,Correct
1,relearn,29,168,A,24.845052728942395,38.61552309976754,1.2422526364471198,0.6065712184237833,B,474,Incorrect
1,relearn,29,169,B,66.65059670050793,48.79742021175606,3.332529835025397,0.7665080842569346,B,864,Correct
1,relearn,29,170,B,62.93304989656024,36.805023048976686,3.146652494828012,0.5781319501293408,B,623,Correct
1,relearn,29,171,B,42.39759290989072,20.581839792410342,2.1198796454945357,0.323298783445992,B,1624,Correct
1,relearn,29,172,A,48.47026253995482,56.09920727709022,2.423513126997741,0.8812042872695887,A,2014,Correct
1,relearn,29,173,A,22.837689158336918,39.615068406658,1.141884457916846,0.6222720393890693,A,709,Correct
1,relearn,29,174,B,34.23221323517804,17.86979248426012,1.711610661758902,0.2806980439486285,A,459,Incorrect
1,relearn,29,175,A,30.420912977830415,56.61400418248938,1.5210456488915207,0.8892906981500521,A,1298,Correct
1,relearn,29,176,A,18.247335194536735,36.590798936155196,0.9123667597268367,0.5747669256340319,A,692,Correct
1,relearn,29,177,B,80.06028990103643,55.50276613426587,4.003014495051821,0.87183541170661,B,1206,Correct
1,relearn,29,178,B,45.6715435500987,36.452019487689505,2.283577177504935,0.5725869831551866,B,1684,Correct
1,relearn,29,179,A,26.71228189192098,41.785728647038646,1.335614094596049,0.6563686907121659,A,825,Correct
1,relearn,29,180,B,38.581207454027684,20.42276209456405,1.9290603727013842,0.32079999681147253,B,904,Correct
1,relearn,29,181,A,51.66803860165444,62.25202617289913,2.583401930082722,0.9778525404792973,B,901,Incorrect
1,relearn,29,182,B,42.45909456281919,15.159998357601246,2.1229547281409595,0.238132697343367,B,812,Correct
1,relearn,29,183,A,52.92899681830728,82.08632702144676,2.646449840915364,1.2894090096537325,A,547,Correct
1,relearn,29,184,B,46.6941853599626,25.04783181941027,2.33470926799813,0.39345042216105974,B,1662,Correct
1,relearn,29,185,A,40.70974366740347,71.97246949680407,2.0354871833701735,1.1305409071593755,A,564,Correct
1,relearn,29,186,B,36.965050009685086,12.048849375413617,1.8482525004842543,0.18926288341004696,B,845,Correct
1,relearn,29,187,B,55.083397386471894,30.49315304788874,2.7541698693235945,0.4789853280001824,B,1114,Correct
1,relearn,29,188,A,48.93977100112008,76.25864230900544,2.446988550056004,1.1978679522535163,A,1079,Correct
1,relearn,29,189,B,45.56804631896235,25.857711052845993,2.2784023159481177,0.4061719754113428,B,955,Correct
1,relearn,29,190,B,47.568608690642655,35.05068021627052,2.3784304345321328,0.5505747973538029,B,651,Correct
1,relearn,29,191,B,39.11680519218589,19.141829650767395,1.9558402596092948,0.30067915703559067,B,659,Correct
1,relearn,29,192,B,35.202970193665095,10.837215267279962,1.7601485096832548,0.17023057934528935,A,1633,Incorrect
1,relearn,29,193,A,41.94650138593934,67.22947830510208,2.097325069296967,1.0560381757399153,A,970,Correct
1,relearn,29,194,A,44.6975782621197,57.16268978295157,2.2348789131059847,0.8979094314077648,A,959,Correct
1,relearn,29,195,A,29.127473453847973,46.846228322009296,1.4563736726923986,0.7358588337240725,A,845,Correct
1,relearn,29,196,B,76.40787376997474,62.20224391691761,3.8203936884987373,0.9770705626309439,B,792,Correct
1,relearn,29,197,B,54.385051016011175,28.67560700976083,2.719252550800559,0.45043538159546304,B,619,Correct
1,relearn,29,198,A,61.91165021537567,85.89495665752877,3.095582510768784,1.3492348240785303,A,1468,Correct
1,relearn,29,199,A,56.87227149881687,74.45778451918181,2.8436135749408438,1.169580144240167,A,610,Correct
1,relearn,29,200,A,42.95225882159881,69.7495888929138,2.1476129410799403,1.0956239802844314,A,1262,Correct
1,relearn,29,201,B,62.71787047934405,49.14673262084611,3.1358935239672023,0.7719950707479599,A,670,Incorrect
1,relearn,29,202,A,58.774140174764355,70.90405818733964,2.9387070087382177,1.1137583415552472,B,528,Incorrect
1,relearn,29,203,B,53.83719937567316,27.91970363293784,2.691859968783658,0.4385616791182088,B,817,Correct
1,relearn,29,204,B,70.56659846790187,45.53568989849031,3.5283299233950935,0.7152729443062007,B,1067,Correct
1,relearn,29,205,B,55.189807720680236,30.696895245482672,2.7594903860340114,0.482185702956119,B,604,Correct
1,relearn,29,206,B,82.72242089769837,59.65236179508237,4.136121044884919,0.9370171079235561,A,786,Incorrect
1,relearn,29,207,B,52.731646883743366,43.114047511074716,2.636582344187168,0.6772338746365681,B,1858,Correct
1,relearn,29,208,B,62.020255236524974,46.173177696160195,3.1010127618262486,0.7252865792157648,B,764,Correct
1,relearn,29,209,B,68.43094360848647,55.49058195781226,3.421547180424324,0.8716440231104268,A,886,Incorrect
1,relearn,29,210,B,52.9952387634178,23.97034136156666,2.6497619381708897,0.37652524162768686,B,692,Correct
1,relearn,29,211,A,53.83280773897401,75.00657774485596,2.6916403869487002,1.1782005680707557,B,376,Incorrect
1,relearn,29,212,A,49.47196290108487,60.628197661198826,2.4735981450542437,0.9523455018640605,B,1591,Incorrect
1,relearn,29,213,A,65.13188876268364,82.26693611281685,3.256594438134182,1.2922460106268312,A,912,Correct
1,relearn,29,214,B,37.07705185794295,14.752266454529348,1.8538525928971472,0.23172805958674272,B,736,Correct
1,relearn,29,215,A,39.39299189737458,59.909622553253605,1.969649594868729,0.9410581504631946,A,771,Correct
1,relearn,29,216,B,34.83164562955665,23.801761628084872,1.7415822814778323,0.3738771973664343,B,1050,Correct
1,relearn,29,217,A,19.073008406564863,38.16645486553227,0.9536504203282432,0.599517271095613,A,773,Correct
1,relearn,29,218,B,54.703884845203376,30.516949145275635,2.735194242260169,0.4793591162238563,B,798,Correct
1,relearn,29,219,B,46.330839974740115,22.18214398979149,2.316541998737006,0.34843630299599965,B,755,Correct
1,relearn,29,220,B,64.75413403655217,33.010548708914776,3.2377067018276087,0.5185284865744735,B,666,Correct
1,relearn,29,221,B,88.97265992190904,69.21089511642039,4.448632996095452,1.0871621982306,B,580,Correct
1,relearn,29,222,A,24.237706494166797,52.64112729972125,1.2118853247083399,0.8268848940074469,A,1157,Correct
1,relearn,29,223,A,43.09883135474751,59.77296090853935,2.1549415677373758,0.9389114743678857,A,1513,Correct
1,relearn,29,224,B,75.81686932819177,46.687301229699685,3.790843466409589,0.7333624127957912,B,675,Correct
1,relearn,29,225,B,35.47208913927787,14.627968417949852,1.7736044569638936,0.2297755905938738,A,858,Incorrect
1,relearn,29,226,A,14.904423126254436,39.120113236367175,0.7452211563127219,0.6144973017548597,A,653,Correct
1,relearn,29,227,A,45.31518981241082,67.17782397596837,2.265759490620541,1.0552267914352524,B,2997,Incorrect
1,relearn,29,228,A,14.647473958558322,38.917908642339874,0.7323736979279161,0.6113210794192683,A,656,Correct
1,relearn,29,229,B,80.78703180536576,50.54634042209713,4.0393515902682875,0.7939800586795458,B,662,Correct
1,relearn,29,230,A,40.65685994227393,64.08682543563413,2.0328429971136965,1.0066734999023983,A,697,Correct
1,relearn,29,231,A,55.64854295878752,73.98236918588319,2.7824271479393765,1.1621123376476927,B,707,Incorrect
1,relearn,29,232,A,29.058211120261674,61.64518939218371,1.4529105560130835,0.968320370618179,A,661,Correct
1,relearn,29,233,B,81.41006668225626,67.54336995400067,4.0705033341128125,1.0609687742309304,B,1197,Correct
1,relearn,29,234,A,66.22952272644989,89.14638660992989,3.3114761363224945,1.4003081663391561,A,1119,Correct
1,relearn,29,235,B,58.389001400349485,38.72586858459941,2.919450070017474,0.6083045212463063,B,988,Correct
1,relearn,29,236,B,50.900332477002564,25.13287702594256,2.5450166238501284,0.3947863091413842,B,565,Correct
1,relearn,29,237,B,44.2127940667623,28.60028343632491,2.210639703338115,0.4492522016707209,B,636,Correct
1,relearn,29,238,A,66.16037704272078,77.87722270207462,3.3080188521360387,1.2232925536140693,A,1020,Correct
1,relearn,29,239,A,53.82744912239313,83.85503909104038,2.691372456119657,1.317191873874487,A,571,Correct
1,relearn,29,240,A,40.64455323877375,50.37440272269793,2.0322276619386876,0.7912792676130075,A,1857,Correct
1,relearn,29,241,A,52.374467550025294,72.1266752124282,2.6187233775012646,1.1329631648761072,A,697,Correct
1,relearn,29,242,B,37.320017498287186,24.164592515926838,1.8660008749143595,0.37957653162513333,B,1728,Correct
1,relearn,29,243,A,38.34842036765619,52.49101849119301,1.9174210183828095,0.8245269903568898,A,709,Correct
1,relearn,29,244,B,48.41709465583319,24.95751784567078,2.420854732791659,0.3920317735789774,A,1563,Incorrect
1,relearn,29,245,A,42.18845943325995,68.17066311864146,2.1094229716629975,1.0708222722193432,A,3270,Correct
1,relearn,29,246,A,36.93277610608061,56.67020080617762,1.8466388053040306,0.8901734326507298,A,644,Correct
1,relearn,29,247,B,65.85236239923239,40.040394091769755,3.2926181199616193,0.6289530396277201,B,1331,Correct
1,relearn,29,248,A,38.914503959643525,47.97185865761145,1.9457251979821764,0.7535401936890002,A,620,Correct
1,relearn,29,249,A,19.744717827712144,46.92208499785892,0.9872358913856073,0.7370503876019471,A,753,Correct
1,relearn,29,250,A,18.355396237669474,42.62081706916897,0.9177698118834737,0.6694862289724786,A,630,Correct
1,relearn,29,251,A,17.809443297953724,46.55685530745974,0.8904721648976861,0.7313133730407925,A,523,Correct
1,relearn,29,252,B,55.681628897041456,31.79485602190936,2.784081444852073,0.4994324305018782,B,756,Correct
1,relearn,29,253,A,58.16879393138056,83.91810737204801,2.908439696569028,1.3181825481159273,B,659,Incorrect
1,relearn,29,254,A,49.506983634178425,69.08233235772362,2.4753491817089213,1.0851427391393649,B,666,Incorrect
1,relearn,29,255,B,59.59292649308936,32.59965463840438,2.979646324654468,0.5120741776078781,B,626,Correct
1,relearn,29,256,A,48.154175836049504,68.34183262242199,2.407708791802475,1.073510996497321,A,606,Correct
1,relearn,29,257,B,66.06782811373132,52.381984145480786,3.303391405686566,0.8228142828594972,A,472,Incorrect
1,relearn,29,258,B,74.04498637919157,42.37811792108434,3.702249318959579,0.6656739196692025,B,724,Correct
1,relearn,29,259,A,42.07929292771013,71.0817543562296,2.1039646463855064,1.1165495864490258,A,932,Correct
1,relearn,29,260,B,66.79541864801111,54.61850425672471,3.339770932400555,0.8579454586149461,B,557,Correct
1,relearn,29,261,A,47.7279381323611,74.10822151967427,2.386396906618055,1.1640892214840688,A,958,Correct
1,relearn,29,262,A,36.57731133081572,49.388781221233415,1.8288655665407858,0.775797161271902,B,2587,Incorrect
1,relearn,29,263,B,80.72958804523773,49.28877936759091,4.036479402261887,0.774226335828159,B,745,Correct
1,relearn,29,264,B,70.47833312002096,42.953989853773045,3.5239166560010484,0.6747196948349196,B,1083,Correct
1,relearn,29,265,B,75.81674381857108,59.05968713935323,3.790837190928554,0.9277073962015184,B,1148,Correct
1,relearn,29,266,B,68.69396806108453,57.91096840843031,3.434698403054227,0.9096633645709763,B,507,Correct
1,relearn,29,267,A,27.4375593520704,40.61238443203757,1.37187796760352,0.6379378428822686,A,1119,Correct
1,relearn,29,268,B,82.08919082128652,66.37106423872248,4.104459541064326,1.0425542391165339,B,1842,Correct
1,relearn,29,269,B,50.87699765844456,21.267271316963235,2.543849882922228,0.3340655166563631,B,750,Correct
1,relearn,29,270,A,39.75854096337923,57.97708518803407,1.9879270481689617,0.9107019245163872,A,938,Correct
1,relearn,29,271,B,71.54118634470692,57.261165832641424,3.577059317235346,0.8994562895790659,B,1320,Correct
1,relearn,29,272,A,18.00851854984919,48.20715219064847,0.9004259274924594,0.7572361758631316,A,612,Correct
1,relearn,29,273,A,35.701813298434374,56.43171110587388,1.7850906649217189,0.8864272451985745,A,590,Correct
1,relearn,29,274,B,65.61491082198238,36.14239763868499,3.280745541099119,0.5677234545240692,B,577,Correct
1,relearn,29,275,B,64.38152150337663,33.99760201857022,3.2190760751688314,0.5340330837060486,B,479,Correct
1,relearn,29,276,B,53.2410972421054,38.22208470080444,2.66205486210527,0.6003911025046703,B,420,Correct
1,relearn,29,277,A,37.6137502738934,49.62813265088773,1.8806875136946701,0.7795568847370433,B,834,Incorrect
1,relearn,29,278,B,80.63677065431617,65.54711349970101,4.031838532715808,1.0296116511733853,B,381,Correct
1,relearn,29,279,B,49.42936594723656,21.00413115300174,2.4714682973618283,0.3299321206265339,B,537,Correct
1,relearn,29,280,B,31.290316950540436,11.380719398197193,1.564515847527022,0.17876792226971575,A,1030,Incorrect
1,relearn,29,281,A,44.61560014989322,62.98826020200208,2.230780007494661,0.9894172775650604,A,842,Correct
1,relearn,29,282,A,52.83580180084017,63.76880961933194,2.6417900900420084,1.001678119141297,A,501,Correct
1,relearn,29,283,A,58.64894755048121,77.51225335668202,2.9324473775240607,1.217559628542715,A,547,Correct
1,relearn,29,284,A,15.510654777998525,33.164620314186045,0.7755327388999262,0.5209486376907084,A,673,Correct
1,relearn,29,285,A,41.676816379151404,57.122171129257616,2.08384081895757,0.8972729658838736,A,444,Correct
1,relearn,29,286,A,55.40625143723682,73.17396704848852,2.770312571861841,1.1494139865677657,A,408,Correct
1,relearn,29,287,A,23.154624987517227,45.43824640637722,1.1577312493758614,0.7137423055113874,A,445,Correct
1,relearn,29,288,B,41.714817731230255,18.630403511056944,2.0857408865615126,0.2926456940187499,A,433,Incorrect
1,relearn,29,289,A,35.29540990263982,53.6835016006866,1.764770495131991,0.8432584712384646,A,571,Correct
1,relearn,29,290,B,37.096918087899866,25.134100820510184,1.8548459043949932,0.39480553246149996,A,507,Incorrect
1,relearn,29,291,B,66.52156256522501,43.252104683913316,3.3260781282612504,0.6794024716363937,A,700,Incorrect
1,relearn,29,292,A,57.50822140548705,68.62494798902526,2.8754110702743527,1.077958162276517,A,1747,Correct
1,relearn,29,293,A,34.20959079348171,67.52718730214815,1.7104795396740855,1.060714577730053,A,754,Correct
1,relearn,29,294,B,50.94124093409699,38.826233686015605,2.5470620467048493,0.609881052572736,B,1347,Correct
1,relearn,29,295,A,49.77016138389173,74.15618962339877,2.4885080691945864,1.164842702695406,A,761,Correct
1,relearn,29,296,B,63.97847304143365,45.66718596125275,3.1989236520716826,0.7173384796299528,B,704,Correct
1,relearn,29,297,A,50.53796568757992,66.90000374843717,2.526898284378996,1.0508628015060992,A,1045,Correct
1,relearn,29,298,A,55.526894105303285,78.07636541328499,2.7763447052651644,1.2264206800068418,A,769,Correct
1,relearn,29,299,B,56.622104497364546,47.626357999581025,2.831105224868227,0.7481130820436063,B,1530,Correct
1,relearn,29,300,A,58.2331943412211,82.21898153120739,2.9116597170610548,1.29149274182038,A,647,Correct
1,relearn,29,301,A,18.57524412194463,32.3647350025116,0.9287622060972314,0.5083840685963544,A,639,Correct
1,relearn,29,302,B,56.496485453497435,24.456185671548376,2.824824272674872,0.38415686620282175,B,1842,Incorrect
1,relearn,29,303,B,75.67204638770994,52.45278426215438,3.783602319385497,0.8239264084915727,B,786,Incorrect
1,relearn,29,304,B,71.87428999608602,52.32138266671782,3.593714499804301,0.8218623570571051,B,703,Incorrect
1,relearn,29,305,A,60.333190956226915,80.11632637303973,3.016659547811346,1.2584643118307188,A,1009,Correct
1,relearn,29,306,A,27.093953785581448,44.28568326465143,1.3546976892790723,0.6956378860171669,A,658,Correct
1,relearn,29,307,A,22.738683298916776,45.75989402911627,1.1369341649458389,0.7187947345545955,A,531,Correct
1,relearn,29,308,A,48.37093345422777,57.97702389899915,2.4185466727113885,0.9107009617904781,A,495,Correct
1,relearn,29,309,A,52.27276302801674,76.10002339907052,2.613638151400837,1.1953763722426565,A,474,Incorrect
1,relearn,29,310,A,40.15511049659255,63.35388670690577,2.0077555248296277,0.995160525273876,A,2957,Correct
1,relearn,29,311,B,48.864170559197255,40.53192636139139,2.4432085279598628,0.6366740104639483,A,1078,Correct
1,relearn,29,312,A,45.51569222850338,66.04367437518762,2.275784611425169,1.0374116111658296,A,725,Incorrect
1,relearn,29,313,A,45.00730984092643,60.73174259312527,2.250365492046322,0.9539719818513435,B,750,Correct
1,relearn,29,314,B,63.49915235342422,48.891578345880035,3.174957617671211,0.7679871167691327,A,701,Incorrect
1,relearn,29,315,B,62.16701575063638,38.86258739791935,3.108350787531819,0.6104520953439735,B,621,Incorrect
1,relearn,29,316,A,21.634723194602547,35.47851490734503,1.0817361597301274,0.5572952089659555,A,766,Incorrect
1,relearn,29,317,A,12.266957069344052,30.798467323798967,0.6133478534672026,0.4837811934313607,B,783,Correct
1,relearn,29,318,A,36.400585386804885,62.221269358994775,1.8200292693402442,0.9773694135762484,B,803,Correct
1,relearn,29,319,A,43.626008883287234,50.590685608757795,2.1813004441643615,0.7946766312427218,B,754,Incorrect
1,relearn,29,320,B,69.11689137305544,36.58799492266054,3.4558445686527715,0.5747228802930551,A,1577,Incorrect
1,relearn,29,321,A,20.911437449665485,41.39592736372466,1.0455718724832743,0.6502457064720705,B,1284,Incorrect
1,relearn,29,322,B,37.31703491564761,14.389684245403462,1.8658517457823804,0.22603263156418152,A,1367,Correct
1,relearn,29,323,A,29.363828984303634,47.13520764683452,1.4681914492151815,0.7403981103436239,A,1000,Incorrect
1,relearn,29,324,A,55.23676980196176,72.10330467882387,2.761838490098088,1.1325960613926982,A,1567,Correct
1,relearn,29,325,B,54.44853915183036,25.785651520367153,2.7224269575915176,0.4050400669220596,A,5251,Correct
1,relearn,29,326,B,61.72600452161381,47.71642074804023,3.0863002260806907,0.7495277843882139,A,648,Incorrect
1,relearn,29,327,B,55.55651641533264,30.906324408013383,2.7778258207666315,0.48547540854838883,A,780,Incorrect
1,relearn,29,328,A,40.35080315798656,68.14721772580248,2.0175401578993277,1.070453992849826,B,815,Correct
1,relearn,29,329,B,33.4979479240095,14.774468838398924,1.6748973962004752,0.2320768138170269,B,1453,Incorrect
1,relearn,29,330,A,29.609255142091797,53.194601310609535,1.4804627571045899,0.8355788434402445,B,481,Correct
1,relearn,29,331,A,36.79606989312958,68.18321940102118,1.839803494656479,1.0710195058417458,B,1045,Incorrect
1,relearn,29,332,A,47.01708732723077,72.60412412944754,2.3508543663615384,1.140462914926969,A,733,Incorrect
1,relearn,29,333,B,69.68307072202751,45.0737468685094,3.484153536101376,0.7080167601593755,B,1915,Incorrect
1,relearn,29,334,A,54.21510600461682,73.53610999287709,2.7107553002308413,1.1551025146359681,A,1096,Correct
1,relearn,29,335,A,58.307168263086545,74.21137868020276,2.915358413154327,1.165709610372476,A,558,Incorrect
1,relearn,29,336,B,48.026484553044305,37.596814949064814,2.401324227652215,0.5905693882117846,A,4900,Incorrect
1,relearn,29,337,B,74.2353123122655,61.894222853988,3.7117656156132752,0.9722321790886909,B,1768,Incorrect
1,relearn,29,338,B,43.099182087260075,20.07399752747803,2.154959104363004,0.3153216158025232,B,5441,Correct
1,relearn,29,339,B,75.63011050477432,43.27078461067213,3.781505525238716,0.6796958952397693,B,4321,Incorrect
1,relearn,29,340,A,44.493732421333426,61.30846121570657,2.224686621066671,0.9630310567907927,A,1026,Correct
1,relearn,29,341,B,49.19414280521384,34.455613087627256,2.4597071402606923,0.5412275047551106,A,912,Incorrect
1,relearn,29,342,A,38.53637280244158,60.10705656757996,1.926818640122079,0.9441594367080768,A,911,Correct
1,relearn,29,343,B,67.65865658916556,38.88599583654656,3.382932829458278,0.6108197942380899,B,774,Correct
1,relearn,29,344,A,12.706777828908375,31.689207225117347,0.6353388914454188,0.49777290308256633,B,1229,Correct
1,relearn,29,345,B,48.76325665098401,36.31109411313274,2.4381628325492004,0.5703733325481269,B,612,Incorrect
1,relearn,29,346,B,48.834939126271266,22.08523241648234,2.441746956313563,0.3469140195622204,A,1126,Incorrect
1,relearn,29,347,B,48.06654084084103,25.80010431175802,2.403327042042051,0.40526709083834667,B,1178,Correct
1,relearn,29,348,A,65.14031841051886,76.94187057882237,3.2570159205259426,1.2086000768194252,A,828,Incorrect
1,relearn,29,349,A,53.14712646088425,76.72296927202203,2.6573563230442123,1.205161583132899,B,630,Incorrect
1,relearn,29,350,B,42.16962930802512,20.985341391198713,2.108481465401256,0.32963697173831835,B,3775,Correct
1,relearn,29,351,A,19.425587384848882,49.81088391093692,0.9712793692424441,0.7824275348170673,A,881,Incorrect
1,relearn,29,352,A,54.27356120242837,74.53782912147346,2.7136780601214183,1.1708374819127618,A,1039,Correct
1,relearn,29,353,B,36.60618985037505,22.85617967676351,1.8303094925187526,0.35902403080824286,A,2181,Incorrect
1,relearn,29,354,B,71.00910383919424,59.472445786755195,3.550455191959712,0.9341909938734368,A,3216,Incorrect
1,relearn,29,355,B,43.926190484454935,28.427978892669493,2.196309524222747,0.4465456482280809,A,1507,Incorrect
1,relearn,29,356,A,40.32685934452687,65.00494130426489,2.0163429672263438,1.0210952302425715,A,2519,Incorrect
1,relearn,29,357,B,72.725384062468,44.061315121583455,3.6362692031233994,0.6921135194673572,B,736,Correct
1,relearn,29,358,A,50.70564431482582,67.22602536014132,2.5352822157412906,1.0559839370073056,B,539,Correct
1,relearn,29,359,A,64.72833317316613,76.19450698630664,3.2364166586583063,1.1968605169603856,B,500,Incorrect
1,relearn,29,360,A,19.4079464228189,38.23395001634303,0.9703973211409449,0.6005774824453131,B,2345,Correct
1,relearn,29,361,B,50.99446569115084,39.85619691325149,2.549723284557542,0.6260596771134953,B,1162,Correct
1,relearn,29,362,A,35.6945392565756,59.15316045864613,1.7847269628287803,0.9291756716675045,A,721,Correct
1,relearn,29,363,B,32.546820059026494,12.130460150937814,1.6273410029513247,0.1905448224742499,A,792,Correct
1,relearn,29,364,A,44.6091261787075,67.69869304583538,2.230456308935375,1.0634085836521343,B,838,Correct
1,relearn,29,365,B,40.740043069123196,23.444765830929192,2.03700215345616,0.36826952049790074,B,836,Incorrect
1,relearn,29,366,A,59.3330898982207,71.80886612526487,2.966654494911035,1.1279710314087252,B,1056,Correct
1,relearn,29,367,B,39.46373318335634,21.673733124372422,1.9731866591678169,0.3404502037969708,A,1340,Correct
1,relearn,29,368,B,49.787944654587065,37.539111984332806,2.4893972327293534,0.5896629921613226,B,1011,Incorrect
1,relearn,29,369,A,18.4923179364418,44.5393691897715,0.92461589682209,0.6996227752105486,B,998,Incorrect
1,relearn,29,370,A,48.70971202821882,62.293438164141385,2.4354856014109405,0.9785030385165832,B,1147,Incorrect
1,relearn,29,371,B,60.64725343579539,43.18868898235099,3.0323626717897696,0.6784063401256416,A,695,Correct
1,relearn,29,372,A,46.05893908836523,72.6868197304331,2.3029469544182617,1.141761894389671,A,761,Correct
1,relearn,29,373,B,76.53695157694672,55.36975021662546,3.8268475788473357,0.869746002558262,A,805,Incorrect
1,relearn,29,374,A,52.0668241136045,82.08289470707601,2.603341205680225,1.2893550949856725,A,1074,Incorrect
1,relearn,29,375,B,44.87407122233379,26.986495127319678,2.2437035611166896,0.4239028741906212,B,1106,Correct
1,relearn,29,376,B,69.54652040893282,60.17885497932498,3.477326020446641,0.9452872435224645,A,2195,Incorrect
1,relearn,29,377,B,41.589417951653004,21.697861514088903,2.07947089758265,0.34082921165635205,A,1214,Incorrect
1,relearn,29,378,B,52.61996379528315,43.81154053255197,2.6309981897641577,0.6881900693975836,B,4493,Incorrect
1,relearn,29,379,A,66.31501473029459,79.09856049766182,3.3157507365147296,1.242477282844911,B,2353,Correct
1,relearn,29,380,A,21.54251432190692,35.123127562616496,1.077125716095346,0.5517127976090658,B,1157,Correct
1,relearn,29,381,B,56.243664838583065,34.440903474094696,2.8121832419291533,0.5409964466860555,A,1185,Incorrect
1,relearn,29,382,A,33.36690504728194,44.55103131875829,1.668345252364097,0.6998059635042992,A,771,Correct
1,relearn,29,383,A,32.95400559151396,53.24060425093499,1.6477002795756983,0.8363014559370945,A,776,Incorrect
1,relearn,29,384,B,61.42400910699051,32.3061024997605,3.071200455349526,0.5074630713968321,B,719,Incorrect
1,relearn,29,385,A,55.88743175554194,71.86666191768259,2.7943715877770967,1.1288788855930652,B,1042,Correct
1,relearn,29,386,A,40.038238721324596,54.85894974080485,2.00191193606623,0.8617223674468212,A,2780,Incorrect
1,relearn,29,387,A,64.57091015290086,79.33626520858346,3.2285455076450433,1.2462111397126865,A,1531,Incorrect
1,relearn,29,388,A,27.976576128248826,57.717560048697344,1.3988288064124412,0.9066253131605767,A,880,Correct
1,relearn,29,389,B,33.00460830731915,18.346415160988414,1.6502304153659577,0.28818481544734803,B,822,Incorrect
1,relearn,29,390,B,43.42840716109138,31.230957114499176,2.171420358054569,0.4905747271774425,A,655,Incorrect
1,relearn,29,391,B,67.89557053170451,41.56987103156286,3.3947785265852253,0.6529780072171653,A,3795,Correct
1,relearn,29,392,A,38.910692215401106,64.08350981691312,1.9455346107700553,1.0066214182853181,A,1819,Incorrect
1,relearn,29,393,B,61.87046143258062,48.35156731263588,3.093523071629031,0.7595046432946463,B,2345,Incorrect
1,relearn,29,394,A,31.562055873999217,50.28316520401465,1.578102793699961,0.7898461120208716,B,3277,Correct
1,relearn,29,395,B,34.495229837112944,12.170905421763774,1.7247614918556473,0.19118013530274627,B,3730,Correct
1,relearn,29,396,B,68.16597441873195,47.30002353671959,3.4082987209365974,0.7429870322879129,A,5124,Correct
1,relearn,29,397,B,40.49913410770186,22.205509393660304,2.0249567053850934,0.34880332590171176,A,2473,Correct
1,relearn,29,398,A,59.57126073378961,80.35857189138642,2.9785630366894806,1.2622694955347342,B,1718,Incorrect
1,relearn,29,399,A,51.85865589651142,65.21290772507793,2.5929327948255714,1.0243619591416693,B,1043,Incorrect
1,relearn,29,400,A,27.534119962191483,53.094722739284094,1.3767059981095742,0.8340099545106093,B,3950,Incorrect
1,relearn,29,401,B,62.5214805050852,49.406958865857305,3.12607402525426,0.7760826950459521,B,1081,Incorrect
1,relearn,29,402,A,46.9358645837375,65.18766567248933,2.3467932291868747,1.0239654579068,A,583,Correct
1,relearn,29,403,A,14.28529425257986,38.720011845100075,0.7142647126289929,0.6082125237973807,A,632,Incorrect
1,relearn,29,404,A,22.26389938194775,51.56484056889133,1.1131949690973875,0.8099786215737896,B,7729,Incorrect
1,relearn,29,405,B,55.2313288721849,32.13924682903302,2.7615664436092455,0.504842108649996,B,2838,Correct
1,relearn,29,406,B,85.36470435147822,58.72516393667888,4.2682352175739116,0.9224527180216331,B,4353,Incorrect
1,relearn,29,407,B,50.471127247146896,24.38464471921347,2.523556362357345,0.3830331035513909,A,2244,Correct
1,relearn,29,408,B,55.82708126558374,33.32414315574843,2.791354063279187,0.5234544166263693,B,1643,Correct
1,relearn,29,409,B,57.404338152400655,29.146941653627778,2.870216907620033,0.4578390888682369,A,1319,Incorrect
1,relearn,29,410,A,24.94322614859032,53.85778840087947,1.247161307429516,0.8459961618939826,A,8352,Incorrect
1,relearn,29,411,B,60.83424464594763,42.89725422065119,3.0417122322973813,0.6738284935938577,A,1992,Incorrect
1,relearn,29,412,A,62.61237401890233,75.70647267356469,3.1306187009451163,1.1891944919023365,A,1617,Incorrect
1,relearn,29,413,A,33.692715336088646,67.0596017932086,1.6846357668044323,1.0533697617310052,B,831,Correct
1,relearn,29,414,A,19.88036695887723,37.82040209588118,0.9940183479438615,0.5940814869011616,B,1947,Incorrect
1,relearn,29,415,B,48.76890043969593,19.947950739993153,2.4384450219847964,0.31334167749466785,A,1699,Correct
1,relearn,29,416,A,37.468123854826224,54.80110187364741,1.873406192741311,0.8608136952743828,A,1360,Correct
1,relearn,29,417,B,88.29468330726121,67.52892422473727,4.41473416536306,1.060741861246282,A,1839,Incorrect
1,relearn,29,418,B,36.93024392271951,16.58295622144574,1.8465121961359756,0.26048446720047547,B,860,Correct
1,relearn,29,419,B,75.0414273440173,59.94547416571234,3.7520713672008643,0.9416213062747931,A,829,Correct
1,relearn,29,420,B,39.244712654702454,15.597644673745517,1.9622356327351227,0.24500722960171437,B,661,Correct
1,relearn,29,421,A,34.97314075471915,51.00970736348899,1.7486570377359572,0.801258609574511,A,483,Incorrect
1,relearn,29,422,A,28.393692811741502,56.18038095892501,1.4196846405870753,0.8824793604821736,A,1538,Correct
1,relearn,29,423,B,30.275763308690678,13.829022675517557,1.5137881654345338,0.21722578021866312,A,876,Correct
1,relearn,29,424,B,59.361896070060155,29.995292057698123,2.9680948035030075,0.4711649458537235,B,2142,Incorrect
1,relearn,29,425,A,24.061492028368153,35.63741326791521,1.2030746014184077,0.5597911785771292,B,1621,Correct
1,relearn,29,426,A,46.475792271199104,74.15785669614866,2.3237896135599554,1.1648688890129264,A,1594,Incorrect
1,relearn,29,427,A,33.30004771685904,58.32782805574725,1.6650023858429521,0.9162113805989209,A,1305,Correct
1,relearn,29,428,A,51.47311670139092,61.41204513241883,2.5736558350695464,0.9646581491496592,A,2155,Correct
1,relearn,29,429,B,55.651417224782975,28.373858596462327,2.7825708612391487,0.44569552860320827,B,2967,Correct
1,relearn,29,430,A,45.60751233428597,69.31306576561337,2.2803756167142986,1.0887670910351859,B,1202,Correct
1,relearn,29,431,B,54.962246771072955,40.974586024090144,2.7481123385536477,0.643627292185823,A,1370,Correct
1,relearn,29,432,A,29.31850961441192,41.00665471290165,1.465925480720596,0.6441310259717254,B,756,Correct
1,relearn,29,433,B,47.70108988740279,30.87347245576381,2.3850544943701393,0.4849593712891721,A,1115,Correct
1,relearn,29,434,A,13.271181800611966,36.015539191805374,0.6635590900305983,0.5657307667002551,B,1370,Correct
1,relearn,29,435,A,59.44051985364311,86.71994736711544,2.972025992682155,1.362193747841117,A,894,Incorrect
1,relearn,29,436,A,38.22294871045833,49.40604503825412,1.9111474355229165,0.776068340675528,B,6060,Correct
1,relearn,29,437,B,88.81756739015572,67.01159815664242,4.440878369507786,1.052615722371096,A,713,Incorrect
1,relearn,29,438,A,50.077309648363894,81.12629743515521,2.5038654824181945,1.2743289001761202,B,1206,Correct
1,relearn,29,439,B,42.70949482039917,20.505206361255915,2.1354747410199586,0.32209502832432135,A,1342,Incorrect
1,relearn,29,440,A,39.30307169442881,71.59700916519071,1.9651535847214405,1.1246431900618212,B,1687,Correct
1,relearn,29,441,B,40.46253925376387,14.734185978658168,2.0231269626881936,0.23144405213589117,B,850,Correct
1,relearn,29,442,A,40.70577474119261,60.76512205550118,2.0352887370596306,0.9544963052202481,B,935,Correct
1,relearn,29,443,A,28.81003633972984,58.23695671678157,1.440501816986492,0.9147839769443386,B,577,Correct
1,relearn,29,444,B,75.11086234793824,44.7924841565021,3.7555431173969116,0.7035986958105209,B,2017,Correct
1,relearn,29,445,A,35.96875584742776,54.788419304766265,1.798437792371388,0.8606144779482545,B,880,Incorrect
1,relearn,29,446,B,63.756968401250916,56.33490741174309,3.1878484200625454,0.8849066563269664,A,1010,Incorrect
1,relearn,29,447,B,74.51231721012863,58.78786634022824,3.7256158605064313,0.9234376450733986,B,978,Incorrect
1,relearn,29,448,B,52.70945700070879,34.9424641807564,2.6354728500354394,0.548874943842944,B,1057,Incorrect
1,relearn,29,449,B,66.32981513903023,51.48552357896389,3.3164907569515116,0.8087327132094853,B,1070,Incorrect
1,relearn,29,450,A,29.523720454420815,48.868773601662625,1.4761860227210408,0.7676289006846305,B,1934,Correct
1,relearn,29,451,B,34.39250458210693,20.479964211393273,1.7196252291053467,0.32169852556147494,B,1191,Correct
1,relearn,29,452,A,20.483096996338183,49.66486988364264,1.0241548498169093,0.7801339518397232,B,576,Correct
1,relearn,29,453,A,32.6008372288852,60.62107405953632,1.63004186144426,0.9522336045908103,B,1292,Correct
1,relearn,29,454,B,64.52778355656673,37.99892735716454,3.2263891778283367,0.5968857551478016,A,1105,Incorrect
1,relearn,29,455,A,47.25253409368035,60.52412419225288,2.362626704684018,0.9507107196366896,A,590,Correct
1,relearn,29,456,A,44.20717897745899,59.59733905681259,2.2103589488729494,0.9361528127719124,A,607,Correct
1,relearn,29,457,A,33.3038094131916,46.85296471387299,1.6651904706595801,0.7359646487200261,B,816,Incorrect
1,relearn,29,458,B,85.78101444337122,64.11912568262976,4.289050722168561,1.0071808709957513,A,811,Correct
1,relearn,29,459,B,36.61822640113682,25.929046945877168,1.8309113200568412,0.4072925169987629,B,1076,Incorrect
1,relearn,29,460,B,78.54871843296843,57.95510527877216,3.9274359216484216,0.9103566649090682,A,769,Correct
1,relearn,29,461,B,53.833207856239,32.97315899618793,2.6916603928119502,0.5179411703403609,A,798,Incorrect
1,relearn,29,462,A,21.852317207965626,38.441155057844384,1.0926158603982814,0.6038322516261502,B,1686,Correct
1,relearn,29,463,B,72.52450740343593,46.30993982092282,3.6262253701717966,0.7274348336479829,A,999,Incorrect
1,relearn,29,464,B,77.80616449002864,63.5938453850532,3.890308224501432,0.9989297873760417,B,1169,Correct
1,relearn,29,465,A,30.346329156601776,62.93911961996882,1.5173164578300886,0.9886453791075165,B,1025,Correct
1,relearn,29,466,A,38.708418817839295,65.79714428475175,1.9354209408919647,1.0335391255608186,B,551,Correct
1,relearn,29,467,B,87.04627129962758,60.61868448539522,4.352313564981379,0.952196069247976,A,4387,Correct
1,relearn,29,468,A,49.9595290849481,62.66745057149697,2.497976454247405,0.9843780116730818,B,972,Correct
1,relearn,29,469,A,34.39964319512134,51.238168571562674,1.7199821597560672,0.8048472698390836,B,641,Correct
1,relearn,29,470,B,70.04664870510454,45.117569270752035,3.502332435255227,0.708705120844116,B,709,Incorrect
1,relearn,29,471,B,56.9310715856299,31.67560518720198,2.846553579281495,0.4975592427706224,B,967,Incorrect
1,relearn,29,472,B,64.66204985384829,33.83465150979292,3.2331024926924146,0.5314734630996812,A,1687,Incorrect
1,relearn,29,473,A,35.747526711182616,60.221546781745715,1.7873763355591308,0.9459578447867318,B,828,Correct
1,relearn,29,474,B,55.16445572849363,29.818116873582063,2.7582227864246813,0.46838188456963636,B,750,Incorrect
1,relearn,29,475,A,61.78262369831746,80.3135414744951,3.089131184915873,1.2615621594002648,B,1073,Correct
1,relearn,29,476,B,46.01718971152811,35.68544647886271,2.3008594855764057,0.5605456824903341,A,844,Incorrect
1,relearn,29,477,B,43.62184951139537,17.011981722946018,2.1810924755697685,0.2672235840190552,B,1322,Correct
1,relearn,29,478,A,49.69976239069762,70.11774199576668,2.484988119534881,1.1014069157010256,B,5299,Incorrect
1,relearn,29,479,A,40.874121908826524,53.27932431225009,2.043706095441326,0.8369096692379647,A,654,Correct
1,relearn,29,480,A,44.83443457794669,56.60056468398688,2.2417217288973346,0.8890795910012355,A,695,Incorrect
1,relearn,29,481,B,47.80718767908929,21.014086649416203,2.3903593839544643,0.3300885011985265,A,4310,Correct
1,relearn,29,482,B,48.19819810873659,38.344249307889726,2.4099099054368294,0.6023100596654094,A,702,Incorrect
1,relearn,29,483,A,18.36248160079096,41.320834243991555,0.918124080039548,0.6490661465056271,B,1720,Correct
1,relearn,29,484,B,50.643105058438024,41.07462222256844,2.5321552529219016,0.6451986571169854,A,4601,Correct
1,relearn,29,485,B,84.57881268970601,66.50979508843372,4.2289406344853,1.0447334182079295,A,1341,Correct
1,relearn,29,486,B,53.630458295552145,37.862015426312155,2.6815229147776076,0.5947351475670284,B,3583,Incorrect
1,relearn,29,487,A,51.47456847621377,75.2005172741786,2.5737284238106883,1.181246963073559,B,1367,Incorrect
1,relearn,29,488,B,51.423280987680776,32.62073880330419,2.571164049384039,0.5124053668956597,A,726,Incorrect
1,relearn,29,489,B,40.9853028819128,21.917005796240346,2.04926514409564,0.34427152199076794,A,1087,Incorrect
1,relearn,29,490,A,50.07430906117901,56.85782323605013,2.5037154530589505,0.8931205988874107,B,1415,Correct
1,relearn,29,491,B,33.55325364594802,15.222375738361965,1.677662682297401,0.23911251894910726,B,625,Correct
1,relearn,29,492,A,58.00367054229604,83.96949229193362,2.9001835271148018,1.3189897005500173,B,2479,Incorrect
1,relearn,29,493,A,35.271632012990445,57.08298164661341,1.7635816006495222,0.8966573789300084,B,870,Correct
1,relearn,29,494,A,45.844717920634125,64.34534899936574,2.2922358960317064,1.0107343785453937,A,1191,Incorrect
1,relearn,29,495,B,62.514527729870444,29.435339556432524,3.125726386493522,0.46236923253204726,A,1243,Incorrect
1,relearn,29,496,B,33.278030903511834,13.906406848512429,1.6639015451755916,0.21844132796558716,B,725,Incorrect
1,relearn,29,497,A,18.97061881356582,42.19436347157097,0.948530940678291,0.6627875115259244,B,1117,Incorrect
1,relearn,29,498,A,17.87207402797511,36.17026705673903,0.8936037013987556,0.5681612263191611,A,783,Incorrect
1,relearn,29,499,A,30.653534902475712,56.49343745236805,1.5326767451237857,0.8873968403819696,B,1087,Correct
1,relearn,29,500,B,64.28350482781813,56.67892581200708,3.214175241390907,0.8903104847218117,A,9142,Correct
1,relearn,29,501,B,78.14237118573482,52.8670506092223,3.907118559286741,0.8304336890544628,A,697,Incorrect
1,relearn,29,502,A,39.455655036994315,50.64367686941951,1.9727827518497156,0.7955090160187182,B,3052,Correct
1,relearn,29,503,A,65.03331858737195,76.92813223296882,3.251665929368597,1.208384275387395,B,1075,Incorrect
1,relearn,29,504,A,28.528920574851313,60.69608090490108,1.4264460287425658,0.9534118093626448,B,2328,Correct
1,relearn,29,505,B,51.13383335144188,42.64501486931789,2.556691667572094,0.669866327128383,A,1931,Incorrect
1,relearn,29,506,B,85.00375361760733,67.11289071505894,4.250187680880367,1.054206822158019,A,1959,Incorrect
1,relearn,29,507,B,62.918053801334736,46.317584445253836,3.1459026900667366,0.7275549151261715,B,753,Correct
1,relearn,29,508,B,79.86923999264924,67.48062244561415,3.993461999632462,1.0599831386740395,B,580,Incorrect
1,relearn,29,509,B,57.404942064138986,43.01637419668938,2.870247103206949,0.6756996258019444,B,1732,Correct
1,relearn,29,510,A,48.32630261969469,77.73941351862553,2.416315130984734,1.221127852022465,A,1127,Correct
1,relearn,29,511,B,58.24029039854078,29.67197224239347,2.912014519927039,0.4660862500711179,B,1067,Incorrect
1,relearn,29,512,A,48.45265729655321,57.38168501610199,2.4226328648276607,0.9013494004859477,B,1438,Correct
1,relearn,29,513,B,60.98029699881766,36.072733306376136,3.0490148499408827,0.5666291697510756,A,854,Correct
1,relearn,29,514,A,28.987055167998303,60.884738256403644,1.449352758399915,0.9563752321102754,B,1215,Correct
1,relearn,29,515,A,46.62936780260002,68.73760855620782,2.3314683901300013,1.0797278303275668,B,1286,Incorrect
1,relearn,29,516,A,25.606496778968694,49.35137685553725,1.2803248389484347,0.7752096148694858,B,1667,Correct
1,relearn,29,517,A,35.37099011099155,42.991726117953434,1.7685495055495775,0.6753124546865348,A,1456,Correct
1,relearn,29,518,B,44.20531166076213,28.335583079457727,2.2102655830381064,0.44509429818803825,A,684,Correct
1,relearn,29,519,B,59.37139312398186,38.63226808574621,2.9685696561990933,0.6068342480484585,A,650,Correct
1,relearn,29,520,B,77.04867198739515,64.01272396706017,3.852433599369758,1.0055095167559374,A,1661,Correct
1,relearn,29,521,A,15.094578345981205,40.18136080116883,0.7547289172990602,0.6311673395209644,B,1161,Incorrect
1,relearn,29,522,B,55.425977807884955,25.36049169160205,2.7712988903942475,0.39836167194880995,A,1847,Incorrect
1,relearn,29,523,B,86.58470837495615,63.30262085430333,4.329235418747808,0.9943552431442969,A,1140,Correct
1,relearn,29,524,A,46.727709303339786,56.84910835935709,2.3363854651669893,0.8929837059244315,B,3007,Incorrect
1,relearn,29,525,B,32.24852617750817,12.34598125171338,1.6124263088754083,0.19393022000870033,A,1558,Correct
1,relearn,29,526,A,21.555577845427056,50.543462822985354,1.0777788922713527,0.793934857458398,A,618,Incorrect
1,relearn,29,527,B,84.85083293695232,58.71216239060392,4.242541646847616,0.9222484902134612,A,781,Correct
1,relearn,29,528,B,75.66093264542168,46.768184239618925,3.783046632271084,0.7346329201446038,A,1035,Correct
1,relearn,29,529,A,37.715417831406754,52.71079218569148,1.8857708915703375,0.8279791874773331,B,823,Correct
1,relearn,29,530,A,24.582006333850238,41.87754681665628,1.229100316692512,0.6578109671478499,B,1123,Incorrect
1,relearn,29,531,B,49.90370055419846,42.80813566780279,2.495185027709923,0.6724286226392222,A,867,Incorrect
1,relearn,29,532,B,87.92067220310824,69.2227662067761,4.396033610155412,1.0873486688818579,A,778,Correct
1,relearn,29,533,A,17.69292697006893,32.22469367021405,0.8846463485034464,0.5061843044926299,B,673,Correct
1,relearn,29,534,B,36.35349463492867,16.921300678589063,1.8176747317464335,0.26579916950519694,A,1627,Incorrect
1,relearn,29,535,B,61.47324507719836,43.29839278415871,3.073662253859918,0.6801295634147916,B,915,Correct
1,relearn,29,536,A,17.521197291909356,33.878614426149625,0.8760598645954678,0.5321640309749642,B,2353,Correct
1,relearn,29,537,B,62.0277713149229,45.653712888338184,3.101388565746145,0.7171268450955045,A,3053,Incorrect
1,relearn,29,538,B,84.37334946074049,64.8322714829186,4.218667473037025,1.0183829390313806,A,603,Correct
1,relearn,29,539,A,56.181780589452146,80.9889833575605,2.8090890294726076,1.2721719756890904,A,1858,Incorrect
1,relearn,29,540,B,59.961202245382545,47.930410039865755,2.9980601122691275,0.7528891203239436,A,1073,Correct
1,relearn,29,541,A,38.53209964836831,63.08837061947621,1.9266049824184153,0.9909898083254831,A,1790,Correct
1,relearn,29,542,B,65.82401750345014,43.135612913491904,3.291200875172507,0.6775726231855957,A,856,Correct
1,relearn,29,543,A,37.51099881480294,55.34994287858544,1.875549940740147,0.8694348696198934,A,1453,Correct
1,relearn,29,544,A,44.0369014435966,60.92973558865604,2.20184507217983,0.9570820485524519,A,814,Incorrect
1,relearn,29,545,B,41.68364193980503,25.452844382910616,2.0841820969902516,0.3998123446315811,B,4172,Incorrect
1,relearn,29,546,A,23.95393116749786,37.18803910994497,1.1976965583748929,0.5841483523460651,B,1932,Correct
1,relearn,29,547,B,49.19301053720184,30.431541676574316,2.4596505268600923,0.4780175388426875,A,3160,Incorrect
1,relearn,29,548,B,57.12470206383113,47.94525804651807,2.8562351031915565,0.7531223522670405,A,2267,Correct
1,relearn,29,549,B,40.632174124965665,21.915191464290658,2.0316087062482833,0.34424302253114636,B,2331,Correct
1,relearn,29,550,A,42.00514272616989,62.881202020893966,2.1002571363084943,0.9877356115886806,A,1580,Correct
1,relearn,29,551,B,50.286885835539216,33.634517571241446,2.5143442917769607,0.5283297665442446,B,998,Incorrect
1,relearn,29,552,A,53.453959423516395,73.19905294486911,2.6726979711758196,1.1498080349066557,A,1613,Incorrect
1,relearn,29,553,A,49.272259429638034,61.364514332860864,2.463612971481902,0.9639115370961063,B,1087,Incorrect
1,relearn,29,554,A,14.105152557919407,33.238624566863365,0.7052576278959704,0.5221110937734358,B,898,Correct
1,relearn,29,555,A,15.976215589691563,32.76094515290856,0.7988107794845781,0.5146077230851783,B,651,Incorrect
1,relearn,29,556,B,53.42086824782025,33.402053110306156,2.6710434123910125,0.5246782233307695,A,992,Correct
1,relearn,29,557,A,26.111132517310242,37.55094158326726,1.3055566258655122,0.5898488110668595,A,7704,Correct
1,relearn,29,558,B,64.19496524557451,45.767474122587316,3.2097482622787252,0.7189138023844063,A,6208,Correct
1,relearn,29,559,A,53.178664776622604,78.37817273050402,2.65893323883113,1.2311614582597163,B,1306,Correct
1,relearn,29,560,A,37.33010761965272,59.631557268543524,1.8665053809826362,0.9366903111848768,B,4501,Correct
1,relearn,29,561,A,21.727754216436473,34.25270404580752,1.0863877108218236,0.5380402169794715,B,1010,Correct
1,relearn,29,562,B,76.1470099828409,57.63344168222879,3.807350499142045,0.9053039849499287,A,1529,Incorrect
1,relearn,29,563,A,23.540578177399663,47.974957171798906,1.1770289088699832,0.7535888650360419,B,1742,Correct
1,relearn,29,564,A,39.716582559524,56.44831835365042,1.9858291279762,0.8866881112366304,A,738,Incorrect
1,relearn,29,565,A,16.843992421700513,46.68787450359544,0.8421996210850256,0.7333714177610884,B,2642,Incorrect
1,relearn,29,566,B,43.87150380298944,30.166213569519027,2.1935751901494718,0.4738497746831085,A,1605,Correct
1,relearn,29,567,A,27.367990439083968,47.72662254554535,1.3683995219541985,0.7496880338486911,B,1172,Incorrect
1,relearn,29,568,A,22.92678585919256,41.53665635516724,1.146339292959628,0.6524562723003859,A,4063,Correct
1,relearn,29,569,B,68.63221856739723,59.5678544777609,3.4316109283698615,0.9356896700871976,A,1168,Incorrect
1,relearn,29,570,B,56.385939684065434,36.710078518980204,2.8192969842032714,0.5766405649396634,B,1253,Correct
1,relearn,29,571,A,55.907958436646396,80.43817356546474,2.7953979218323197,1.2635198757072237,A,1062,Incorrect
1,relearn,29,572,B,81.05989803113113,50.35238888443224,4.0529949015565565,0.7909334750501434,B,639,Incorrect
1,relearn,29,573,A,47.400922520840986,54.24114135477683,2.3700461260420496,0.852017856012462,A,2100,Incorrect
1,relearn,29,574,B,57.81465637536058,34.886541133016806,2.890732818768029,0.5479965066632188,B,544,Correct
1,relearn,29,575,B,70.20619589966012,53.70283088065246,3.5103097949830055,0.8435620948581644,B,608,Incorrect
1,relearn,29,576,B,86.56627620179515,63.5308751819928,4.328313810089758,0.9979406537393933,B,786,Incorrect
1,relearn,29,577,A,43.42033863170038,71.9145665955313,2.171016931585019,1.1296313705130752,B,1167,Correct
1,relearn,29,578,A,30.37308151768815,60.92998714704539,1.5186540758844074,0.9570860000223916,B,697,Incorrect
1,relearn,29,579,A,42.06573406313864,62.414770946479486,2.103286703156932,0.9804089294047481,B,1454,Correct
1,relearn,29,580,A,48.43728831870686,63.49872436666229,2.4218644159353433,0.9974356299131472,A,2061,Incorrect
1,relearn,29,581,B,67.56248576829427,58.40233747668576,3.378124288414713,0.9173817718461391,B,798,Correct
1,relearn,29,582,B,77.85757825424766,53.77516250997566,3.8928789127123826,0.8446982774346838,B,1551,Incorrect
1,relearn,29,583,A,63.612990470526015,79.4612278658528,3.180649523526301,1.2481740485429387,A,1459,Incorrect
1,relearn,29,584,B,41.741757734818094,24.08658140152776,2.0870878867409046,0.3783511359056608,B,1331,Correct
1,relearn,29,585,A,47.28487473486421,68.87863637805403,2.3642437367432105,1.081943090172886,B,1381,Incorrect
1,relearn,29,586,A,37.90383924955601,53.00098197812424,1.8951919624778002,0.8325374780776007,A,900,Incorrect
1,relearn,29,587,B,46.65905612361523,27.00025011842074,2.332952806180762,0.42411893708558773,A,3240,Correct
1,relearn,29,588,B,78.32211787705597,58.2631265408443,3.916105893852799,0.9151950515794446,B,2517,Correct
1,relearn,29,589,A,35.65079367295431,67.94538734406729,1.7825396836477154,1.0672836486271733,A,1272,Correct
1,relearn,29,590,B,44.21761015104823,20.181414487466036,2.2108805075524116,0.3170089174643696,B,8083,Incorrect
1,relearn,29,591,B,49.77596698416989,40.32224034603557,2.4887983492084946,0.6333802702369365,A,2258,Incorrect
1,relearn,29,592,A,24.33315693941823,54.12487324308405,1.2166578469709115,0.850191520784758,A,976,Correct
1,relearn,29,593,A,61.57195488600259,86.67797919808069,3.0785977443001293,1.3615345133834962,A,789,Correct
1,relearn,29,594,B,55.39653028541448,36.030707739765646,2.769826514270724,0.5659690336944432,B,697,Incorrect
1,relearn,29,595,A,59.15204493430345,82.15335965731448,2.9576022467151724,1.2904619558356962,B,1816,Incorrect
1,relearn,29,596,B,76.10316226368117,64.84188087481726,3.805158113184058,1.0185338830063522,A,2069,Correct
1,relearn,29,597,B,41.40069232947971,30.230454636159998,2.0700346164739853,0.4748588709981988,B,3165,Correct
1,relearn,29,598,A,68.45794352262587,89.51088505070014,3.422897176131294,1.4060336944579999,A,1034,Incorrect
1,relearn,29,599,B,62.41217069061892,43.276705736499096,3.1206085345309464,0.6797889040667641,A,6416,Correct
1,relearn,29,600,B,76.39216817277818,50.55307675701668,3.819608408638909,0.7940858727810228,B,1202,Correct
1,relearn,29,601,A,31.684944108531603,47.40071031204657,1.5842472054265802,0.7445686164563172,B,5189,Incorrect
1,relearn,29,602,B,66.96539623091596,46.370526164685934,3.3482698115457983,0.7283865217103531,B,1358,Correct
1,relearn,29,603,B,78.42215385622495,61.456233988064085,3.9211076928112476,0.9653522660709875,B,842,Correct
1,relearn,29,604,B,65.8454399111768,33.837148867749185,3.29227199555884,0.5315126915067252,B,1075,Correct
1,relearn,29,605,A,20.705033217849365,38.989645330263514,1.0352516608924682,0.6124479166781371,A,760,Correct
1,relearn,29,606,A,63.27721995604254,78.00974001180273,3.163860997802127,1.225374130647646,B,536,Incorrect
1,relearn,29,607,B,61.0254212450011,49.278461902808395,3.0512710622500547,0.7740642694703367,B,862,Correct
1,relearn,29,608,B,56.8059930924813,48.14711952589952,2.840299654624065,0.7562931849703781,A,1144,Incorrect
1,relearn,29,609,B,40.489396955116106,32.023335592272936,2.024469847755805,0.5030213792006261,B,784,Correct
1,relearn,29,610,A,56.01107658963727,70.93586933621609,2.800553829481863,1.1142580299133096,A,1865,Correct
1,relearn,29,611,B,72.68072744115547,48.09286402511964,3.634036372057773,0.7554409415570434,B,869,Correct
1,relearn,29,612,B,60.879068063526276,27.757495033793997,3.043953403176314,0.4360137124011119,A,1233,Incorrect
1,relearn,29,613,A,23.235922915833502,39.78450410714757,1.161796145791675,0.6249335291486388,A,681,Correct
1,relearn,29,614,A,58.40124611935216,84.76328101362495,2.9200623059676083,1.3314585046328566,A,1584,Correct
1,relearn,29,615,B,39.49562479934672,25.94165519342306,1.9747812399673361,0.4074905668880869,B,593,Correct
1,relearn,29,616,A,21.910562898294792,34.036738677089026,1.0955281449147396,0.5346478409004923,B,693,Incorrect
1,relearn,29,617,A,31.745249281983213,45.67103986347501,1.5872624640991606,0.7173990165844983,A,576,Correct
1,relearn,29,618,B,69.18796784351261,51.01348458064721,3.459398392175631,0.8013179419628873,B,1028,Correct
1,relearn,29,619,A,66.23234393413048,84.8767011386841,3.311617196706524,1.333240103791132,A,1244,Correct
1,relearn,29,620,B,71.0046289937856,52.226218092278344,3.55023144968928,0.8203675154173999,B,950,Correct
1,relearn,29,621,B,47.334609469769134,32.03359385766817,2.366730473488457,0.5031825156566472,A,803,Incorrect
1,relearn,29,622,A,39.3019057223401,69.74085789545478,1.9650952861170052,1.0954868340970523,A,843,Correct
1,relearn,29,623,A,50.90350648836282,69.21000359406861,2.545175324418141,1.0871481942302454,B,928,Incorrect
1,relearn,29,624,A,17.33826053802513,45.61624244393106,0.8669130269012564,0.7165382607311236,A,1466,Correct
1,relearn,29,625,A,30.631095800662205,62.21262250497866,1.5315547900331103,0.97723358911098,A,1498,Correct
1,relearn,29,626,A,22.336351943277318,36.480292931785684,1.1168175971638659,0.5730311013765078,A,1248,Correct
1,relearn,29,627,B,63.24094778188045,31.947610539488963,3.162047389094022,0.5018318928530319,B,677,Correct
1,relearn,29,628,A,45.20668613810998,58.34248104598608,2.260334306905499,0.916441549231358,B,1242,Incorrect
1,relearn,29,629,A,34.31767090301474,43.766153721445505,1.7158835451507373,0.6874771350358739,A,1364,Correct
1,relearn,29,630,A,23.142163086423857,39.75537134668583,1.157108154321193,0.6244759128174118,A,1506,Correct
1,relearn,29,631,A,37.98920768419767,53.17420509882747,1.8994603842098838,0.8352584604947664,B,1875,Incorrect
1,relearn,29,632,A,11.2924974220714,33.7343062750541,0.56462487110357,0.5298972438382901,A,675,Correct
1,relearn,29,633,A,38.260388509874836,48.50648440265719,1.9130194254937418,0.7619380752542786,A,896,Correct
1,relearn,29,634,A,45.92514233366353,72.39249349066833,2.2962571166831767,1.1371386286266527,A,947,Correct
1,relearn,29,635,A,35.478367826952194,50.510559445516485,1.7739183913476098,0.7934180124137257,A,1065,Correct
1,relearn,29,636,B,65.88836629600327,58.08244250465796,3.294418314800163,0.9123568733759251,B,1052,Correct
1,relearn,29,637,B,66.9154245987083,55.385849108593014,3.3457712299354148,0.8699988833619431,B,677,Correct
1,relearn,29,638,A,31.50742107841503,59.91045753389456,1.5753710539207515,0.9410712663084322,A,1046,Correct
1,relearn,29,639,A,21.359906442916216,38.0576741560492,1.0679953221458107,0.5978085477067916,A,766,Correct
1,relearn,29,640,A,44.663328767035935,61.18075402417873,2.2331664383517964,0.9610250369172205,B,1407,Incorrect
1,relearn,29,641,B,41.78392672016621,28.244070160761716,2.0891963360083103,0.4436568166226185,A,1377,Incorrect
1,relearn,29,642,A,24.137879499245486,45.937457267648995,1.2068939749622742,0.7215838913832057,B,900,Incorrect
1,relearn,29,643,A,20.81002926534792,43.14970095133141,1.0405014632673961,0.6777939175664963,A,747,Correct
1,relearn,29,644,A,30.90701362830458,60.4561659533764,1.545350681415229,0.9496432341166634,A,516,Correct
1,relearn,29,645,A,58.232520694341716,83.08767571407576,2.9116260347170857,1.3051381581359571,B,761,Incorrect
1,relearn,29,646,B,51.61879483005452,34.92319156814165,2.5809397415027258,0.5485722103519141,B,788,Correct
1,relearn,29,647,A,39.605014431713,48.52328399784044,1.9802507215856502,0.7622019626783334,A,961,Correct
1,relearn,29,648,A,36.10475643964574,63.13027408954444,1.805237821982287,0.9916480264941144,A,642,Correct
1,relearn,29,649,B,60.85692728406357,48.64211810822337,3.0428463642031782,0.7640686045192079,B,1244,Correct
1,relearn,29,650,A,39.655334714783265,64.28395555638254,1.9827667357391632,1.0097700125981208,A,640,Correct
1,relearn,29,651,A,19.450343542489993,48.24299244098414,0.9725171771244996,0.7577991531989184,A,626,Correct
1,relearn,29,652,A,42.99682248254183,65.61707979096931,2.1498411241270916,1.0307106791066225,A,5676,Correct
1,relearn,29,653,B,50.94269415176968,24.27121903389061,2.547134707588484,0.3812514170526975,B,723,Correct
1,relearn,29,654,A,20.87987307246667,50.50444752745419,1.0439936536233334,0.7933220066293063,A,1565,Correct
1,relearn,29,655,B,52.50398258695072,23.518306403337796,2.625199129347536,0.3694246931079991,B,1042,Correct
1,relearn,29,656,B,40.495245756779454,30.719099880304306,2.024762287838973,0.48253449254427555,B,767,Correct
1,relearn,29,657,A,64.64694998776133,84.33637362774702,3.2323474993880668,1.32475265909667,A,853,Correct
1,relearn,29,658,B,55.226193212912605,28.52584442386258,2.7613096606456304,0.4480829163972602,B,1581,Correct
1,relearn,29,659,B,31.689564843846362,12.487452143684642,1.5844782421923183,0.19615243958326892,B,1111,Correct
1,relearn,29,660,A,29.437573217573146,44.13321326969817,1.4718786608786574,0.6932428929369767,A,1331,Correct
1,relearn,29,661,B,62.23697751682828,45.2650915146987,3.111848875841414,0.7110223948332357,B,2484,Correct
1,relearn,29,662,B,50.10968950448708,41.17430350365942,2.505484475224354,0.6467644470188645,B,1215,Correct
1,relearn,29,663,A,14.346341594016707,31.33082593821551,0.7173170797008354,0.49214346299199196,A,531,Correct
1,relearn,29,664,A,23.411357301958514,50.16993952786606,1.1705678650979257,0.7880675672589409,A,575,Correct
1,relearn,29,665,B,64.36236118803572,33.022127870652696,3.218118059401786,0.5187103716217263,B,651,Correct
1,relearn,29,666,B,87.62614791134585,64.60542981208195,4.381307395567293,1.0148197183982384,B,590,Correct
1,relearn,29,667,B,46.393065063291914,38.52408728787225,2.3196532531645957,0.605134948049157,A,1502,Incorrect
1,relearn,29,668,A,37.544790988565,53.72276894342514,1.87723954942825,0.8438752812158314,A,1173,Correct
1,relearn,29,669,A,43.49097476378583,63.818102253447364,2.1745487381892916,1.0024524060273623,B,3135,Incorrect
1,relearn,29,670,A,30.598198474676153,39.51918749039876,1.5299099237338079,0.6207659454783719,A,4735,Correct
1,relearn,29,671,A,33.26127622278109,51.93459867062188,1.6630638111390545,0.8157867682537999,A,715,Correct
1,relearn,29,672,A,28.95296757055035,54.44478407717545,1.4476483785275176,0.8552166684156847,A,649,Correct
1,relearn,29,673,A,25.906906311719652,48.98381965930843,1.2953453155859824,0.7694360399322534,A,498,Correct
1,relearn,29,674,A,56.11442618325777,70.39766888280127,2.8057213091628888,1.1058039969602762,B,884,Incorrect
1,relearn,29,675,B,45.28691330547284,22.757839065455233,2.264345665273642,0.3574793000980649,B,2972,Correct
1,relearn,29,676,A,53.613042429872685,72.69129579488529,2.6806521214936345,1.1418322042456714,A,904,Correct
1,relearn,29,677,B,66.40976588412904,56.69077466203573,3.320488294206452,0.8904966060228293,B,1595,Correct
1,relearn,29,678,A,26.61924994297489,46.527561345537706,1.3309624971487444,0.7308532245629483,A,863,Correct
1,relearn,29,679,B,46.796696437695104,25.00074675538439,2.3398348218847556,0.3927108117048723,B,963,Correct
1,relearn,29,680,B,53.00272501430082,23.792226999339363,2.6501362507150414,0.3737274277683263,B,742,Correct
1,relearn,29,681,B,57.45252716835628,35.749540535596594,2.872626358417814,0.5615524695792039,B,548,Correct
1,relearn,29,682,B,63.39183156990742,54.770029971192386,3.1695915784953708,0.8603256189719539,B,516,Correct
1,relearn,29,683,B,77.38571002461194,60.188467646033416,3.869285501230597,0.9454382389380276,B,712,Correct
1,relearn,29,684,A,58.71707145073865,70.74743439661422,2.9358535725369324,1.1112981008036453,B,563,Incorrect
1,relearn,29,685,B,49.05861754268825,22.527206611496972,2.4529308771344125,0.3538565339828916,A,1429,Incorrect
1,relearn,29,686,A,25.94208465627994,53.673401379009455,1.297104232813997,0.8430998173273618,A,601,Correct
1,relearn,29,687,A,58.29028582072961,71.08353824088705,2.9145142910364803,1.1165776076436995,A,643,Correct
1,relearn,29,688,B,48.124259619262546,18.435619468276133,2.406212980963127,0.28958603342956635,A,1135,Incorrect
1,relearn,29,689,A,53.99623989796017,61.410686736377805,2.699811994898009,0.9646368115145434,A,695,Correct
1,relearn,29,690,B,31.99622970100071,12.799308724761882,1.5998114850500356,0.2010510713036984,B,1599,Correct
1,relearn,29,691,B,84.5922493563463,65.75808576943537,4.229612467817315,1.0329255958369283,B,1408,Correct
1,relearn,29,692,A,33.561407655366516,54.83272992953601,1.6780703827683257,0.8613105076145177,A,764,Correct
1,relearn,29,693,A,37.6488019347916,56.36172633177289,1.88244009673958,0.8853279269376807,A,709,Correct
1,relearn,29,694,A,10.905770656900831,35.458406147814486,0.5452885328450415,0.5569793413098858,A,517,Correct
1,relearn,29,695,B,77.56384296972547,57.24420207786136,3.8781921484862734,0.899189823542094,B,647,Correct
1,relearn,29,696,B,67.94519662167694,36.199251254715506,3.397259831083847,0.5686165090363267,B,583,Correct
1,relearn,29,697,B,61.57044362571341,45.298903553422385,3.078522181285671,0.7115535130955217,B,605,Correct
1,relearn,29,698,B,38.972605611041764,14.303444945411556,1.948630280552088,0.224677987807655,A,836,Incorrect
1,relearn,29,699,B,47.22668943876472,22.651325214357446,2.361334471938236,0.35580618443749307,B,2109,Correct
1,relearn,29,700,A,31.441593594915144,41.62909187519619,1.5720796797457572,0.6539082460536545,A,1213,Correct
1,relearn,29,701,B,44.02400469189867,32.90833628156936,2.2012002345949333,0.5169229375202038,B,590,Correct
1,relearn,29,702,A,49.850650095514084,65.5306174117821,2.492532504775704,1.0293525312302902,A,718,Correct
1,relearn,29,703,A,36.25433100224216,66.74476334720674,1.812716550112108,1.0484242909858699,A,771,Correct
1,relearn,29,704,A,48.667898312129196,67.28449128111157,2.43339491560646,1.056902317546333,B,735,Incorrect
1,relearn,29,705,B,34.325483328336354,17.62533176344563,1.7162741664168177,0.2768580639256181,A,1192,Incorrect
1,relearn,29,706,A,45.28543797801521,52.18266787780421,2.2642718989007604,0.819683430248129,A,879,Correct
1,relearn,29,707,A,59.65639848662899,76.80453633240832,2.9828199243314493,1.2064428355213215,B,1205,Incorrect
1,relearn,29,708,A,43.05629144909982,58.718618043049695,2.152814572454991,0.9223498953649502,A,1152,Correct
1,relearn,29,709,A,61.202946463643144,86.73783726512977,3.0601473231821568,1.3624747617019932,B,1892,Incorrect
1,relearn,29,710,B,52.90658590102798,36.31323075486217,2.645329295051399,0.5704068948379295,A,707,Incorrect
1,relearn,29,711,A,42.64332104283924,52.99463145314445,2.132166052141962,0.832437724264486,A,4150,Correct
1,relearn,29,712,B,83.05570561729562,62.30473736528921,4.152785280864781,0.9786805259531703,B,853,Correct
1,relearn,29,713,B,72.20586839653502,40.026469645874606,3.6102934198267516,0.6287343149430726,B,577,Correct
1,relearn,29,714,B,47.58746931773833,31.62935409383571,2.379373465886917,0.49683273229492253,A,661,Incorrect
1,relearn,29,715,B,80.9766659138524,65.85444121808331,4.04883329569262,1.0344391436849572,B,1127,Correct
1,relearn,29,716,B,64.00949310770694,49.17786925715439,3.200474655385347,0.772484163887378,B,717,Correct
1,relearn,29,717,A,22.91415235559973,44.22977258615636,1.1457076177799863,0.6947596431330801,A,816,Correct
1,relearn,29,718,B,57.7864036500217,33.788564803970935,2.889320182501085,0.5307495348174887,B,714,Correct
1,relearn,29,719,A,53.116605799349585,60.466096438837255,2.6558302899674793,0.9497992218175153,B,696,Incorrect
1,relearn,29,720,B,69.27656685495901,36.972294119839255,3.463828342747951,0.5807594379662405,B,559,Correct
1,relearn,29,721,B,72.83801659459282,55.0096983742658,3.641900829729641,0.8640903214439193,A,784,Incorrect
1,relearn,29,722,A,43.04313906586776,71.36627086611583,2.152156953293388,1.1210187613354439,A,741,Correct
1,relearn,29,723,B,55.308354487050664,31.150999226046764,2.7654177243525333,0.4893187516026493,B,875,Correct
1,relearn,29,724,B,50.99773423253527,36.60125600116669,2.5498867116267636,0.5749311848271231,A,1487,Incorrect
1,relearn,29,725,B,47.96631292568846,30.825961914211486,2.398315646284423,0.4842130774476278,A,800,Incorrect
1,relearn,29,726,B,54.997308755555835,47.43218970814431,2.7498654377777916,0.7450630936539177,B,853,Correct
1,relearn,29,727,B,44.89947381379629,20.497372488802412,2.2449736906898146,0.321971974143576,B,627,Correct
1,relearn,29,728,A,12.220676122593282,32.581777647848085,0.6110338061296641,0.5117933664968783,A,628,Correct
1,relearn,29,729,B,39.8636238852384,28.392153167871122,1.9931811942619198,0.44598289905890043,B,668,Correct
1,relearn,29,730,A,44.28321716772714,61.59345204967744,2.214160858386357,0.9675076823425092,A,766,Correct
1,relearn,29,731,A,53.171099228597235,81.13956162288542,2.6585549614298616,1.2745372535497657,A,820,Correct
1,relearn,29,732,B,47.39395535543271,33.5722924180423,2.369697767771635,0.52735233612345,B,584,Correct
1,relearn,29,733,A,56.77071074983458,80.79595030845367,2.8385355374917287,1.26913981964422,A,731,Correct
1,relearn,29,734,B,47.46826543052536,29.78538879494358,2.3734132715262684,0.46786779311255244,B,509,Correct
1,relearn,29,735,A,31.07914538810376,55.91701438012554,1.5539572694051882,0.8783424079363861,A,466,Correct
1,relearn,29,736,B,67.73974294770245,37.864050781085204,3.3869871473851223,0.5947671188450407,B,579,Correct
1,relearn,29,737,A,39.00744776262328,57.94052251702312,1.950372388131164,0.9101275994231689,A,733,Correct
1,relearn,29,738,B,76.77601125416024,52.87831892806519,3.838800562708012,0.8306106913929386,A,970,Incorrect
1,relearn,29,739,A,50.77772548721377,73.07336391294862,2.5388862743606886,1.1478337162100645,A,625,Correct
1,relearn,29,740,A,52.65517083466968,60.56695561840769,2.6327585417334842,0.9513835141054432,A,1271,Correct
1,relearn,29,741,B,78.21642932604198,49.230514123796496,3.9108214663020986,0.7733111075188381,B,608,Correct
1,relearn,29,742,A,26.45690377038919,50.448312461797286,1.3228451885194596,0.792440239079924,A,554,Correct
1,relearn,29,743,A,34.20637313200558,65.66175154329063,1.710318656600279,1.0314123813512006,A,745,Correct
1,relearn,29,744,B,83.57941608579242,69.15782044898756,4.178970804289621,1.0863285033041064,B,450,Correct
1,relearn,29,745,B,85.76360455881806,69.86736479752103,4.288180227940903,1.097473999867851,B,606,Correct
1,relearn,29,746,B,54.36541339400614,34.6702606519668,2.718270669700307,0.5445991808113108,B,1612,Correct
1,relearn,29,747,B,64.41984275271099,43.777920681443014,3.22099213763555,0.6876619700112901,B,1465,Correct
1,relearn,29,748,B,60.02681397781006,46.714259812671685,3.001340698890503,0.7337858772268714,B,680,Correct
1,relearn,29,749,A,45.35235088353217,72.35740923580784,2.267617544176608,1.1365875264400205,A,581,Correct
1,relearn,29,750,B,55.666892012159686,46.68781973298468,2.7833446006079843,0.7333705574263462,A,639,Incorrect
1,relearn,29,751,B,77.71837483273717,45.4490575872807,3.8859187416368584,0.7139121271439025,B,728,Correct
1,relearn,29,752,A,42.986694923336906,64.69218098453976,2.1493347461668453,1.0161824026286572,A,802,Correct
1,relearn,29,753,B,40.732596962965424,23.498178301419813,2.036629848148271,0.36910852162241786,B,1341,Correct
1,relearn,29,754,A,11.40167291172581,33.565891663979315,0.5700836455862905,0.5272517933137414,A,633,Correct
1,relearn,29,755,B,45.135797664064754,25.515943442322765,2.2567898832032376,0.4008035023390692,B,1059,Correct
1,relearn,29,756,B,62.62964816725717,44.36550439202658,3.1314824083628587,0.6968917133539821,B,1298,Correct
1,relearn,29,757,A,45.07384081878896,72.47773134754631,2.253692040939448,1.1384775417515307,A,809,Correct
1,relearn,29,758,A,40.487785206286254,47.80962134563099,2.0243892603143125,0.7509917759517203,A,1138,Correct
1,relearn,29,759,B,46.25678143600796,32.80277400633341,2.3128390718003984,0.5152647691783163,A,1445,Incorrect
1,relearn,29,760,B,71.09994377707989,55.485744365417716,3.5549971888539944,0.8715680343867879,B,1002,Correct
1,relearn,29,761,B,76.89353320233087,65.87534289991575,3.844676660116544,1.0347674665354194,B,645,Correct
1,relearn,29,762,A,49.03193441630157,73.8545739859768,2.451596720815078,1.1601049353417427,A,806,Correct
1,relearn,29,763,A,33.76812150459222,49.29271691796225,1.688406075229611,0.7742881867247575,A,622,Correct
1,relearn,29,764,A,18.93626001403477,44.84462877837913,0.9468130007017385,0.7044177816155865,A,2138,Correct
1,relearn,29,765,A,11.075425690237026,30.90370944243646,0.5537712845118513,0.48543433276515946,A,1532,Correct
1,relearn,29,766,B,55.14271994251772,47.71140646383533,2.757135997125886,0.7494490201961084,B,911,Correct
1,relearn,29,767,B,49.4351607248154,18.90997981267701,2.47175803624077,0.29703726829518684,B,736,Correct
1,relearn,29,768,B,40.997679910452874,15.389989805327172,2.0498839955226433,0.2417453945561883,B,648,Correct
1,relearn,29,769,A,47.561608818542275,58.52899657540682,2.3780804409271137,0.9193713283164012,B,775,Incorrect
1,relearn,29,770,A,62.447123056700406,78.37573785908666,3.1223561528350205,1.23112321138893,B,730,Incorrect
1,relearn,29,771,B,76.00466472687413,59.56982715509021,3.8002332363437064,0.9357206568302259,B,684,Correct
1,relearn,29,772,B,73.06283659781313,63.46265329057985,3.653141829890657,0.9968690267750088,B,1021,Correct
1,relearn,29,773,A,36.59505926728235,47.19138336425302,1.8297529633641176,0.7412805164493843,A,605,Correct
1,relearn,29,774,B,38.61914177163858,27.64463751291077,1.930957088581929,0.43424095060856643,A,834,Incorrect
1,relearn,29,775,B,78.72122753016097,65.50631404551751,3.9360613765080483,1.0289707748457184,B,556,Correct
1,relearn,29,776,A,33.366398653533125,48.568618128693615,1.668319932676656,0.7629140695405596,A,547,Correct
1,relearn,29,777,B,80.82864664315935,66.56507630382772,4.041432332157967,1.045601773508746,B,678,Correct
1,relearn,29,778,B,35.45428566128804,24.11360521537145,1.772714283064402,0.37877562498087736,A,566,Incorrect
1,relearn,29,779,A,18.431694908471318,35.21579253709211,0.9215847454235658,0.5531683756243542,A,681,Correct
1,relearn,29,780,A,51.364912322510875,77.31079303292296,2.5682456161255436,1.2143950971771589,B,882,Incorrect
1,relearn,29,781,B,61.555313867842905,46.50320276426215,3.0777656933921453,0.7304706008630126,B,575,Correct
1,relearn,29,782,B,51.00375454585456,25.870071745333224,2.5501877272927285,0.4063661367148987,B,1203,Correct
1,relearn,29,783,B,59.17614061036099,32.670665820448065,2.9588070305180496,0.513189618647034,B,504,Correct
1,relearn,29,784,B,52.897797359397075,30.47749742522823,2.644889867969854,0.4787394100544942,B,472,Correct
1,relearn,29,785,B,38.38902590961139,24.319707745806756,1.9194512954805696,0.3820130759583865,A,422,Incorrect
1,relearn,29,786,A,43.59507425302944,64.81698124290489,2.179753712651472,1.018142760502887,A,1167,Correct
1,relearn,29,787,B,39.190047465120216,15.119297753535381,1.9595023732560108,0.2374933737497171,B,755,Correct
1,relearn,29,788,B,37.34220689453946,23.40258183775596,1.867110344726973,0.3676068958826403,B,591,Correct
1,relearn,29,789,B,59.121848393415505,52.11531737814957,2.9560924196707754,0.8186254910734757,B,648,Correct
1,relearn,29,790,A,26.485291167727382,40.33608523379785,1.324264558386369,0.6335977452253554,A,797,Correct
1,relearn,29,791,B,42.25066898787868,28.454393718433337,2.112533449393934,0.4469605713409086,A,901,Incorrect
1,relearn,29,792,B,43.439156524135626,33.1123267976468,2.171957826206781,0.5201272130537582,B,578,Correct
1,relearn,29,793,B,46.00921792611484,25.736850271261318,2.3004608963057422,0.4042734986936751,B,476,Correct
1,relearn,29,794,B,79.40205069424708,54.74255033273014,3.9701025347123537,0.8598939698203724,B,600,Correct
1,relearn,29,795,B,35.963468528176556,22.389917298979732,1.7981734264088276,0.3516999985047888,A,719,Incorrect
1,relearn,29,796,A,50.00218764319945,64.45454846110776,2.5001093821599722,1.0124496796793172,B,662,Incorrect
1,relearn,29,797,B,37.76248060108616,17.54301553731827,1.888124030054308,0.27556504366925333,A,1170,Incorrect
1,relearn,29,798,A,48.155110460631846,59.49336453950732,2.407755523031592,0.9345195848732785,B,731,Incorrect
1,relearn,29,799,B,48.52245490877301,33.042445313726404,2.4261227454386503,0.5190295172712268,B,1547,Correct
1,relearn,29,800,A,20.67891330877545,46.1561356627744,1.0339456654387724,0.7250188835813296,A,639,Correct
1,relearn,29,801,B,57.45345729601803,37.405416545838364,2.8726728648009017,0.5875629091243595,B,790,Correct
1,relearn,29,802,B,37.79023541048707,13.26238494594946,1.8895117705243536,0.20832505557637346,A,651,Incorrect
1,relearn,29,803,A,53.66195933039374,62.39545250568029,2.6830979665196875,0.9801054760462803,B,873,Incorrect
1,relearn,29,804,A,63.48139246876222,79.54327148439587,3.174069623438111,1.2494627866893826,B,719,Incorrect
1,relearn,29,805,B,80.69439450257288,49.58434192739771,4.034719725128644,0.778869021660985,B,678,Correct
1,relearn,29,806,A,57.4108890503295,69.2802440399252,2.870544452516475,1.0882515285736851,A,782,Correct
1,relearn,29,807,B,58.80783075719416,31.603657149401187,2.9403915378597083,0.4964290856356465,B,1107,Correct
1,relearn,29,808,A,46.85315281045715,59.70223520675412,2.3426576405228574,0.9378005176421433,A,670,Correct
1,relearn,29,809,B,31.637036169632026,17.379790344769503,1.5818518084816013,0.27300110834029345,A,473,Incorrect
1,relearn,29,810,A,34.85919431548731,67.32964849955341,1.7429597157743655,1.0576116454749,A,719,Correct
1,relearn,29,811,B,48.21321532309094,40.687353569967094,2.410660766154547,0.6391154553470954,B,2659,Correct
1,relearn,29,812,A,24.546314321732222,41.556287351640464,1.227315716086611,0.6527646352719007,A,1016,Correct
1,relearn,29,813,B,61.27236338577404,47.105594632983525,3.063618169288702,0.7399329502097992,B,795,Correct
1,relearn,29,814,A,50.54232854588472,57.51101940507399,2.527116427294236,0.9033809803172024,B,753,Incorrect
1,relearn,29,815,B,59.57922543155572,51.56663493586031,2.978961271577786,0.8100068074242275,B,597,Correct
1,relearn,29,816,B,67.552909776382,36.30753750340184,3.3776454888190997,0.5703174654531156,B,477,Correct
1,relearn,29,817,A,47.87848453198614,73.3331996761625,2.393924226599307,1.1519152068343275,A,1113,Correct
1,relearn,29,818,B,72.70298072850737,49.56020718762833,3.6351490364253687,0.7784899140552061,B,408,Correct
1,relearn,29,819,A,20.513856826815697,37.509357959824115,1.0256928413407849,0.5891956170372664,A,590,Correct
1,relearn,29,820,A,34.33387906057548,64.72687212736895,1.7166939530287737,1.0167273298259412,A,786,Correct
1,relearn,29,821,A,36.76022433370586,48.361899259919284,1.8380112166852927,0.7596669371430603,B,540,Incorrect
1,relearn,29,822,B,50.21182985546295,25.042321921856193,2.5105914927731474,0.3933638728926702,B,586,Correct
1,relearn,29,823,B,70.39057768951652,45.287040178741144,3.519528884475826,0.711367163641795,B,608,Correct
1,relearn,29,824,A,57.09091642485348,80.38925000302852,2.854545821242674,1.2627513861855384,A,740,Correct
1,relearn,29,825,A,35.92620773438047,56.048692885695594,1.7963103867190233,0.880410809065059,A,564,Correct
1,relearn,29,826,B,36.222935481565585,19.8708887301564,1.8111467740782792,0.31213119027479774,B,632,Correct
1,relearn,29,827,B,62.333952973654576,37.744654875134195,3.1166976486827287,0.5928916523400188,B,508,Correct
1,relearn,29,828,B,64.07277509313236,44.54868311638305,3.203638754656618,0.6997690780276432,B,555,Correct
1,relearn,29,829,B,57.22894710212086,32.51050751827656,2.8614473551060433,0.510673857919467,B,382,Correct
1,relearn,29,830,B,32.1036512145634,13.563959469036828,1.60518256072817,0.21306217710757905,A,533,Incorrect
1,relearn,29,831,A,51.95688572776108,79.70346916822888,2.5978442863880544,1.251979166022642,B,543,Incorrect
1,relearn,29,832,A,42.52519061617261,70.96308474030037,2.1262595308086305,1.114685528480988,B,485,Incorrect
1,relearn,29,833,B,72.88944633256122,43.12280626616882,3.6444723166280606,0.6773714568398593,B,589,Correct
1,relearn,29,834,B,40.99089578377895,21.12568708779882,2.049544789188948,0.33184151678532764,A,492,Incorrect
1,relearn,29,835,B,33.59551488623142,14.558223352839136,1.679775744311571,0.22868003767299397,B,1802,Correct
1,relearn,29,836,B,51.72527435599913,30.231849514297295,2.586263717799957,0.47488078169274267,B,1076,Correct
1,relearn,29,837,A,43.483411741100454,74.50146033317871,2.1741705870550225,1.1702662023221282,A,1096,Correct
1,relearn,29,838,B,38.556610326682446,27.474541986681135,1.9278305163341225,0.4315690963305089,B,1289,Correct
1,relearn,29,839,A,41.76824174939491,71.75509883967754,2.0884120874697456,1.127126456861702,A,628,Correct
1,relearn,29,840,B,63.36701704275102,43.53812518085916,3.1683508521375514,0.6838952710962997,B,679,Correct
1,relearn,29,841,A,46.78625128287968,64.89149003600849,2.339312564143984,1.0193131418880976,A,761,Correct
1,relearn,29,842,B,53.103515800978826,26.814565702962767,2.655175790048941,0.4212022131081433,B,671,Correct
1,relearn,29,843,B,80.24563267609786,65.69360715982451,4.012281633804893,1.0319127682055924,B,576,Correct
1,relearn,29,844,A,15.96926180958517,36.78477609871606,0.7984630904792585,0.5778139117783588,A,458,Correct
1,relearn,29,845,A,23.605473796947184,42.130711320653035,1.1802736898473591,0.6617876658773796,A,605,Correct
1,relearn,29,846,A,26.490368979772082,55.419012186945665,1.324518448988604,0.8705198077785586,A,447,Correct
1,relearn,29,847,B,52.332365090035,41.65350174999204,2.6166182545017502,0.6542916754703229,B,612,Correct
1,relearn,29,848,B,65.10835109206933,38.18143522266008,3.2554175546034663,0.5997525819951174,B,497,Correct
1,relearn,29,849,A,19.266030894383928,33.64016543788743,0.9633015447191964,0.5284184830260621,A,562,Correct
1,relearn,29,850,A,61.705634166519154,86.59344420322968,3.0852817083259576,1.3602066407895201,B,581,Incorrect
1,relearn,29,851,B,77.85851194924511,51.14507108689142,3.8929255974622556,0.8033848979695292,B,561,Correct
1,relearn,29,852,A,67.69638207294734,86.20696353607643,3.3848191036473674,1.3541358166661044,A,650,Correct
1,relearn,29,853,A,28.136155767398257,54.03717285718174,1.406807788369913,0.8488139263444197,A,1130,Correct
1,relearn,29,854,B,42.17807420043404,23.557769693631375,2.1089037100217016,0.37004458102236304,B,719,Correct
1,relearn,29,855,B,33.14904714462483,20.759835872343672,1.6574523572312416,0.3260947393314237,A,848,Incorrect
1,relearn,29,856,A,24.389237310148566,38.40741368355765,1.2194618655074283,0.6033022433582441,A,662,Correct
1,relearn,29,857,B,42.02960140609531,27.93435460910118,2.1014800703047656,0.4387918161136222,B,1288,Correct
1,relearn,29,858,A,45.314680088997285,72.29330258017083,2.265734004449864,1.1355805414480435,B,1821,Incorrect
1,relearn,29,859,A,35.92245545346736,45.93306324637597,1.796122772673368,0.7215148702584503,A,680,Correct
1,relearn,29,860,A,54.35813448635619,69.29669948969658,2.71790672431781,1.0885100101742518,B,717,Incorrect
1,relearn,29,861,A,26.14557231003351,39.57540234050265,1.3072786155016756,0.6216489662789171,A,1009,Correct
1,relearn,29,862,B,50.21616289117035,28.18463577694048,2.5108081445585175,0.44272322350470134,B,592,Correct
1,relearn,29,863,A,33.23601920533156,58.71379397093744,1.661800960266578,0.9222741190174087,A,735,Correct
1,relearn,29,864,B,36.41500066222073,25.281018204193593,1.8207500331110364,0.397113305327822,A,562,Incorrect
1,relearn,29,865,B,79.53626884782167,52.97971676435883,3.976813442391084,0.8322034448808885,B,615,Correct
1,relearn,29,866,A,60.774791292812964,71.93075955418193,3.038739564640648,1.1298857289127588,B,436,Incorrect
1,relearn,29,867,A,61.61063801577469,74.21398305156386,3.0805319007887344,1.1657505197421523,A,969,Correct
1,relearn,29,868,B,60.56739388627265,36.04317317133137,3.0283696943136325,0.5661648402355968,B,561,Correct
1,relearn,29,869,B,48.36697575748517,29.005308231288907,2.4183487878742587,0.45561431627262394,A,694,Incorrect
1,relearn,29,870,B,81.33147216095733,53.59898779190665,4.066573608047866,0.8419309314345147,B,524,Correct
1,relearn,29,871,B,33.35905953942708,12.723137535120099,1.667952976971354,0.19985457705472925,B,906,Correct
1,relearn,29,872,A,35.82343920713931,46.783346270647,1.7911719603569654,0.7348710847710603,A,1404,Correct
1,relearn,29,873,B,64.07803265226421,50.79707563541838,3.2039016326132104,0.7979185982003774,B,594,Correct
1,relearn,29,874,B,38.57812714210887,12.421372691744676,1.9289063571054437,0.1951144659794297,A,753,Incorrect
1,relearn,29,875,A,63.17126043448423,81.24773256924556,3.1585630217242118,1.2762363988018501,B,1272,Incorrect
1,relearn,29,876,B,53.52284139879395,23.400296387225403,2.676142069939697,0.3675709961096555,B,710,Correct
1,relearn,29,877,B,71.21866348292272,48.55910532434845,3.5609331741461356,0.7627646427593305,B,679,Correct
1,relearn,29,878,A,56.82364655963531,85.42098165789741,2.8411823279817656,1.341789642194395,A,1093,Correct
1,relearn,29,879,B,48.29352595807706,41.26961501614214,2.414676297903853,0.6482615967559557,A,1252,Incorrect
1,relearn,29,880,A,35.95189552386742,45.95658434762471,1.797594776193371,0.7218843388528874,B,1898,Incorrect
1,relearn,29,881,B,80.32197474426317,52.1985747075312,4.0160987372131585,0.81993329414519,B,700,Correct
1,relearn,29,882,A,48.31663956091516,80.04207059259654,2.4158319780457584,1.2572979047590847,A,671,Correct
1,relearn,29,883,B,76.98424055070389,45.55573688388951,3.849212027535194,0.7155878416164843,B,619,Correct
1,relearn,29,884,B,87.05399944181022,65.82965090271236,4.352699972090511,1.034049738321709,B,549,Correct
1,relearn,29,885,A,54.6382395696655,80.5945545763177,2.7319119784832755,1.2659763028815068,A,546,Correct
1,relearn,29,886,B,49.00220103916927,22.831989454785532,2.4501100519584638,0.35864405168996927,B,710,Correct
1,relearn,29,887,A,29.782409319217066,62.93244249913782,1.4891204659608532,0.9885404951387673,A,576,Correct
1,relearn,29,888,B,49.42683221348685,36.53127929263719,2.4713416106743424,0.5738319932599296,B,518,Correct
1,relearn,29,889,B,48.82728786784231,20.36080874405212,2.4413643933921154,0.3198268358573048,B,544,Correct
1,relearn,29,890,A,59.58147206280211,77.22588533713845,2.979073603140106,1.2130613702106094,B,586,Incorrect
1,relearn,29,891,B,68.61003045660848,38.10153895494811,3.430501522830424,0.5984975743566514,B,537,Correct
1,relearn,29,892,A,31.37036355486923,49.7978631420945,1.5685181777434616,0.7822230050583702,A,575,Correct
1,relearn,29,893,B,74.28322886541068,58.67616141640241,3.7141614432705343,0.9216829882330934,B,529,Correct
1,relearn,29,894,A,54.95285529576026,70.91142618201599,2.7476427647880133,1.1138740777449818,B,475,Incorrect
1,relearn,29,895,A,19.376753153762518,50.48506060999914,0.9688376576881259,0.7930174776420436,A,529,Correct
1,relearn,29,896,B,80.6078940946788,61.526454612198506,4.03039470473394,0.9664552890555433,B,547,Correct
1,relearn,29,897,A,38.67777755356781,67.19217435145595,1.9338888776783905,1.0554522066062926,A,885,Correct
1,relearn,29,898,A,53.35342754446483,75.41223734334375,2.6676713772232414,1.1845726541430928,B,738,Incorrect
