experiment,condition,subject,trial,cat,x,y,xt,yt,resp,rt,fb
1,relearn,5,0,B,43.77629688490339,27.89152750326639,2.1888148442451696,0.43811908950829676,B,5927,Correct
1,relearn,5,1,B,85.43353776110591,64.32606353319166,4.271676888055295,1.010431443151126,B,717,Correct
1,relearn,5,2,B,67.55028545361347,40.25175894205269,3.3775142726806733,0.6322731509320999,B,739,Correct
1,relearn,5,3,A,41.15339986836688,66.8260329165117,2.0576699934183442,1.0497008703953143,B,933,Incorrect
1,relearn,5,4,B,74.8580137511423,51.10832914093603,3.7429006875571145,0.8028077568320687,B,534,Correct
1,relearn,5,5,B,58.435424607253275,50.37231207886205,2.9217712303626637,0.7912464278564271,B,797,Correct
1,relearn,5,6,A,47.48449916754589,68.71568851077474,2.3742249583772947,1.0793835110590724,A,1184,Correct
1,relearn,5,7,A,29.51698900154245,56.247824220752996,1.4758494500771224,0.8835387567616383,A,711,Correct
1,relearn,5,8,A,51.188153481046534,68.68823069412069,2.5594076740523266,1.0789522046836524,A,953,Correct
1,relearn,5,9,B,53.35727021867244,27.543756740408384,2.667863510933622,0.43265631913965663,B,603,Correct
1,relearn,5,10,A,61.095342308697326,79.79783465436486,3.0547671154348666,1.2534614556126285,B,576,Incorrect
1,relearn,5,11,B,63.5158801656904,38.225384318207304,3.17579400828452,0.6004429327736328,B,733,Correct
1,relearn,5,12,B,60.98294319658332,38.18102155346068,3.0491471598291664,0.5997460840945281,B,1308,Correct
1,relearn,5,13,B,88.10814432375969,66.59366809629451,4.405407216187984,1.046050892334579,B,920,Correct
1,relearn,5,14,B,51.79177868394342,40.87072137480536,2.589588934197171,0.6419957900900192,A,846,Incorrect
1,relearn,5,15,A,59.75759818341028,68.26497803222964,2.987879909170514,1.0723037674176061,B,1294,Incorrect
1,relearn,5,16,A,51.40987909070661,64.89247013031722,2.5704939545353307,1.0193285371734984,A,2090,Correct
1,relearn,5,17,B,79.28948254585157,60.30593853926119,3.9644741272925783,0.9472834674139027,B,759,Correct
1,relearn,5,18,B,52.02667443392599,42.701501843270705,2.6013337216963,0.6707536224403513,B,673,Correct
1,relearn,5,19,A,32.19214471995111,56.053285688579635,1.6096072359975553,0.8804829526440584,A,824,Correct
1,relearn,5,20,A,37.49947664944588,65.60531836124066,1.874973832472294,1.0305259310004662,A,549,Correct
1,relearn,5,21,B,76.74706743421731,57.73435791468624,3.837353371710866,0.9068891734225102,B,767,Correct
1,relearn,5,22,B,47.20528744133733,38.716232126331704,2.3602643720668666,0.608153152113804,B,927,Correct
1,relearn,5,23,A,62.18887887608251,84.21388323428768,3.1094439438041257,1.3228285844955343,B,926,Incorrect
1,relearn,5,24,A,52.81842378919597,77.40418264957536,2.6409211894597986,1.2158620578451425,A,1760,Correct
1,relearn,5,25,B,88.3634955503866,64.01138231975378,4.418174777519329,1.0054884422093302,B,1393,Correct
1,relearn,5,26,B,46.347870307548845,31.816375900502173,2.317393515377442,0.4997704639643449,A,795,Incorrect
1,relearn,5,27,A,62.872050493205165,85.38483227002472,3.1436025246602584,1.3412218089375316,B,604,Incorrect
1,relearn,5,28,B,38.844126807242496,15.263651957554309,1.9422063403621248,0.2397608842840204,A,1937,Incorrect
1,relearn,5,29,B,38.77534849494369,21.93442110442671,1.9387674247471847,0.34454508101205933,A,1789,Incorrect
1,relearn,5,30,B,38.006602063652835,22.058920682772776,1.9003301031826418,0.34650071581559444,B,814,Correct
1,relearn,5,31,B,66.73468954694701,34.08438448806502,3.336734477347351,0.5353962595491749,B,902,Correct
1,relearn,5,32,A,39.008282111034006,51.56056519792973,1.9504141055517004,0.8099114642037681,A,1062,Correct
1,relearn,5,33,B,54.19806212148651,36.724379437063305,2.7099031060743255,0.5768652032356107,B,632,Correct
1,relearn,5,34,B,53.154952852290315,33.637289875381875,2.657747642614516,0.5283733137958501,B,649,Correct
1,relearn,5,35,A,29.42199918571327,59.09559729607535,1.4710999592856635,0.9282714716242556,A,669,Correct
1,relearn,5,36,B,55.0909539710917,37.99899914599816,2.754547698554585,0.5968868828041631,B,1132,Correct
1,relearn,5,37,A,50.204846626020576,81.38232762675837,2.5102423313010287,1.278350613021309,A,1438,Correct
1,relearn,5,38,B,86.74922586514934,62.585087089121956,4.337461293257467,0.9830842491173146,B,658,Correct
1,relearn,5,39,B,61.261518391172814,29.39610767124551,3.0630759195586403,0.4617529795205973,B,616,Correct
1,relearn,5,40,A,43.412975588590825,75.67325516794064,2.1706487794295413,1.1886727125441405,A,1207,Correct
1,relearn,5,41,A,18.854058569920902,36.87947144017449,0.9427029284960452,0.5793013827236339,A,859,Correct
1,relearn,5,42,A,56.73109854008087,84.43877075337392,2.8365549270040433,1.3263611093847607,B,706,Incorrect
1,relearn,5,43,A,26.3194096956285,52.15323723351614,1.315970484781425,0.8192211347686998,A,779,Correct
1,relearn,5,44,A,45.659827280438186,68.01723214473392,2.282991364021909,1.0684121841170382,A,1309,Correct
1,relearn,5,45,B,42.29941133154324,20.097171970222146,2.114970566577162,0.315685639097903,A,1100,Incorrect
1,relearn,5,46,B,57.193543993801,32.72656625999396,2.85967719969005,0.514067700698083,B,389,Correct
1,relearn,5,47,B,35.95108925118178,16.976413503170953,1.7975544625590887,0.2666648797293221,A,1546,Incorrect
1,relearn,5,48,B,36.51032453070948,14.287992349745931,1.825516226535474,0.22443525900254488,B,1778,Correct
1,relearn,5,49,B,40.37221666449227,13.513991537516322,2.0186108332246135,0.2122772826746796,A,1377,Incorrect
1,relearn,5,50,B,72.22580862960693,43.23153014896677,3.611290431480347,0.6790792875971984,B,555,Correct
1,relearn,5,51,B,73.82416880800056,59.6537539023732,3.691208440400028,0.9370389750937455,B,866,Correct
1,relearn,5,52,B,40.803911508075004,25.76386104206488,2.04019557540375,0.40469778288929653,A,1876,Incorrect
1,relearn,5,53,A,35.74329215715585,52.498613288652344,1.7871646078577925,0.8246462891564084,A,1502,Correct
1,relearn,5,54,A,36.1123746383262,51.58946433931956,1.8056187319163102,0.8103654108551948,A,1057,Correct
1,relearn,5,55,A,37.8023211377731,60.31727268352051,1.890116056888655,0.9474615037356017,A,1070,Correct
1,relearn,5,56,A,41.52036136121373,49.03708306525234,2.0760180680606863,0.770272699556346,A,1024,Correct
1,relearn,5,57,A,67.36183392982532,80.04241820139555,3.368091696491266,1.257303364985331,B,1796,Incorrect
1,relearn,5,58,B,72.14075025916519,56.81487588463253,3.6070375129582595,0.8924459834688874,B,1164,Correct
1,relearn,5,59,B,87.93243442053087,61.83253766821153,4.396621721026543,0.9712632304563374,B,728,Correct
1,relearn,5,60,B,46.269345360865024,18.6145988346396,2.3134672680432513,0.29239743474212443,A,890,Incorrect
1,relearn,5,61,B,79.99019644962995,53.90854930063879,3.9995098224814973,0.84679351224285,B,582,Correct
1,relearn,5,62,B,56.23950785063032,32.80428410004189,2.811975392531516,0.5152884896748203,B,787,Correct
1,relearn,5,63,A,42.90951144684601,52.27791390765872,2.1454755723423005,0.8211795513865017,A,1693,Correct
1,relearn,5,64,A,53.54419231470146,66.88957403801469,2.6772096157350735,1.0506989719978876,A,3460,Correct
1,relearn,5,65,B,81.06903220336665,56.55207504023236,4.053451610168333,0.8883179174582634,B,668,Correct
1,relearn,5,66,B,57.51501496084632,47.8132859524213,2.875750748042316,0.7510493394605741,A,900,Incorrect
1,relearn,5,67,B,63.28893508452113,38.61403284716026,3.1644467542260566,0.6065478095905681,B,725,Correct
1,relearn,5,68,B,50.833752087668486,27.28082640254648,2.5416876043834242,0.42852621905049243,A,694,Incorrect
1,relearn,5,69,B,66.48904393813358,39.78356125811778,3.324452196906679,0.6249187189107116,B,912,Correct
1,relearn,5,70,B,75.64135883201723,51.68497595047816,3.7820679416008613,0.8118657037349367,A,1523,Incorrect
1,relearn,5,71,B,71.15318046173788,51.65876769663772,3.5576590230868934,0.8114540254462937,B,516,Correct
1,relearn,5,72,B,72.41760076968156,59.174253690113716,3.620880038484078,0.9295070033725998,B,696,Correct
1,relearn,5,73,B,80.50325460829835,60.53571515631525,4.025162730414917,0.9508927900744215,B,515,Correct
1,relearn,5,74,A,34.347979865737834,63.265696119325874,1.7173989932868918,0.9937752307635921,A,820,Correct
1,relearn,5,75,A,44.57740026805199,61.05923749670795,2.228870013402599,0.9591162597672607,A,663,Correct
1,relearn,5,76,A,55.191459666094595,78.05468527114505,2.7595729833047296,1.2260801291304635,A,1631,Correct
1,relearn,5,77,B,52.74614615131814,32.36163710149248,2.6373073075659073,0.5083354068809384,A,773,Incorrect
1,relearn,5,78,B,69.89512760939384,60.48245429638748,3.494756380469692,0.9500561704430567,B,811,Correct
1,relearn,5,79,A,19.12569710396594,48.05387907645778,0.956284855198297,0.7548285674154603,A,666,Correct
1,relearn,5,80,B,58.64482297436612,40.634137681353586,2.932241148718306,0.638279542123483,A,825,Incorrect
1,relearn,5,81,A,31.343273030540885,41.485097301740254,1.5671636515270444,0.6516463845830246,A,1007,Correct
1,relearn,5,82,B,54.39734388444685,31.506299566839026,2.719867194222342,0.4948997963049038,A,1067,Incorrect
1,relearn,5,83,B,38.68343543701076,18.478518674188404,1.9341717718505378,0.29025989258026047,A,690,Incorrect
1,relearn,5,84,A,62.9875929371951,77.96391127284583,3.1493796468597552,1.2246542544994945,B,680,Incorrect
1,relearn,5,85,A,22.97759762144512,43.34942248433462,1.148879881072256,0.6809311360707292,A,550,Correct
1,relearn,5,86,A,55.604577024057384,67.05909362721601,2.7802288512028692,1.0533617794782597,A,1098,Correct
1,relearn,5,87,A,27.78791562572132,51.6446003191565,1.389395781286066,0.8112314848012159,A,750,Correct
1,relearn,5,88,A,20.362256345116563,45.1056786211352,1.0181128172558283,0.7085183429567027,A,772,Correct
1,relearn,5,89,A,33.90850781739173,42.81217922869973,1.6954253908695864,0.6724921387452631,A,1051,Correct
1,relearn,5,90,A,64.31042973370171,74.37535793706277,3.2155214866850854,1.1682853905159385,B,1438,Incorrect
1,relearn,5,91,B,57.10735560797872,30.906522213423735,2.855367780398936,0.4854785156685088,A,849,Incorrect
1,relearn,5,92,A,16.28665744955199,43.40063699793021,0.8143328724775994,0.6817356117690746,A,1003,Correct
1,relearn,5,93,B,49.27706504380493,19.57112419594264,2.4638532521902463,0.30742249998233423,A,1036,Incorrect
1,relearn,5,94,B,74.23677200980443,60.48763085682437,3.7118386004902213,0.9501374836642535,B,777,Correct
1,relearn,5,95,A,43.812344712609026,58.185785587036754,2.190617235630451,0.9139801827179276,A,1009,Correct
1,relearn,5,96,B,72.96038335559899,61.59286236042736,3.6480191677799496,0.9674984195254295,B,841,Correct
1,relearn,5,97,A,36.88060182062909,55.5951195674346,1.8440300910314544,0.8732860960424934,A,850,Correct
1,relearn,5,98,B,38.56930342725033,16.124900808635264,1.9284651713625167,0.2532893496013633,A,1146,Incorrect
1,relearn,5,99,B,81.89878964663089,60.41799971871818,4.094939482331545,0.9490437203045761,B,1456,Correct
1,relearn,5,100,B,49.80343570380487,32.148624342591766,2.4901717851902436,0.5049894102885214,B,1544,Correct
1,relearn,5,101,A,55.34683902501037,67.86998049248137,2.7673419512505184,1.0660991605723105,A,2606,Correct
1,relearn,5,102,A,67.22913767020417,83.81289624728295,3.3614568835102085,1.3165298956327383,B,1283,Incorrect
1,relearn,5,103,A,40.32629418916929,61.59746721339185,2.0163147094584644,0.96757075238665,A,909,Correct
1,relearn,5,104,A,35.43650055205046,58.368457998459775,1.7718250276025231,0.916849594246628,A,856,Correct
1,relearn,5,105,A,61.69670214345068,79.19828883240172,3.084835107172534,1.2440438118637789,A,726,Correct
1,relearn,5,106,B,39.71425791282635,19.973417975677094,1.9857128956413175,0.3137417158973274,A,1195,Incorrect
1,relearn,5,107,B,86.92262101501231,69.77450516137695,4.346131050750615,1.0960153641142247,A,947,Incorrect
1,relearn,5,108,A,42.83862510965078,71.09970379237284,2.1419312554825387,1.1168315355326444,A,1241,Correct
1,relearn,5,109,B,56.017557296132175,36.74810598565999,2.800877864806609,0.5772378989894427,A,1391,Incorrect
1,relearn,5,110,A,50.64840993549127,57.83431953106361,2.5324204967745634,0.9084593668207707,B,641,Incorrect
1,relearn,5,111,B,38.12415643281983,12.822657185762509,1.9062078216409915,0.20141782807145933,A,1183,Incorrect
1,relearn,5,112,A,51.258508949413695,67.54676382611831,2.5629254474706844,1.0610220850494905,A,2064,Correct
1,relearn,5,113,A,49.802986379607944,61.66059959215081,2.4901493189803974,0.9685624334732138,A,931,Correct
1,relearn,5,114,A,62.678328332765616,78.302322673085,3.1339164166382805,1.2299700083439067,A,796,Correct
1,relearn,5,115,A,44.44077903008596,54.09793055933326,2.222038951504298,0.8497683060980605,A,850,Correct
1,relearn,5,116,A,38.66649800209375,49.36330448661509,1.9333249001046877,0.7753969736603303,A,654,Correct
1,relearn,5,117,A,38.91537064431762,52.94196251328772,1.9457685322158809,0.8316104024918546,A,844,Correct
1,relearn,5,118,A,58.70647772187587,74.09329216612865,2.935323886093794,1.1638547117469595,A,620,Correct
1,relearn,5,119,A,61.53212752435792,82.29521094001294,3.076606376217896,1.2926901505738353,A,998,Correct
1,relearn,5,120,A,47.97341255438671,63.096880037119945,2.3986706277193353,0.9911234739452626,A,661,Correct
1,relearn,5,121,B,74.38814553588853,56.9507397481869,3.719407276794426,0.8945801280470409,A,550,Incorrect
1,relearn,5,122,A,57.15213886101549,69.44066057859285,2.8576069430507745,1.0907713456706483,B,775,Incorrect
1,relearn,5,123,A,37.635546808002545,45.77828026152804,1.8817773404001272,0.7190835448179556,A,1618,Correct
1,relearn,5,124,B,74.5333443536628,47.00599665984009,3.72666721768314,0.7383684689060999,B,861,Correct
1,relearn,5,125,A,55.178722147427976,73.29214951289927,2.7589361073713987,1.1512703923776455,A,1266,Correct
1,relearn,5,126,B,57.11676658487889,47.83282288955623,2.855838329243944,0.7513562249514579,B,1422,Correct
1,relearn,5,127,A,36.32991574599579,49.14399901187761,1.8164957872997893,0.7719521313186939,A,998,Correct
1,relearn,5,128,A,63.30456920794232,83.62435759019024,3.1652284603971164,1.3135683373325375,A,1513,Correct
1,relearn,5,129,A,31.407289786961616,45.500131282887565,1.5703644893480808,0.7147143908784537,A,1575,Correct
1,relearn,5,130,A,45.97441080290728,57.10508034342637,2.298720540145364,0.897004504447816,A,752,Correct
1,relearn,5,131,B,74.26493242579338,54.71546420108278,3.713246621289669,0.8594685018593851,B,795,Correct
1,relearn,5,132,A,11.611131546799275,30.954320926453914,0.5805565773399637,0.48622933609704216,A,984,Correct
1,relearn,5,133,B,38.393171155393304,20.717610048522346,1.9196585577696652,0.32543145764187936,A,657,Incorrect
1,relearn,5,134,A,53.552418751825925,71.34323073146494,2.6776209375912963,1.1206568477466592,A,990,Correct
1,relearn,5,135,A,19.627751106133218,36.35918124007295,0.9813875553066609,0.571128683371765,A,871,Correct
1,relearn,5,136,B,44.239649522465825,29.29692486612958,2.211982476123291,0.4601950196610241,A,698,Incorrect
1,relearn,5,137,B,59.23588346268878,30.529378534047847,2.9617941731344395,0.47955435660613327,B,629,Correct
1,relearn,5,138,B,50.59309461499686,40.45013154200901,2.5296547307498427,0.6353891804455813,B,407,Correct
1,relearn,5,139,A,54.401880091872606,80.1334090251689,2.72009400459363,1.2587326455028833,B,585,Incorrect
1,relearn,5,140,B,84.8179131736654,55.03246810359512,4.24089565868327,0.8644479875158453,A,517,Incorrect
1,relearn,5,141,A,44.029133954990435,64.15721620408736,2.201456697749522,1.0077791955076643,A,1145,Correct
1,relearn,5,142,B,55.40726951087265,35.31238605358911,2.7703634755436326,0.5546856630334112,A,706,Incorrect
1,relearn,5,143,A,51.87219863922788,68.5319324148812,2.593609931961394,1.076497077054515,A,682,Correct
1,relearn,5,144,A,17.693759584345607,34.78545241839646,0.8846879792172803,0.5464086088471581,A,640,Correct
1,relearn,5,145,B,45.504465612806996,29.32069882213785,2.2752232806403496,0.46056846008873586,A,669,Incorrect
1,relearn,5,146,B,65.79506778368238,45.49453749294016,3.2897533891841193,0.7146265238314311,107,517,Correct
1,relearn,5,147,A,47.45176844749506,61.97530351035224,2.372588422374753,0.9735057910606016,B,884,Incorrect
1,relearn,5,148,B,74.3766485607645,50.01353947721247,3.7188324280382243,0.785610841008169,B,805,Correct
1,relearn,5,149,A,36.19246508859412,51.63349106877437,1.8096232544297062,0.8110569811042789,A,610,Correct
1,relearn,5,150,A,51.69007253367084,59.16047072338342,2.584503626683542,0.929290501037477,A,497,Correct
1,relearn,5,151,B,60.97670289230091,31.402442422509104,3.0488351446150457,0.4932684120966553,A,539,Incorrect
1,relearn,5,152,B,55.633435216255045,36.10568848386801,2.781671760812752,0.5671468284686065,A,823,Incorrect
1,relearn,5,153,A,12.930381363750186,35.973616096560974,0.6465190681875093,0.5650722402600774,A,546,Correct
1,relearn,5,154,A,46.36166030888057,70.74960077397185,2.318083015444029,1.1113321301796035,A,1021,Correct
1,relearn,5,155,B,33.91698261889138,14.336125443249738,1.6958491309445691,0.2251913318672755,A,1292,Incorrect
1,relearn,5,156,B,42.169831757709844,25.436511377713188,2.108491587885492,0.3995557863858847,B,681,Correct
1,relearn,5,157,B,47.81630270810544,34.152761956091986,2.390815135405272,0.5364703303052978,B,808,Correct
1,relearn,5,158,B,70.11760770789192,60.46121256785588,3.505880385394596,0.9497225061515345,B,778,Correct
1,relearn,5,159,A,67.4141468228514,88.6487509680634,3.37070734114257,1.3924913239558954,A,1274,Correct
1,relearn,5,160,A,62.90594062685551,81.847292875916,3.1452970313427757,1.2856542700759497,A,696,Correct
1,relearn,5,161,A,55.34528992240037,73.67685819146025,2.7672644961200183,1.1573133821693427,A,745,Correct
1,relearn,5,162,A,51.40486911118815,60.910602393877475,2.570243455559407,0.9567815050316717,A,636,Correct
1,relearn,5,163,A,64.50213264049441,75.99170902476669,3.225106632024721,1.193674974029701,A,518,Correct
1,relearn,5,164,B,55.77515388861752,29.60409724865537,2.788757694430876,0.4650200721626676,A,892,Incorrect
1,relearn,5,165,A,40.563932907274925,71.45699975348353,2.0281966453637463,1.1224439273655578,A,581,Correct
1,relearn,5,166,B,49.78364569943151,22.86763387789118,2.4891822849715752,0.35920395297882,B,790,Correct
1,relearn,5,167,A,12.272365764318664,30.51387458000049,0.6136182882159332,0.4793108210654493,A,871,Correct
1,relearn,5,168,A,29.768949938768586,41.53469317259509,1.4884474969384291,0.6524254347006544,A,709,Correct
1,relearn,5,169,A,60.07392878531671,72.19967526320372,3.0036964392658354,1.1341098469922475,B,534,Incorrect
1,relearn,5,170,A,47.297224968752815,76.97482285995937,2.3648612484376406,1.2091176900411205,A,799,Correct
1,relearn,5,171,B,87.00403183570266,64.64404862106296,4.350201591785133,1.0154263412311642,A,565,Incorrect
1,relearn,5,172,A,38.819236552397115,55.7541307748434,1.9409618276198557,0.8757838382476631,A,865,Correct
1,relearn,5,173,A,41.67592758459988,51.07612822633142,2.083796379229994,0.8023019460482653,A,1130,Correct
1,relearn,5,174,B,82.02039449023042,64.84945335003391,4.10101972451152,1.0186528311689027,A,590,Incorrect
1,relearn,5,175,B,52.57897237470037,31.035910509286836,2.628948618735018,0.48751094226722885,A,1421,Incorrect
1,relearn,5,176,B,34.39630520485443,13.225381057166278,1.7198152602427215,0.20774379985059596,A,1068,Incorrect
1,relearn,5,177,A,28.249605341227245,39.592752586002575,1.412480267061362,0.6219215032979198,B,534,Incorrect
1,relearn,5,178,A,61.79014018543556,73.36341663585699,3.0895070092717782,1.1523898537272776,B,1107,Incorrect
1,relearn,5,179,A,61.71209208849671,72.55556502956514,3.0856046044248355,1.1397001503696915,A,1627,Correct
1,relearn,5,180,A,19.42106640032385,42.94055139108832,0.9710533200161925,0.6745086039566901,A,583,Correct
1,relearn,5,181,A,42.47804056628549,73.4922870425104,2.1239020283142747,1.1544141453413153,A,778,Correct
1,relearn,5,182,B,48.71098707310549,30.273118097118978,2.4355493536552744,0.47552902707582595,B,676,Correct
1,relearn,5,183,B,58.52303134375949,35.3440470824589,2.9261515671879743,0.5551829933119232,B,694,Correct
1,relearn,5,184,A,35.391572006431616,61.21511756753974,1.7695786003215808,0.9615648181940917,A,1095,Correct
1,relearn,5,185,B,81.04153413296879,68.2450533985847,4.052076706648439,1.0719907920041842,A,1136,Incorrect
1,relearn,5,186,A,32.68183676131966,64.00113385766622,1.634091838065983,1.0053274597433057,A,923,Correct
1,relearn,5,187,B,86.30865762196495,69.45877189423382,4.315432881098247,1.091055837551471,B,1308,Correct
1,relearn,5,188,A,24.231863185626395,55.48930967116741,1.2115931592813198,0.8716240380785429,A,1021,Correct
1,relearn,5,189,B,44.97123801405905,27.580183966697874,2.2485619007029523,0.4332285166721652,A,1066,Incorrect
1,relearn,5,190,B,70.21159743170837,43.98378432320297,3.5105798715854184,0.6908956685342618,B,609,Correct
1,relearn,5,191,A,22.564834963762873,40.72835763883565,1.1282417481881437,0.6397595457547192,A,866,Correct
1,relearn,5,192,A,40.741185350212426,64.81120885422506,2.0370592675106214,1.018052088033536,A,831,Correct
1,relearn,5,193,A,45.95885410018594,63.159869796368675,2.2979427050092966,0.9921129147697986,B,1576,Incorrect
1,relearn,5,194,B,61.705308240349154,44.42687033448927,3.0852654120174576,0.697855647324089,B,714,Correct
1,relearn,5,195,A,59.851696775917276,71.47663148352774,2.992584838795864,1.1227523018599783,B,707,Incorrect
1,relearn,5,196,B,31.757593167855223,16.64269035293321,1.5878796583927612,0.2614227687437235,A,840,Incorrect
1,relearn,5,197,A,25.502123023435324,39.87911332439557,1.2751061511717663,0.6264196472579798,A,1235,Correct
1,relearn,5,198,B,63.39605707814051,33.85003743784066,3.1698028539070253,0.5317151446922985,B,1406,Correct
1,relearn,5,199,B,64.4843016715448,40.31876932102186,3.2242150835772403,0.633325747503519,A,1047,Incorrect
1,relearn,5,200,A,27.699923047622338,49.53390983196357,1.384996152381117,0.7780768361583799,B,421,Incorrect
1,relearn,5,201,B,72.71310655835536,42.177466433048394,3.6356553279177684,0.6625220934654746,A,1561,Incorrect
1,relearn,5,202,B,55.12264783390632,42.879151774998206,2.7561323916953158,0.6735441410424805,B,436,Correct
1,relearn,5,203,A,11.303423678648763,32.93415803094039,0.5651711839324381,0.517328544610838,A,424,Correct
1,relearn,5,204,B,87.4868717656629,68.0946267990456,4.3743435882831445,1.0696278965041015,B,660,Correct
1,relearn,5,205,B,53.21254252142821,23.358458492693977,2.6606271260714105,0.3669138079991475,B,1185,Correct
1,relearn,5,206,A,36.52910880663386,56.372321288456654,1.826455440331693,0.8854943521280946,A,791,Correct
1,relearn,5,207,A,12.257453982016724,34.10903220603571,0.6128726991008362,0.5357834249976972,A,806,Correct
1,relearn,5,208,A,19.270939810323625,38.415361255276174,0.9635469905161813,0.603427083522868,A,733,Correct
1,relearn,5,209,A,13.340677575457892,37.5550644054927,0.6670338787728946,0.5899135722069371,A,532,Correct
1,relearn,5,210,B,70.65208499328625,46.18100337254346,3.532604249664313,0.7254095046529399,B,796,Correct
1,relearn,5,211,B,66.77553969534765,43.46076756320992,3.3387769847673825,0.6826801404797693,B,689,Correct
1,relearn,5,212,B,81.02676038300187,63.300461950126866,4.051338019150093,0.994321331156794,B,788,Correct
1,relearn,5,213,A,30.00659744303956,63.112989459954754,1.500329872151978,0.9913765201674194,A,811,Correct
1,relearn,5,214,A,20.478542812487902,44.23645779953921,1.023927140624395,0.6948646542193364,A,600,Correct
1,relearn,5,215,A,18.574120659017055,31.806695458870742,0.9287060329508527,0.49961840394278073,A,677,Correct
1,relearn,5,216,A,49.16722180833012,67.83759448527844,2.458361090416506,1.0655904423607712,B,604,Incorrect
1,relearn,5,217,B,79.02987001927299,47.973718838790646,3.95149350096365,0.7535694133466347,B,1241,Correct
1,relearn,5,218,A,34.28033411388539,46.74154896042186,1.7140167056942692,0.7342145341573448,A,1063,Correct
1,relearn,5,219,A,44.331813429093906,54.850177175077356,2.216590671454695,0.8615845683066078,A,701,Correct
1,relearn,5,220,A,66.25971749709768,89.38887088512087,3.312985874854884,1.4041171004269113,B,725,Incorrect
1,relearn,5,221,B,43.471720218578355,32.855282702947974,2.1735860109289176,0.5160895738559858,B,1370,Correct
1,relearn,5,222,B,61.818385954818176,46.86873525885335,3.090919297740909,0.7362123718612928,B,1045,Correct
1,relearn,5,223,B,65.58999323239945,39.739622707249445,3.279499661619973,0.6242285337676249,B,940,Correct
1,relearn,5,224,A,58.74329272513113,84.54309232870153,2.9371646362565564,1.3279997888580617,A,1194,Correct
1,relearn,5,225,B,74.38621832978433,49.47179836672801,3.7193109164892166,0.7771011915439412,B,794,Correct
1,relearn,5,226,B,56.92981888593376,46.52430667961387,2.846490944296688,0.7308021003901674,A,1051,Incorrect
1,relearn,5,227,A,26.835743828845885,40.300781675530075,1.3417871914422943,0.6330431982288571,A,787,Correct
1,relearn,5,228,B,68.17854498618591,58.707271496307655,3.4089272493092952,0.9221716642255081,B,703,Correct
1,relearn,5,229,A,34.04662222958905,51.25621703870405,1.7023311114794524,0.8051307744979831,A,657,Correct
1,relearn,5,230,A,37.49211371480825,53.76663011673562,1.8746056857404125,0.8445642509150818,A,706,Correct
1,relearn,5,231,B,53.60173731244083,42.88124577865457,2.680086865622042,0.6735770335749977,A,663,Incorrect
1,relearn,5,232,B,59.20349416821886,50.66731129772056,2.9601747084109427,0.7958802647503301,A,804,Incorrect
1,relearn,5,233,B,85.62899232585328,60.17069962732808,4.281449616292664,0.9451591395528598,B,637,Correct
1,relearn,5,234,B,39.4822165546679,22.370418661826893,1.974110827733395,0.35139371462861685,B,641,Correct
1,relearn,5,235,B,70.41258195424292,38.962741075491174,3.520629097712146,0.6120253056324217,B,851,Correct
1,relearn,5,236,A,53.14072340241847,78.90652957453638,2.6570361701209237,1.239460868158146,A,935,Correct
1,relearn,5,237,A,32.94549698121817,47.81920668743335,1.6472748490609086,0.7511423421486626,A,1229,Correct
1,relearn,5,238,A,43.98533786578515,58.40069752674842,2.1992668932892574,0.9173560115727621,A,1287,Correct
1,relearn,5,239,B,53.596188871097745,32.63249044383952,2.679809443554887,0.5125899612335268,B,641,Correct
1,relearn,5,240,B,72.99492867047097,40.22325064342208,3.6497464335235485,0.6318253436243785,B,983,Correct
1,relearn,5,241,A,46.015102489621945,57.00005475980875,2.300755124481097,0.8953547664381554,A,1198,Correct
1,relearn,5,242,A,42.86718565134791,65.57593820885093,2.1433592825673955,1.0300644286459215,A,830,Correct
1,relearn,5,243,B,84.92586482201035,58.11342321799076,4.246293241100518,0.9128435172829714,A,567,Incorrect
1,relearn,5,244,B,49.80596482833069,32.511342716521725,2.490298241416534,0.5106869771828234,B,496,Correct
1,relearn,5,245,A,28.102848660028073,52.302251307435526,1.4051424330014037,0.8215618423682329,A,740,Correct
1,relearn,5,246,B,47.575802367441455,19.286790497413303,2.3787901183720725,0.30295619668999535,A,650,Incorrect
1,relearn,5,247,A,29.778250427138843,42.885914224173305,1.4889125213569423,0.6736503653457244,A,661,Correct
1,relearn,5,248,B,74.59450589729114,62.437170332844275,3.729725294864557,0.9807607781429908,B,898,Correct
1,relearn,5,249,B,70.22292248631472,44.436742937598446,3.5111461243157356,0.6980107258110869,B,777,Correct
1,relearn,5,250,B,82.27026798606778,56.32663387693553,4.113513399303389,0.8847766959461132,B,806,Correct
1,relearn,5,251,A,26.543706206076273,58.4373226613804,1.3271853103038138,0.9179313178422451,A,653,Correct
1,relearn,5,252,B,76.31432684092843,49.30294878674059,3.815716342046421,0.7744489085436903,B,705,Correct
1,relearn,5,253,B,54.01067133858394,31.855026348061166,2.700533566929197,0.5003775837748913,B,520,Correct
1,relearn,5,254,A,64.40142603884033,82.63086637225825,3.220071301942016,1.297962613774232,B,753,Incorrect
1,relearn,5,255,A,33.89038621939662,55.37979662136058,1.6945193109698309,0.8699038111148162,A,666,Correct
1,relearn,5,256,B,49.31638744351565,35.935643007078454,2.4658193721757824,0.5644757603653154,A,1276,Incorrect
1,relearn,5,257,B,39.7280154244942,16.416839483514902,1.98640077122471,0.25787511158286636,A,1125,Incorrect
1,relearn,5,258,B,64.53779165014176,32.963247215044746,3.226889582507088,0.517785476446244,B,663,Correct
1,relearn,5,259,A,30.09216179634155,62.23444824179467,1.5046080898170775,0.9775764269831817,A,762,Correct
1,relearn,5,260,B,40.963448026433554,15.161880898252804,2.0481724013216778,0.2381622682227721,B,1074,Correct
1,relearn,5,261,B,71.02408226041445,52.81328639983302,3.5512041130207224,0.8295891628282457,A,658,Incorrect
1,relearn,5,262,B,45.4006478896877,26.00356279407397,2.2700323944843848,0.40846300920511835,B,1108,Correct
1,relearn,5,263,A,20.394866901506216,33.71253321424851,1.0197433450753108,0.5295552333989251,A,557,Correct
1,relearn,5,264,B,42.75993044773162,32.64977790454135,2.137996522386581,0.5128615120312273,A,902,Incorrect
1,relearn,5,265,A,63.74876518816987,85.56218329434208,3.187438259408493,1.344007632313042,B,523,Incorrect
1,relearn,5,266,B,64.18946846778408,40.92244012494691,3.209473423389204,0.6428081863175069,B,612,Correct
1,relearn,5,267,A,14.775841065517263,31.314523491838614,0.7387920532758631,0.49188738476312593,A,840,Correct
1,relearn,5,268,B,74.03155456643618,52.43519429287444,3.701577728321809,0.823650105900239,B,562,Correct
1,relearn,5,269,B,44.05806192968197,30.98959775863819,2.2029030964840985,0.4867834632812022,A,775,Incorrect
1,relearn,5,270,B,47.73700498413392,17.884771388091036,2.386850249206696,0.28093333201979864,B,1175,Correct
1,relearn,5,271,B,50.50979416969953,32.614872032598576,2.525489708484977,0.5123132118769145,B,1158,Correct
1,relearn,5,272,B,66.95530027265241,58.2956325783084,3.3477650136326202,0.9157056552219174,A,1820,Incorrect
1,relearn,5,273,A,64.06155370342499,80.66760606801472,3.2030776851712495,1.2671237930297523,B,609,Incorrect
1,relearn,5,274,A,37.94605860008234,59.33979741608456,1.8973029300041169,0.9321073581393893,A,1440,Correct
1,relearn,5,275,B,55.33327363123534,30.151209716786333,2.766663681561767,0.47361409471550564,B,727,Correct
1,relearn,5,276,A,13.556211161874245,37.54975400636521,0.6778105580937123,0.5898301566525044,A,896,Correct
1,relearn,5,277,A,33.887215269274236,43.70052827906498,1.694360763463712,0.6864462929975178,A,728,Correct
1,relearn,5,278,A,43.87207423297112,54.57144661157243,2.193603711648556,0.8572062788534178,B,1972,Incorrect
1,relearn,5,279,B,82.31232852824203,60.68482722408497,4.115616426412101,0.9532350369577561,B,1237,Correct
1,relearn,5,280,A,26.3286356602634,52.088066909573215,1.31643178301317,0.818197441714044,A,904,Correct
1,relearn,5,281,B,55.532232422888725,37.70121933504775,2.7766116211444363,0.5922093684718175,A,1457,Incorrect
1,relearn,5,282,A,47.919820950567534,76.72334023187238,2.3959910475283768,1.2051674101566026,B,823,Incorrect
1,relearn,5,283,A,35.55784666926224,50.805943214923495,1.7778923334631118,0.7980578898135192,A,1378,Correct
1,relearn,5,284,B,67.72821734609161,37.26964563575263,3.3864108673045803,0.5854302246558769,B,698,Correct
1,relearn,5,285,A,44.74326830041529,57.412233880063404,2.237163415020764,0.901829260918931,A,612,Correct
1,relearn,5,286,B,45.42881293585998,34.171736694099124,2.271440646792999,0.5367683847929328,A,821,Incorrect
1,relearn,5,287,A,37.12296312384231,55.66422926251157,1.8561481561921156,0.8743716685942217,A,887,Correct
1,relearn,5,288,A,45.63148099870055,71.39227752975711,2.2815740499350277,1.121427273052643,B,707,Incorrect
1,relearn,5,289,A,14.502490228839896,41.42732698392805,0.7251245114419947,0.6507389305528528,A,1833,Correct
1,relearn,5,290,A,58.072359367566904,79.47997797645914,2.903617968378345,1.2484685745916129,A,1241,Correct
1,relearn,5,291,B,32.05284416935837,15.73384215813114,1.6026422084679186,0.2471466146836308,A,1137,Incorrect
1,relearn,5,292,B,56.01373992786144,48.31309982153343,2.800686996393072,0.7589003973573987,B,417,Correct
1,relearn,5,293,B,83.10457750989937,67.20107973118064,4.155228875494969,1.0555920919838955,B,554,Correct
1,relearn,5,294,A,28.854730796722535,49.592572757328824,1.442736539836127,0.7789983112352077,A,1143,Correct
1,relearn,5,295,B,88.90223189418252,66.67375856140933,4.445111594709126,1.0473089504187156,B,792,Correct
1,relearn,5,296,B,52.756563696490225,36.01304506613176,2.6378281848245115,0.5656915890657884,A,908,Incorrect
1,relearn,5,297,B,43.27411383574935,31.274237088118337,2.1637056917874675,0.49125456741329004,B,1589,Correct
1,relearn,5,298,A,56.77874909657923,78.5455637913245,2.8389374548289616,1.2337908308944674,A,1542,Correct
1,relearn,5,299,A,26.760011031183367,53.06145228184006,1.3380005515591682,0.8334873433871705,A,1023,Correct
1,relearn,5,300,A,35.75188555611203,44.44983893484438,1.7875942778056015,0.6982164372547833,A,865,Correct
1,relearn,5,301,A,32.53409736037613,51.70997764222246,1.6267048680188065,0.8122584293904928,A,521,Correct
1,relearn,5,302,A,58.15411007875713,82.55707665241006,2.9077055039378563,1.2968035275653045,B,778,Incorrect
1,relearn,5,303,B,70.9867256702225,54.224449539625155,3.5493362835111246,0.8517556615931843,A,2276,Incorrect
1,relearn,5,304,A,20.367101376711584,38.29728963911947,1.0183550688355794,0.6015724189132912,A,618,Correct
1,relearn,5,305,B,33.25756786329755,20.572134067762853,1.6628783931648774,0.32314632627974044,B,1219,Correct
1,relearn,5,306,B,62.70841293213297,45.190737166031546,3.135420646606649,0.7098544394555597,107,590,Correct
1,relearn,5,307,B,68.28067439711766,58.03325609523741,3.414033719855883,0.9115842550634645,B,376,Incorrect
1,relearn,5,308,A,15.348302203064591,31.717088152886205,0.7674151101532296,0.4982108556718358,A,705,Incorrect
1,relearn,5,309,A,58.43566328575731,86.203253935567,2.9217831642878656,1.3540775463975636,B,605,Incorrect
1,relearn,5,310,B,59.757368262076255,45.60171080352743,2.987868413103813,0.7163099982574406,B,580,Correct
1,relearn,5,311,B,52.84657775083203,27.421922180059298,2.6423288875416016,0.43074254634092646,A,1519,Correct
1,relearn,5,312,A,39.81255747331809,57.145066676475,1.9906278736659044,0.8976326082985638,A,814,Incorrect
1,relearn,5,313,A,66.10730848855061,79.43451933369236,3.305365424427531,1.2477545119008218,A,929,Correct
1,relearn,5,314,B,55.71156277120089,29.102225531531158,2.7855781385600444,0.457136689664858,B,761,Incorrect
1,relearn,5,315,A,22.949001405517095,45.43856107734198,1.1474500702758548,0.7137472483513433,A,648,Incorrect
1,relearn,5,316,A,25.677099830918024,46.95130816390933,1.2838549915459012,0.7375094240208401,A,1035,Correct
1,relearn,5,317,A,38.72507442785991,55.003266753822544,1.9362537213929953,0.863989293786243,B,1068,Incorrect
1,relearn,5,318,B,74.70775286306373,56.31093965083659,3.7353876431531865,0.884530171619032,B,1074,Incorrect
1,relearn,5,319,B,60.79590495984973,49.04264441061029,3.0397952479924863,0.770360056964949,A,470,Incorrect
1,relearn,5,320,B,84.0333577751083,65.08656710945131,4.201667888755415,1.0223774053921564,B,638,Incorrect
1,relearn,5,321,B,67.01797846682817,54.73444783544458,3.350898923341408,0.8597666960906322,B,944,Correct
1,relearn,5,322,A,34.52810551290399,58.52533299177391,1.7264052756451997,0.9193137808792664,A,963,Correct
1,relearn,5,323,A,26.636600753329148,56.381639388538346,1.3318300376664576,0.8856407205019049,A,690,Incorrect
1,relearn,5,324,A,36.56952127796371,65.22010144515708,1.8284760638981854,1.0244749578324326,B,825,Incorrect
1,relearn,5,325,A,30.533283534989913,45.49869465549056,1.5266641767494957,0.7146918243880717,A,636,Correct
1,relearn,5,326,A,68.0140407926094,88.64322627250557,3.4007020396304704,1.3924045422410063,A,1070,Incorrect
1,relearn,5,327,A,31.077540134592734,40.27652484306586,1.5538770067296366,0.6326621727955124,B,1417,Incorrect
1,relearn,5,328,A,27.960306420993412,48.36220146775543,1.3980153210496706,0.7596716842126499,A,500,Correct
1,relearn,5,329,B,39.039343373938024,27.17397541003966,1.9519671686969013,0.42684780758505136,A,767,Correct
1,relearn,5,330,B,68.5019015359502,50.29791298228484,3.42509507679751,0.7900777695802238,B,736,Correct
1,relearn,5,331,B,49.36093093872398,21.4178234750609,2.468046546936199,0.3364303844256717,A,3549,Correct
1,relearn,5,332,A,25.08336511465597,44.57016779943798,1.2541682557327984,0.7001065586398936,A,931,Incorrect
1,relearn,5,333,A,42.48851240648359,64.05125479294459,2.12442562032418,1.0061147575536138,B,1186,Correct
1,relearn,5,334,B,60.136644913204734,43.32899978836278,3.0068322456602368,0.680610337112571,B,645,Incorrect
1,relearn,5,335,A,27.119331602480898,39.66062114851444,1.3559665801240448,0.6229875801849047,B,1454,Incorrect
1,relearn,5,336,B,45.37406253054435,28.46033034676704,2.2687031265272175,0.44705382368071,A,1388,Incorrect
1,relearn,5,337,A,20.200608787798107,35.136203211621236,1.0100304393899053,0.5519181894233368,A,902,Correct
1,relearn,5,338,A,26.81028202275992,57.07955729084024,1.340514101137996,0.8966035892753071,B,409,Incorrect
1,relearn,5,339,A,30.29461572309806,44.80919888127853,1.5147307861549029,0.7038612500933431,A,508,Correct
1,relearn,5,340,A,43.17511794925484,59.6771531610408,2.158755897462742,0.9374065297893933,A,911,Incorrect
1,relearn,5,341,A,42.071742335595665,61.55099845833767,2.1035871167797833,0.9668408228891516,A,930,Incorrect
1,relearn,5,342,A,20.014184504344694,42.132771521953956,1.0007092252172347,0.6618200274437389,A,685,Incorrect
1,relearn,5,343,B,40.87480254162513,13.394211480859457,2.0437401270812563,0.21039578194448066,A,789,Correct
1,relearn,5,344,B,75.87572754213822,63.872853750465254,3.7937863771069114,1.0033124405313845,B,386,Correct
1,relearn,5,345,B,39.02670554715123,19.249682406869425,1.9513352773575616,0.30237330416678837,A,1948,Incorrect
1,relearn,5,346,B,60.98581588626143,29.38254337925931,3.0492907943130714,0.4615399121203223,A,767,Correct
1,relearn,5,347,B,58.74514710118642,40.380081868185435,2.9372573550593213,0.6342888427422289,A,601,Incorrect
1,relearn,5,348,B,38.32858733541323,19.94323332033591,1.9164293667706616,0.31326757643997233,A,752,Correct
1,relearn,5,349,B,35.19012092528072,23.07804962327875,1.7595060462640362,0.36250915577836607,A,670,Correct
1,relearn,5,350,A,56.89459897503541,84.66551431917392,2.8447299487517705,1.329922788987591,B,1010,Incorrect
1,relearn,5,351,B,78.95699504832055,60.3426830081022,3.9478497524160274,0.9478606481807574,B,556,Incorrect
1,relearn,5,352,B,54.438911659671184,26.77845890068951,2.721945582983559,0.4206350487843119,A,1104,Incorrect
1,relearn,5,353,B,59.110332994225885,50.59743966941989,2.955516649711294,0.7947827237795114,B,821,Correct
1,relearn,5,354,A,31.155673624808948,52.3723776628906,1.5577836812404473,0.8226633845838365,A,780,Incorrect
1,relearn,5,355,A,27.77445705967369,60.71720739662707,1.3887228529836844,0.9537436635186572,A,755,Incorrect
1,relearn,5,356,A,12.934328649492457,33.7650199048241,0.6467164324746228,0.5303796924065427,A,696,Incorrect
1,relearn,5,357,A,22.899263692081053,48.67896936447288,1.1449631846040527,0.7646474626987529,A,1717,Incorrect
1,relearn,5,358,A,57.022811791729396,71.6912983131984,2.85114058958647,1.1261242805352922,B,554,Correct
1,relearn,5,359,B,74.54320710948352,56.021170795080465,3.7271603554741763,0.8799784930766192,B,336,Correct
1,relearn,5,360,A,51.20033206919024,78.395218408296,2.560016603459512,1.2314292111403502,A,787,Correct
1,relearn,5,361,A,39.12256382784813,54.95549820155777,1.9561281913924065,0.8632389471219051,B,1011,Correct
1,relearn,5,362,B,65.15042675056944,47.27792995558584,3.2575213375284715,0.7426399871270065,B,644,Incorrect
1,relearn,5,363,B,49.55171841767361,39.551882814202436,2.477585920883681,0.6212795224237139,A,1243,Incorrect
1,relearn,5,364,B,41.81669072208798,31.94291547246356,2.090834536104399,0.5017581429126563,A,1004,Incorrect
1,relearn,5,365,A,17.206304149141292,42.13270359813379,0.8603152074570646,0.6618189604988668,A,551,Incorrect
1,relearn,5,366,A,48.283788014623354,78.81380718686106,2.4141894007311677,1.2380043882984257,A,731,Incorrect
1,relearn,5,367,A,48.97776844776196,58.135055244411454,2.448888422388098,0.9131833123593989,B,281,Incorrect
1,relearn,5,368,B,45.41251050100252,33.86373234158698,2.270625525050126,0.5319302637373037,B,509,Correct
1,relearn,5,369,B,55.04029578750936,30.52369643563754,2.7520147893754676,0.47946510241301926,B,544,Correct
1,relearn,5,370,B,36.97715618970743,24.80479644721929,1.8488578094853716,0.3896328314618716,B,1460,Incorrect
1,relearn,5,371,A,47.129880950265076,59.41221872281221,2.356494047513254,0.933244949365284,B,1346,Correct
1,relearn,5,372,B,67.03208054967766,45.40560033131026,3.3516040274838828,0.7132295021633929,B,481,Incorrect
1,relearn,5,373,A,51.39271967347405,75.06240084787174,2.5696359836737024,1.1790774353224307,A,423,Incorrect
1,relearn,5,374,A,33.06241037189277,57.260610825060354,1.6531205185946385,0.899447571540369,B,301,Correct
1,relearn,5,375,B,32.91090364014663,19.203828236503806,1.6455451820073312,0.3016530285430029,A,1418,Correct
1,relearn,5,376,B,31.799732617899913,18.227577617037596,1.5899866308949955,0.28631811967211535,A,1212,Correct
1,relearn,5,377,B,88.7533905231904,62.46284523712648,4.437669526159521,0.9811640785963637,B,741,Incorrect
1,relearn,5,378,A,54.664217270212305,62.487842920465035,2.733210863510615,0.9815567412880295,B,574,Correct
1,relearn,5,379,B,36.93372081166359,12.102334406306174,1.8466860405831795,0.19010302431069234,A,640,Incorrect
1,relearn,5,380,B,36.35526973742935,22.339353467175084,1.8177634868714676,0.3509057436921146,B,592,Correct
1,relearn,5,381,B,78.68323149325543,63.524530429119785,3.934161574662772,0.99784099059432,B,512,Incorrect
1,relearn,5,382,B,82.5721949412706,53.70362799843405,4.12860974706353,0.8435746159549977,B,1170,Correct
1,relearn,5,383,B,67.98172879385463,54.47971249001755,3.3990864396927316,0.855765322641616,B,734,Correct
1,relearn,5,384,B,84.40581995393538,55.97764543466538,4.220290997696769,0.8792947983139948,B,800,Correct
1,relearn,5,385,A,51.51610833637675,74.99918932432989,2.5758054168188376,1.178084511032524,A,798,Incorrect
1,relearn,5,386,B,54.42117653557444,32.081525502778796,2.721058826778722,0.5039354241774173,A,1300,Correct
1,relearn,5,387,A,35.998711104950026,61.92987515424763,1.7999355552475012,0.9727922041115872,B,870,Incorrect
1,relearn,5,388,B,37.06742508933155,20.14911533639829,1.8533712544665775,0.3165015635858115,A,1354,Correct
1,relearn,5,389,B,64.48163201792089,45.6955766016918,3.2240816008960445,0.7177844387671228,B,708,Incorrect
1,relearn,5,390,B,32.619150108965115,16.951232006357483,1.630957505448256,0.26626932970234424,A,913,Incorrect
1,relearn,5,391,A,41.32541035572552,73.22316060278897,2.0662705177862764,1.150186717111737,A,1202,Correct
1,relearn,5,392,B,87.325397162536,59.86431382359048,4.3662698581268,0.9403464426019288,B,462,Correct
1,relearn,5,393,B,74.47424835102915,57.926493856588564,3.7237124175514573,0.9099072377403645,B,999,Correct
1,relearn,5,394,B,67.82526294788143,55.43703699103896,3.391263147394071,0.8708029407391679,B,481,Correct
1,relearn,5,395,A,36.86394028140486,52.65541159815275,1.843197014070243,0.8271092712425174,A,878,Incorrect
1,relearn,5,396,A,46.22386551376745,73.28329957838267,2.311193275688373,1.1511313779313348,B,597,Incorrect
1,relearn,5,397,A,39.36456311160656,61.71362599438263,1.968228155580328,0.9693953702517027,A,585,Incorrect
1,relearn,5,398,A,26.948731855490855,52.72546365393566,1.3474365927745426,0.8282096463615997,A,607,Correct
1,relearn,5,399,B,60.91310228164505,29.832354428502452,3.0456551140822525,0.4686055275593512,B,1417,Correct
1,relearn,5,400,B,65.09308264110857,55.138891319035665,3.2546541320554288,0.8661196794748424,B,949,Incorrect
1,relearn,5,401,B,73.3588059790953,43.37343117724864,3.6679402989547647,0.6813082637371342,107,716,Incorrect
1,relearn,5,402,A,41.21810617371146,70.01569990487289,2.060905308685573,1.0998040422854813,B,1725,Incorrect
1,relearn,5,403,A,66.78312925575648,82.59911768727021,3.339156462787824,1.2974639065966342,B,916,Correct
1,relearn,5,404,A,34.87765098323632,45.44035713237511,1.7438825491618162,0.713775460717831,A,823,Incorrect
1,relearn,5,405,B,77.04554400585506,62.69786994642061,3.852277200292753,0.9848558380970163,B,754,Incorrect
1,relearn,5,406,A,59.053390752247985,73.97790139245538,2.9526695376123993,1.1620421577126399,B,776,Correct
1,relearn,5,407,B,67.05132091011893,37.54348192911316,3.3525660455059465,0.5897316350934154,A,854,Correct
1,relearn,5,408,A,25.87813254120085,44.46534257272707,1.2939066270600423,0.6984599678291642,A,566,Incorrect
1,relearn,5,409,A,24.12490492865114,47.14120879770729,1.206245246432557,0.7404923762010986,A,627,Incorrect
1,relearn,5,410,B,79.90846828835735,54.50415214408935,3.9954234144178677,0.8561492198300574,B,631,Incorrect
1,relearn,5,411,A,15.088810844867627,34.29290869538926,0.7544405422433813,0.5386717501383022,A,594,Correct
1,relearn,5,412,A,24.101581361020017,55.871950960104634,1.2050790680510008,0.8776345533899694,A,540,Correct
1,relearn,5,413,B,56.69967386754061,32.10967382005259,2.8349836933770303,0.5043775769112087,A,758,Correct
1,relearn,5,414,A,16.900872606418798,34.096029925951015,0.8450436303209399,0.5355791856597272,A,634,Incorrect
1,relearn,5,415,A,26.457209447095657,50.86274517267324,1.322860472354783,0.7989501328793998,B,812,Correct
1,relearn,5,416,A,10.282072620626167,33.407656679995576,0.5141036310313083,0.5247662439976204,B,921,Incorrect
1,relearn,5,417,B,76.05830279487176,47.69997920228474,3.8029151397435883,0.7492695211914182,B,674,Incorrect
1,relearn,5,418,A,44.3535758166809,60.72313415581192,2.217678790834045,0.9538367608342307,B,539,Correct
1,relearn,5,419,A,19.0295989131164,47.57660706297408,0.95147994565582,0.7473315961588382,A,499,Correct
1,relearn,5,420,A,12.723918559379307,36.23972336518334,0.6361959279689653,0.5692522434609317,A,540,Incorrect
1,relearn,5,421,B,86.38218399654563,64.2625623106867,4.319109199827282,1.0094339682805482,B,553,Correct
1,relearn,5,422,B,57.73650571405647,46.252028619329664,2.886825285702823,0.7265251666205548,B,434,Correct
1,relearn,5,423,B,70.52175226982851,40.58369839179899,3.5260876134914256,0.637487243615898,B,577,Incorrect
1,relearn,5,424,A,48.09077923821876,78.98531091515247,2.404538961910938,1.2406983625627437,B,282,Correct
1,relearn,5,425,A,43.17178852429497,73.93549251804953,2.1585894262147485,1.1613760006712375,B,360,Incorrect
1,relearn,5,426,A,49.993810673826786,56.8064993184418,2.4996905336913393,0.8923144046748517,B,464,Correct
1,relearn,5,427,A,51.8825273613964,71.9393568018917,2.59412636806982,1.1300207741639894,A,787,Correct
1,relearn,5,428,A,50.69777022085691,59.93902269950935,2.5348885110428454,0.9415199668806522,A,402,Correct
1,relearn,5,429,A,54.61016576419869,69.59519003788287,2.7305082882099345,1.093198688740992,B,342,Correct
1,relearn,5,430,B,80.3871873239714,64.73099108414553,4.01935936619857,1.0167920302476898,A,333,Correct
1,relearn,5,431,B,34.737238559885135,22.83642024585199,1.7368619279942568,0.3587136503932892,A,266,Correct
1,relearn,5,432,A,38.64652152269328,59.640474304496266,1.9323260761346637,0.9368303796580815,B,405,Incorrect
1,relearn,5,433,B,52.84123474441489,43.062158805519395,2.642061737220745,0.6764188087556837,B,485,Correct
1,relearn,5,434,B,75.67617323078893,64.81060941907627,3.783808661539447,1.0180426721282374,B,586,Correct
1,relearn,5,435,A,47.697128957284775,70.26100524253792,2.3848564478642387,1.1036572895189554,B,567,Incorrect
1,relearn,5,436,A,19.716389706184103,38.71817634842233,0.9858194853092052,0.6081836918829884,B,721,Correct
1,relearn,5,437,A,18.991523860710146,49.952013982556224,0.9495761930355073,0.7846444007980663,A,564,Correct
1,relearn,5,438,A,47.86046553675531,55.02618150843926,2.393023276837765,0.8643492379100565,A,539,Correct
1,relearn,5,439,B,54.35369747032563,24.58020189319585,2.7176848735162817,0.38610490845709,A,373,Correct
1,relearn,5,440,B,71.92866591994688,46.48607335335578,3.5964332959973437,0.7302015327056939,A,456,Incorrect
1,relearn,5,441,B,83.31648661376892,67.55994787276268,4.165824330688446,1.061229179569903,A,275,Correct
1,relearn,5,442,A,56.81838050837879,77.73113447051466,2.8409190254189394,1.2209978050388461,B,806,Incorrect
1,relearn,5,443,A,45.488693717739984,72.01382812748946,2.274434685886999,1.1311905670109945,B,750,Incorrect
1,relearn,5,444,A,62.36802794863014,77.56038739960943,3.118401397431507,1.2183157163209566,B,648,Incorrect
1,relearn,5,445,A,14.009329591464379,30.940110142627894,0.700466479573219,0.48600611362669416,B,806,Correct
1,relearn,5,446,B,41.87642745969342,14.327284622461345,2.093821372984671,0.22505246057907288,B,91,Incorrect
1,relearn,5,447,A,55.25103434924502,63.31995932387669,2.7625517174622507,0.9946275951874776,B,1273,Incorrect
1,relearn,5,448,B,58.193916591959976,50.098668360238094,2.909695829597999,0.7869480423757771,A,639,Incorrect
1,relearn,5,449,A,20.376355472001894,39.337281185227866,1.0188177736000947,0.6179085679185393,A,382,Correct
1,relearn,5,450,A,37.3730036604146,55.51069568239211,1.86865018302073,0.8719599687573084,A,757,Correct
1,relearn,5,451,B,43.88330899635711,15.997983419047287,2.1941654498178553,0.25129573590765136,A,802,Correct
1,relearn,5,452,A,28.46252724038542,42.77969050433133,1.423126362019271,0.6719818070562616,A,798,Incorrect
1,relearn,5,453,A,43.56374865875601,53.800277578792446,2.1781874329378006,0.8450927840131301,A,562,Incorrect
1,relearn,5,454,B,72.65993532689265,41.02628458051571,3.6329967663446325,0.6444393712111618,B,594,Incorrect
1,relearn,5,455,A,56.74704672038797,84.63625716159764,2.8373523360193986,1.3294632186310582,A,756,Incorrect
1,relearn,5,456,A,53.73731642951802,76.56617351615316,2.686865821475901,1.2026986411591407,A,277,Incorrect
1,relearn,5,457,A,55.964899398253515,73.73948501494425,2.7982449699126755,1.1582971220122176,A,568,Correct
1,relearn,5,458,A,50.88244259271266,73.90596322015111,2.544122129635633,1.1609121555445208,A,435,Incorrect
1,relearn,5,459,A,53.53600068841979,75.04679594237525,2.6768000344209897,1.178832314040092,A,589,Incorrect
1,relearn,5,460,B,48.602189498743925,18.077481436118646,2.4301094749371965,0.283960414375581,B,682,Incorrect
1,relearn,5,461,B,78.01104644770498,57.62878399196481,3.9005523223852494,0.9052308221223485,B,610,Incorrect
1,relearn,5,462,B,60.666075839754264,42.15449860660896,3.0333037919877133,0.6621613156914193,B,710,Incorrect
1,relearn,5,463,B,76.39661901886923,49.69842552074906,3.8198309509434614,0.7806610425548237,B,763,Correct
1,relearn,5,464,A,45.68233164637557,68.37200855085541,2.284116582318779,1.0739849988727295,B,576,Correct
1,relearn,5,465,B,68.2030863658673,45.405972143658914,3.4101543182933653,0.7132353425781081,B,675,Correct
1,relearn,5,466,B,78.3577145918668,55.57049554186651,3.9178857295933396,0.8728993027533608,B,764,Incorrect
1,relearn,5,467,A,60.387392672168225,76.62654892531191,3.0193696336084113,1.2036470158684938,B,1066,Correct
1,relearn,5,468,B,59.67476038904842,32.73199170811413,2.9837380194524212,0.5141529234378669,A,1296,Incorrect
1,relearn,5,469,B,71.63219541002269,62.51649697375261,3.5816097705011343,0.9820068381045488,A,694,Correct
1,relearn,5,470,A,35.07920488109529,46.860133145139415,1.7539602440547646,0.7360772501750478,A,735,Correct
1,relearn,5,471,A,34.64110102471718,53.08290324985752,1.732055051235859,0.8338242944048508,A,745,Incorrect
1,relearn,5,472,B,76.31874266358079,52.755650246292056,3.8159371331790397,0.8286838162455183,A,603,Correct
1,relearn,5,473,B,51.74630132761304,34.78669409284468,2.587315066380652,0.5464281130237815,A,287,Incorrect
1,relearn,5,474,A,52.939426304836005,77.35626539782908,2.6469713152418,1.2151093754148106,A,666,Incorrect
1,relearn,5,475,A,45.523076016484886,77.63509134777594,2.276153800824244,1.2194891631947269,B,354,Correct
1,relearn,5,476,B,44.65896645358865,21.99376834488999,2.2329483226794324,0.3454773052853106,B,1068,Correct
1,relearn,5,477,A,19.167303401328294,34.973038183298016,0.9583651700664148,0.5493551991518218,B,478,Correct
1,relearn,5,478,A,47.54436770967592,77.59693133452693,2.377218385483796,1.2188897471083069,B,433,Incorrect
1,relearn,5,479,B,60.68137180023346,34.1642824806702,3.034068590011673,0.5366512942821999,B,500,Incorrect
1,relearn,5,480,B,52.357685807717,41.88067507200651,2.6178842903858497,0.657860105667984,B,955,Correct
1,relearn,5,481,B,81.87854188062195,67.86732864138237,4.0939270940310974,1.066057505392655,B,464,Incorrect
1,relearn,5,482,A,67.97820202615208,81.09563962941449,3.398910101307604,1.2738473284896692,B,1381,Incorrect
1,relearn,5,483,B,81.3853107704075,62.797213569480874,4.069265538520375,0.986416324078952,100,718,Correct
1,relearn,5,484,B,68.35164429043988,48.046610735011726,3.417582214521994,0.7547143965750067,A,669,Incorrect
1,relearn,5,485,B,54.998450005201995,28.50510529392915,2.7499225002600998,0.4477571469060567,A,466,Incorrect
1,relearn,5,486,B,38.060101604245304,22.766584175513106,1.903005080212265,0.3576166679656281,A,590,Correct
1,relearn,5,487,B,36.138830631108576,16.43104225931767,1.806941531555429,0.2580982082634792,A,1088,Correct
1,relearn,5,488,A,35.0380532767017,61.10733308610001,1.7519026638350852,0.9598717435187815,B,1553,Incorrect
1,relearn,5,489,B,66.38548697766488,39.60293044887975,3.319274348883244,0.6220813767941407,B,732,Incorrect
1,relearn,5,490,A,43.44954387792251,50.87226433616018,2.1724771938961256,0.7990996595497942,B,185,Incorrect
1,relearn,5,491,B,55.06670228302795,25.236786613029118,2.7533351141513975,0.39641851711852755,B,718,Incorrect
1,relearn,5,492,A,66.19024234712307,83.50074768982168,3.309512117356154,1.3116266775579934,B,613,Incorrect
1,relearn,5,493,A,51.7112279529167,79.98418494893734,2.585561397645835,1.256388639194744,A,1377,Correct
1,relearn,5,494,B,55.868486141618035,40.11931514898058,2.793424307080902,0.6301927286954555,B,857,Incorrect
1,relearn,5,495,A,24.52386645804812,52.30470125888446,1.226193322902406,0.8216003261156011,A,1084,Incorrect
1,relearn,5,496,B,73.82185019550128,56.10974259428299,3.691092509775064,0.8813697756450687,B,1437,Correct
1,relearn,5,497,A,28.46605838237391,50.81305451516656,1.4233029191186954,0.7981695938565248,B,580,Incorrect
1,relearn,5,498,B,42.371958567415476,25.5918515820886,2.118597928370774,0.40199586461024944,B,387,Correct
1,relearn,5,499,A,19.176786701504138,45.43476819959521,0.9588393350752069,0.7136876699670173,A,1109,Incorrect
1,relearn,5,500,B,56.732854511306236,29.047812815355798,2.8366427255653117,0.4562819767178661,B,731,Correct
1,relearn,5,501,A,49.59360892048474,67.76592035739068,2.479680446024237,1.064464587792648,B,755,Incorrect
1,relearn,5,502,B,61.90398586435343,34.20047349092216,3.0951992932176715,0.5372197813418675,B,1115,Incorrect
1,relearn,5,503,A,23.124617396068782,46.27928053640838,1.1562308698034391,0.7269532387330083,A,657,Incorrect
1,relearn,5,504,A,19.918645938533793,32.3945277108988,0.9959322969266896,0.5088520513653533,A,1924,Incorrect
1,relearn,5,505,A,30.695332793465422,52.925087994637664,1.534766639673271,0.8313453381727351,A,1579,Correct
1,relearn,5,506,A,27.8163957299846,49.99698426262765,1.39081978649923,0.7853507923055776,A,1711,Correct
1,relearn,5,507,A,52.107877531570495,82.08198661723526,2.6053938765785243,1.28934083074381,A,5384,Correct
1,relearn,5,508,B,78.53363028202823,54.008448718122594,3.9266815141014115,0.8483627286231752,A,859,Correct
1,relearn,5,509,A,46.69852300365553,67.24751042180323,2.3349261501827767,1.0563214235667002,A,715,Correct
1,relearn,5,510,A,47.663240796727514,59.59875573867619,2.3831620398363755,0.9361750659585881,A,701,Incorrect
1,relearn,5,511,B,85.49073788116914,62.63689505348539,4.274536894058457,0.9838980467185227,B,815,Correct
1,relearn,5,512,A,53.88398912404869,78.21658294293168,2.6941994562024343,1.2286232118120546,A,876,Incorrect
1,relearn,5,513,B,87.85301954128357,62.388545407799995,4.392650977064179,0.9799969796064885,A,1331,Incorrect
1,relearn,5,514,A,50.7574248555085,78.29203059774076,2.537871242775425,1.2298083408024485,B,1143,Incorrect
1,relearn,5,515,A,53.98894368340555,80.77081777038451,2.6994471841702774,1.2687450386593997,B,1302,Incorrect
1,relearn,5,516,B,59.81541242668651,38.867827683219076,2.9907706213343257,0.6105344095529752,B,1005,Incorrect
1,relearn,5,517,B,44.25928765467974,32.41434398703262,2.2129643827339867,0.5091633247029709,B,1062,Correct
1,relearn,5,518,A,43.397497625853326,54.951706296183204,2.1698748812926665,0.8631793840115658,B,586,Correct
1,relearn,5,519,B,57.772510961436105,40.576367995621574,2.888625548071805,0.6373720980220037,A,762,Incorrect
1,relearn,5,520,B,59.705442831826936,28.380515489619746,2.985272141591347,0.44580009483640365,B,1744,Incorrect
1,relearn,5,521,A,45.89379084872994,77.99359817072794,2.294689542436497,1.2251205752009662,B,798,Correct
1,relearn,5,522,A,37.43099146145679,49.00396874333444,1.8715495730728395,0.7697525410040167,B,644,Correct
1,relearn,5,523,A,47.51478216514912,61.13474974454234,2.375739108257456,0.9603024033825234,B,1487,Correct
1,relearn,5,524,A,17.40787130495563,43.207560727674576,0.8703935652477816,0.6787027768079865,A,1184,Correct
1,relearn,5,525,B,36.88811388338276,15.397087064801259,1.8444056941691378,0.2418568780473103,A,1229,Incorrect
1,relearn,5,526,B,50.11874860381589,33.758386714619235,2.5059374301907944,0.5302754984984553,A,735,Correct
1,relearn,5,527,A,37.6913128918713,69.894769170323,1.8845656445935648,1.0979044667492053,B,921,Correct
1,relearn,5,528,B,49.666312676026685,21.127551227263172,2.4833156338013342,0.33187079861956004,A,596,Incorrect
1,relearn,5,529,A,61.069651508254566,78.22555918327654,3.053482575412728,1.228764210265676,B,761,Correct
1,relearn,5,530,A,22.702770046731658,39.01313131346538,1.135138502336583,0.6128168336395837,A,797,Correct
1,relearn,5,531,A,38.31374737182589,49.37124403906489,1.9156873685912945,0.7755216878585756,A,900,Correct
1,relearn,5,532,A,14.726387550809946,39.256303572476746,0.7363193775404973,0.6166365745519184,A,864,Incorrect
1,relearn,5,533,A,58.19649066423832,82.55490299996598,2.909824533211916,1.2967693839125554,A,77,Incorrect
1,relearn,5,534,B,43.9872652075948,19.425172637898473,2.1993632603797404,0.30512989826967657,A,593,Incorrect
1,relearn,5,535,A,54.580180293560694,81.08945573567149,2.729009014678035,1.2737501921139016,A,651,Correct
1,relearn,5,536,B,76.97345993408737,59.981783324112264,3.8486729967043685,0.9421916492012292,A,819,Incorrect
1,relearn,5,537,B,54.48255860263592,38.22142333156564,2.7241279301317958,0.6003807137409607,B,330,Incorrect
1,relearn,5,538,B,82.76835337580351,62.07684835229004,4.138417668790176,0.9751008537078102,B,1074,Correct
1,relearn,5,539,A,35.293828950798485,53.10441180464873,1.7646914475399242,0.8341621499934577,A,1405,Correct
1,relearn,5,540,A,34.132185200045555,64.74552931079893,1.706609260002278,1.0170203961779427,A,675,Correct
1,relearn,5,541,B,60.22302935475858,33.10657978814534,3.011151467737929,0.5200369392396086,B,1411,Incorrect
1,relearn,5,542,A,53.290786784163586,82.57978026634011,2.6645393392081793,1.297160155098967,A,625,Correct
1,relearn,5,543,B,82.48710447240983,67.18626284916022,4.1243552236204915,1.055359348945373,B,1062,Incorrect
1,relearn,5,544,A,38.468389328817075,46.34508829843559,1.9234194664408537,0.7279869446416776,A,752,Correct
1,relearn,5,545,A,24.456304276812638,47.17035334139109,1.2228152138406319,0.740950177622745,A,905,Correct
1,relearn,5,546,A,19.287601846381285,49.48307653460506,0.9643800923190642,0.7772783485906838,A,1009,Incorrect
1,relearn,5,547,A,18.782439029265717,38.29735339228811,0.9391219514632858,0.6015734203457224,A,979,Incorrect
1,relearn,5,548,B,62.28520777528408,34.62705099304832,3.114260388764204,0.5439204450761987,B,1356,Incorrect
1,relearn,5,549,A,36.53031506336036,69.75760070911899,1.8265157531680183,1.0957498295990917,A,703,Incorrect
1,relearn,5,550,B,53.40890099624931,45.08944106251738,2.670445049812465,0.7082632839823728,A,1009,Incorrect
1,relearn,5,551,A,37.93903214553666,50.01172993648781,1.8969516072768329,0.7855824168089341,A,986,Correct
1,relearn,5,552,B,46.589581859406394,34.229935553412005,2.3294790929703195,0.5376825703372561,A,445,Correct
1,relearn,5,553,B,56.464023044333096,28.988209014767023,2.823201152216655,0.45534572240758747,B,894,Incorrect
1,relearn,5,554,B,70.96982551405712,52.53760143009166,3.548491275702856,0.8252587134500229,A,931,Correct
1,relearn,5,555,A,49.52996360422059,69.77774475219375,2.4764981802110295,1.0960662514877781,A,2176,Incorrect
1,relearn,5,556,B,55.33450668691106,23.237423941496147,2.766725334345553,0.36501260171477934,B,1533,Correct
1,relearn,5,557,B,85.86477039955622,63.98833989345536,4.293238519977811,1.0051264926234302,A,1318,Correct
1,relearn,5,558,A,18.39449677159682,35.79214443539482,0.919724838579841,0.5622216900723057,B,1308,Incorrect
1,relearn,5,559,B,34.49834434345991,11.844566354400314,1.7249172171729956,0.18605401321970433,B,810,Incorrect
1,relearn,5,560,A,50.24940130560327,60.16053589673314,2.5124700652801635,0.9449994880460093,B,705,Correct
1,relearn,5,561,A,37.185617171606644,56.18925565444804,1.8592808585803322,0.8826187638734635,A,1759,Correct
1,relearn,5,562,A,37.27598263197783,69.69961598197607,1.8637991315988915,1.0948390076350287,100,2681,Incorrect
1,relearn,5,563,B,78.585071396129,51.78272158028483,3.92925356980645,0.8134010884975424,A,608,Correct
1,relearn,5,564,B,68.70442636253861,46.24456575733746,3.4352213181269304,0.7264079402585073,B,1147,Correct
1,relearn,5,565,A,45.6593532330234,69.44292358257238,2.28296766165117,1.090806892854034,A,919,Correct
1,relearn,5,566,A,41.662219342027235,60.19639708383675,2.0831109671013617,0.9455627942557778,A,1231,Correct
1,relearn,5,567,B,85.77643064637934,57.175893085878855,4.288821532318967,0.8981168284051622,B,991,Incorrect
1,relearn,5,568,B,75.55831401981224,43.83859808529417,3.7779157009906124,0.6886150884421787,A,1529,Correct
1,relearn,5,569,B,65.5162548006515,57.813665266842065,3.275812740032575,0.9081349303970521,A,1436,Incorrect
1,relearn,5,570,A,34.54663875329717,62.53499692860863,1.7273319376648584,0.9822974347158857,A,1511,Incorrect
1,relearn,5,571,A,20.9955900655179,46.44721353679514,1.049779503275895,0.7295911241345601,B,633,Correct
1,relearn,5,572,B,55.54329532242097,45.14212133228963,2.7771647661210483,0.709090783724901,B,570,Correct
1,relearn,5,573,B,50.35945291511765,27.234471490674668,2.5179726457558824,0.42779807779752105,A,1161,Correct
1,relearn,5,574,B,46.23141581592442,18.55992602447392,2.311570790796221,0.2915386362482864,A,954,Correct
1,relearn,5,575,A,26.185306253821366,51.90261365215849,1.3092653126910683,0.815284348758652,A,773,Correct
1,relearn,5,576,A,59.24115655909058,82.40488479068338,2.9620578279545287,1.294412903391621,B,321,Correct
1,relearn,5,577,A,53.464625806029034,68.34831354173038,2.673231290301452,1.0736127985397594,B,986,Incorrect
1,relearn,5,578,B,46.49952953556504,17.846107464427277,2.324976476778252,0.2803260005270935,A,823,Incorrect
1,relearn,5,579,B,53.69143660989836,38.648421674155124,2.6845718304949178,0.6070879880218314,A,740,Correct
1,relearn,5,580,A,32.869472628350955,64.0461402238187,1.6434736314175478,1.0060344180896528,B,1191,Incorrect
1,relearn,5,581,A,58.119509247453976,68.30774891586958,2.9059754623726985,1.07297561088676,A,662,Incorrect
1,relearn,5,582,A,41.38363295993847,53.59888992024913,2.069181647996923,0.8419293940701134,B,1077,Incorrect
1,relearn,5,583,B,53.438345531703085,41.23858494179025,2.6719172765851544,0.6477741774878345,B,1288,Correct
1,relearn,5,584,B,66.55499401339752,56.856442271771854,3.3277497006698757,0.893098906751253,B,1200,Correct
1,relearn,5,585,A,67.62990318225026,80.06078698562659,3.3814951591125126,1.257591901173309,A,936,Incorrect
1,relearn,5,586,A,23.71766174143896,48.64727041443444,1.185883087071948,0.7641495367559166,A,1081,Correct
1,relearn,5,587,B,58.22916847813957,41.57861921885445,2.9114584239069785,0.6531154234218026,A,1031,Incorrect
1,relearn,5,588,B,76.73326652936572,52.206950535600654,3.836663326468286,0.8200648613448436,A,1226,Incorrect
1,relearn,5,589,A,27.92756546583113,52.51280817271601,1.3963782732915564,0.8248692618738733,107,3086,Incorrect
1,relearn,5,590,B,63.41784551664124,52.31183397635979,3.170892275832062,0.8217123665797044,B,1528,Correct
1,relearn,5,591,B,51.366646995926054,22.571923503591144,2.568332349796303,0.35455894528136367,A,735,Incorrect
1,relearn,5,592,B,74.1805852572082,61.93420012353913,3.7090292628604096,0.9728601405703529,A,1708,Incorrect
1,relearn,5,593,A,40.45889068739593,54.38355274302134,2.0229445343697963,0.8542548488679446,B,1080,Correct
1,relearn,5,594,A,22.148211522875144,43.74239962895825,1.1074105761437572,0.6871040066236208,B,1193,Incorrect
1,relearn,5,595,A,48.16363421065468,70.75013849385347,2.408181710532734,1.1113405766637525,B,701,Correct
1,relearn,5,596,B,37.49504826038502,12.005712170988843,1.874752413019251,0.18858528578746056,A,698,Incorrect
1,relearn,5,597,A,35.582674168482505,55.726195465045414,1.7791337084241252,0.8753450314274775,B,565,Incorrect
1,relearn,5,598,A,24.131709901629357,48.75016282442311,1.2065854950814678,0.7657657669525694,B,944,Incorrect
1,relearn,5,599,A,51.24243729723238,74.55328056260696,2.562121864861619,1.1710801925825236,A,974,Correct
1,relearn,5,600,B,39.166807497477535,19.602475660887098,1.9583403748738766,0.30791496764207815,A,673,Incorrect
1,relearn,5,601,A,36.96069904901971,48.38199290935866,1.8480349524509854,0.7599825674503732,B,978,Incorrect
1,relearn,5,602,B,63.494732504020604,38.663483816046835,3.17473662520103,0.607324583593403,B,1336,Correct
1,relearn,5,603,B,49.54579709073894,23.462724052534508,2.477289854536947,0.36855160758323474,A,980,Incorrect
1,relearn,5,604,A,47.91422100301607,75.22616124548898,2.395711050150803,1.1816497776329469,B,1178,Incorrect
1,relearn,5,605,B,52.59487930931171,29.203226846117573,2.629743965465585,0.4587232146043959,A,4276,Incorrect
1,relearn,5,606,A,40.96098655675405,54.169329319161406,2.0480493278377025,0.8508898351948182,A,1419,Correct
1,relearn,5,607,A,35.942114087104116,57.878838437060324,1.797105704355206,0.9091586681608962,A,1272,Correct
1,relearn,5,608,A,62.2078797568101,73.7838349550277,3.1103939878405047,1.158993769241984,B,1247,Incorrect
1,relearn,5,609,B,42.52839299962765,17.688095368216906,2.1264196499813823,0.2778439523239294,B,2264,Correct
1,relearn,5,610,A,33.04498962382944,43.07574069027359,1.652249481191472,0.6766321525025122,A,1386,Correct
1,relearn,5,611,A,41.367325906786256,49.29207314227283,2.0683662953393127,0.7742780743198754,A,945,Correct
1,relearn,5,612,B,41.738159392735454,15.29447559166973,2.0869079696367727,0.24024506079649016,B,1577,Correct
1,relearn,5,613,B,38.850975089524404,26.775421057869465,1.9425487544762203,0.42058733046088087,B,1307,Correct
1,relearn,5,614,B,33.792087742087574,10.709851127439709,1.6896043871043787,0.16822994811502476,B,1210,Correct
1,relearn,5,615,B,64.02701979308951,46.462689836969325,3.2013509896544754,0.7298342252892198,A,843,Incorrect
1,relearn,5,616,A,55.16449265085517,72.42348904398004,2.758224632542759,1.1376255056395428,B,904,Incorrect
1,relearn,5,617,B,79.78889213687114,62.36335498671018,3.989444606843557,0.9796012893973054,B,1129,Correct
1,relearn,5,618,A,47.50407102488407,77.52087235669059,2.3752035512442036,1.217695015478256,B,1024,Incorrect
1,relearn,5,619,A,27.406090076925576,57.64829871557396,1.3703045038462787,0.9055373586839852,A,599,Correct
1,relearn,5,620,B,44.10245405656977,21.293812319314206,2.2051227028284885,0.33448242174638676,B,832,Correct
1,relearn,5,621,B,39.58142477226137,29.65733458473869,1.9790712386130684,0.46585632228234786,A,1700,Incorrect
1,relearn,5,622,B,74.72671044961325,47.97386895936157,3.7363355224806627,0.7535717714350486,A,1456,Incorrect
1,relearn,5,623,B,71.46005344413214,52.040604612194834,3.573002672206607,0.817451905690212,B,778,Correct
1,relearn,5,624,B,69.09107518281131,49.72752141355135,3.4545537591405657,0.7811180797702103,B,1132,Correct
1,relearn,5,625,A,18.361658771218707,43.24911310736975,0.9180829385609354,0.6793554800619342,A,897,Correct
1,relearn,5,626,B,40.76077503570726,25.541854247686054,2.038038751785363,0.4012105083179588,A,1033,Incorrect
1,relearn,5,627,B,78.33932135983459,51.5313821968534,3.916966067991729,0.8094530586948124,B,2564,Correct
1,relearn,5,628,A,11.578531357200877,38.19016174744614,0.5789265678600438,0.5998896579259135,A,1963,Correct
1,relearn,5,629,B,59.058267200460214,40.728601932346514,2.9529133600230106,0.6397633831082143,B,2787,Correct
1,relearn,5,630,A,14.681245556537284,42.95627318293216,0.7340622778268642,0.6747555612854795,A,677,Correct
1,relearn,5,631,A,39.87162075305182,63.26000243178711,1.993581037652591,0.993685794528874,A,1015,Correct
1,relearn,5,632,B,70.56264561454584,53.96030656858917,3.528132280727292,0.8476065135066638,B,2163,Correct
1,relearn,5,633,A,59.63367633737826,86.79831607458945,2.981683816868913,1.3634247606194754,A,1952,Correct
1,relearn,5,634,A,44.2538062888577,73.85223122565289,2.2126903144428853,1.1600681353486293,B,1530,Incorrect
1,relearn,5,635,A,59.31084569353826,72.37335771075279,2.965542284676913,1.1368380444986357,B,905,Incorrect
1,relearn,5,636,A,56.82535361921338,83.72443158891886,2.841267680960669,1.3151402960286436,A,1280,Correct
1,relearn,5,637,B,47.72688284571826,23.910458470820164,2.3863441422859126,0.37558460337946237,B,1365,Correct
1,relearn,5,638,A,33.10729380053006,64.35187864421273,1.6553646900265029,1.0108369459668032,A,1406,Correct
1,relearn,5,639,B,81.39244974158441,53.36409472147107,4.06962248707922,0.8382412397122169,B,1875,Correct
1,relearn,5,640,B,36.10083788187988,13.876142748415248,1.8050418940939943,0.21796594059292312,A,2085,Incorrect
1,relearn,5,641,A,43.995744477708314,69.62188497524315,2.1997872238854157,1.0936180118364873,A,1317,Correct
1,relearn,5,642,A,49.07841785577571,64.23672961063942,2.4539208927887857,1.0090281891770936,A,1164,Correct
1,relearn,5,643,B,88.96856635267564,66.01316345576743,4.448428317633781,1.036932346764306,B,1079,Correct
1,relearn,5,644,B,53.767174014878805,46.343167465326665,2.6883587007439407,0.727956772265759,B,1435,Correct
1,relearn,5,645,B,35.76247182244798,24.00594641170519,1.788123591122399,0.3770845244474164,A,603,Incorrect
1,relearn,5,646,A,51.93042151935174,61.28410536481412,2.596521075967587,0.9626484759796143,A,1584,Correct
1,relearn,5,647,B,53.80488780741929,22.702535828442517,2.6902443903709643,0.3566105988824704,B,1435,Correct
1,relearn,5,648,A,29.80716704945148,52.42861035118475,1.490358352472574,0.8235466855860191,A,842,Correct
1,relearn,5,649,B,36.62244578034405,20.704529564780326,1.8311222890172025,0.32522598988373275,A,1303,Incorrect
1,relearn,5,650,A,59.178583019919685,70.90724311198676,2.9589291509959845,1.1138083702346153,A,1319,Correct
1,relearn,5,651,A,50.45080456739046,68.42040779917119,2.522540228369523,1.0747452524874699,B,750,Incorrect
1,relearn,5,652,A,35.40020849502412,47.05941975867461,1.7700104247512058,0.7392076369802526,A,978,Correct
1,relearn,5,653,B,40.12058835221204,31.689856800871823,2.006029417610602,0.4977831065946573,A,860,Incorrect
1,relearn,5,654,B,61.93322503077426,50.3694327839756,3.096661251538713,0.7912011999981131,A,495,Incorrect
1,relearn,5,655,A,16.115259419098592,33.45342357921895,0.8057629709549297,0.525485148769509,B,276,Incorrect
1,relearn,5,656,B,56.22907020556269,25.530961883777774,2.811453510278135,0.40103941146578637,107,496,Incorrect
1,relearn,5,657,A,48.403344080967514,67.2742815171423,2.4201672040483757,1.0567419429489293,B,1125,Incorrect
1,relearn,5,658,A,57.95222606516772,73.80639266361858,2.8976113032583863,1.1593481048999388,A,1040,Correct
1,relearn,5,659,B,69.81207586710342,37.567035748773115,3.490603793355171,0.5901016176274537,A,682,Incorrect
1,relearn,5,660,B,71.54086926586825,56.27635360149589,3.5770434632934127,0.883986895226405,A,800,Incorrect
1,relearn,5,661,A,32.665915714664166,54.11810507620952,1.6332957857332082,0.8500852066681015,A,982,Correct
1,relearn,5,662,A,41.612731443810134,64.808094921678,2.0806365721905067,1.018003174495468,B,1586,Incorrect
1,relearn,5,663,B,51.71669845566534,36.964514890316934,2.585834922783267,0.580637242114651,B,1062,Correct
1,relearn,5,664,B,66.81362402436841,57.42019733657415,3.3406812012184206,0.9019543506012877,B,1256,Correct
1,relearn,5,665,A,44.79226813286421,57.41843482525104,2.23961340664321,0.901926665138165,A,1738,Correct
1,relearn,5,666,A,26.36531008222051,45.156082616539,1.3182655041110254,0.7093100870650635,A,1201,Correct
1,relearn,5,667,B,71.72546252489954,42.65773200241723,3.586273126244977,0.6700660873879808,B,1270,Correct
1,relearn,5,668,B,69.67285661192224,54.72904868937565,3.4836428305961125,0.8596818865025031,A,1583,Incorrect
1,relearn,5,669,B,46.41054974124148,30.673516568470898,2.320527487062074,0.4818184715563649,A,1195,Incorrect
1,relearn,5,670,A,48.09359887022889,57.833535133777055,2.4046799435114448,0.9084470455370061,B,1515,Incorrect
1,relearn,5,671,B,74.38327994825627,44.36039359555199,3.7191639974128132,0.6968114331506893,B,1220,Correct
1,relearn,5,672,B,54.85478051196132,41.62297111692482,2.742739025598066,0.6538121014075559,A,1518,Incorrect
1,relearn,5,673,A,43.543079360086026,51.627607501107086,2.1771539680043013,0.8109645622394765,A,1567,Correct
1,relearn,5,674,A,36.79214601617343,63.57417633398711,1.8396073008086717,0.9986208266443799,A,1084,Correct
1,relearn,5,675,B,79.03713234637006,61.1230323351332,3.9518566173185032,0.9601183467459292,B,1112,Correct
1,relearn,5,676,B,86.72233664851873,60.91010804073848,4.336116832425937,0.956773739750723,B,1086,Correct
1,relearn,5,677,A,51.78851962602417,76.44395356752264,2.589425981301208,1.200778814695442,A,1436,Correct
1,relearn,5,678,A,46.07357517725957,76.15693435192892,2.3036787588629783,1.1962703273997002,A,862,Correct
1,relearn,5,679,B,71.16807871639631,50.04950689276964,3.558403935819815,0.786175815850584,A,1395,Incorrect
1,relearn,5,680,A,23.448712889195594,39.94706208412809,1.1724356444597797,0.6274869838799609,A,1139,Correct
1,relearn,5,681,A,59.65435253212712,75.67075007971752,2.982717626606356,1.1886333627103491,B,774,Incorrect
1,relearn,5,682,A,30.403089844497707,58.93119644064763,1.5201544922248855,0.9256890690259779,A,919,Correct
1,relearn,5,683,B,73.42196120770669,42.73167828181095,3.6710980603853343,0.671227632828499,B,1315,Correct
1,relearn,5,684,B,46.00642221043461,32.78181489686927,2.3003211105217303,0.5149355442567247,A,1158,Incorrect
1,relearn,5,685,A,33.55433511143027,50.33864883453105,1.6777167555715136,0.7907176468509958,A,2386,Correct
1,relearn,5,686,A,22.460878201060055,45.96817688136276,1.1230439100530027,0.7220664339470271,A,1208,Correct
1,relearn,5,687,B,51.43916569566615,41.62455257876035,2.571958284783307,0.653836942951978,B,741,Correct
1,relearn,5,688,A,52.04613795736504,74.40396654037588,2.602306897868252,1.1687347734059281,A,1834,Correct
1,relearn,5,689,B,71.99898106966202,59.33034481397566,3.599949053483101,0.931958877012676,B,1058,Correct
1,relearn,5,690,B,45.267563297725594,21.332495802550277,2.2633781648862796,0.3350900604801352,A,973,Incorrect
1,relearn,5,691,A,35.476651238806,48.41418334949851,1.7738325619403,0.760488213701669,B,1825,Incorrect
1,relearn,5,692,B,81.74639586045319,58.894612965825985,4.087319793022659,0.9251144171472655,B,906,Correct
1,relearn,5,693,A,47.163144363694336,72.42927940712546,2.358157218184717,1.1377164604511392,A,1556,Correct
1,relearn,5,694,A,49.31149215974878,79.46615508353074,2.465574607987439,1.2482514450972368,B,1589,Incorrect
1,relearn,5,695,B,53.17691242192171,45.17025098455038,2.6588456210960856,0.709532643269353,A,4655,Incorrect
1,relearn,5,696,B,36.99420776175366,23.931315847868788,1.849710388087683,0.37591223029200777,A,794,Incorrect
1,relearn,5,697,A,30.67224137970743,63.897487807931505,1.5336120689853714,1.003699391401205,A,1192,Correct
1,relearn,5,698,B,60.678074814161505,48.83753567070516,3.0339037407080753,0.7671382164125838,B,7630,Correct
1,relearn,5,699,B,51.30764807726826,29.81328337346092,2.5653824038634134,0.4683059601272777,B,1150,Correct
1,relearn,5,700,B,57.22324034883779,35.45870363232919,2.86116201744189,0.5569840141857155,B,1700,Correct
1,relearn,5,701,B,85.42619612772205,58.21520281927073,4.271309806386102,0.9144422675213038,A,1305,Incorrect
1,relearn,5,702,A,39.04803383488178,69.31814925473098,1.952401691744089,1.0888469422955185,A,1056,Correct
1,relearn,5,703,B,82.61300645895284,52.099383311617615,4.130650322947642,0.8183751993416829,B,879,Correct
1,relearn,5,704,A,55.620650611085146,80.41326725281161,2.7810325305542576,1.2631286482629283,A,851,Correct
1,relearn,5,705,A,66.04575371032172,82.45189467265374,3.302287685516086,1.295151332890842,A,996,Correct
1,relearn,5,706,A,42.930857539041895,62.50513528326549,2.1465428769520947,0.9818283690877152,A,751,Correct
1,relearn,5,707,B,66.59200365826591,54.42583206404722,3.3296001829132957,0.8549189708896129,B,681,Correct
1,relearn,5,708,B,43.720155067273836,29.854221258541813,2.1860077533636915,0.46894901092239594,B,741,Correct
1,relearn,5,709,B,45.04705111828622,15.340519064835178,2.252352555914311,0.24096830998170177,B,905,Correct
1,relearn,5,710,B,67.15015005119255,44.54551234915407,3.3575075025596277,0.6997192717324793,B,1013,Correct
1,relearn,5,711,A,63.25701140862178,88.63066580338099,3.162850570431089,1.3922072428533692,A,914,Correct
1,relearn,5,712,A,40.80459032090995,70.35425436404631,2.0402295160454975,1.1051220432943778,A,1005,Correct
1,relearn,5,713,A,49.36581678237165,59.4255411218264,2.4682908391185827,0.9334542171196399,B,1272,Incorrect
1,relearn,5,714,A,52.495078125269984,80.85705441351959,2.624753906263499,1.2700996406821166,A,846,Correct
1,relearn,5,715,A,29.633957266109164,46.49827725211555,1.4816978633054583,0.730393231099138,B,910,Incorrect
1,relearn,5,716,B,76.85497077325537,50.15400676382959,3.842748538662769,0.7878172959866991,B,888,Correct
1,relearn,5,717,B,58.985783300907585,34.854698191675716,2.9492891650453794,0.5474963189102894,A,848,Incorrect
1,relearn,5,718,B,57.1662740616526,41.50216140349406,2.8583137030826298,0.651914426866574,B,654,Correct
1,relearn,5,719,B,83.39366118320838,57.88882185092831,4.169683059160419,0.9093154872592234,B,912,Correct
1,relearn,5,720,A,41.08379932311189,64.11256414455741,2.0541899661555947,1.0070778025967297,A,1341,Correct
1,relearn,5,721,A,24.41835615216076,44.10936888988216,1.220917807608038,0.6928683462946797,A,1050,Correct
1,relearn,5,722,A,52.8588884365011,69.98906273893022,2.642944421825055,1.0993856266612916,B,1907,Incorrect
1,relearn,5,723,A,26.52317830031084,44.861666111569576,1.326158915015542,0.7046854034195259,A,636,Correct
1,relearn,5,724,B,84.37298629445542,67.90419332126997,4.218649314722771,1.066636574430214,B,1021,Correct
1,relearn,5,725,A,39.71503491745858,47.457887403093665,1.985751745872929,0.7454667521022532,A,1019,Correct
1,relearn,5,726,B,48.82775344011982,39.47937225019765,2.441387672005991,0.6201405291477884,A,950,Incorrect
1,relearn,5,727,B,70.76854432777014,37.643654691559995,3.538427216388507,0.5913051451663792,B,932,Correct
1,relearn,5,728,B,59.446600862696016,29.80775095476683,2.972330043134801,0.46821905709764805,100,3416,Incorrect
1,relearn,5,729,B,46.77018547112062,35.489890439836124,2.338509273556031,0.5574738954124789,B,705,Correct
1,relearn,5,730,B,36.304823836404815,12.120980463054835,1.8152411918202407,0.1903959158851924,A,944,Incorrect
1,relearn,5,731,B,62.63972582145942,50.7036768127154,3.131986291072971,0.7964514929240891,A,1026,Incorrect
1,relearn,5,732,A,25.608142827289207,50.01954661725254,1.2804071413644604,0.7857052009432639,A,939,Correct
1,relearn,5,733,A,69.02739795900825,87.28504446729411,3.4513698979504124,1.371070272333548,B,919,Incorrect
1,relearn,5,734,A,20.026678286281605,48.148651910930575,1.0013339143140803,0.7563172556181582,A,698,Correct
1,relearn,5,735,B,54.89883333890307,25.661022433892796,2.7449416669451536,0.40308239780960237,A,765,Incorrect
1,relearn,5,736,A,65.53254789931007,79.49085726824079,3.276627394965504,1.2486394661073004,A,884,Correct
1,relearn,5,737,A,28.919655972901715,45.89540085643107,1.445982798645086,0.7209232708206127,B,1336,Incorrect
1,relearn,5,738,A,67.19082799686426,82.24765177988165,3.359541399843213,1.2919430930334384,A,1611,Correct
1,relearn,5,739,B,78.61271440466456,61.26724193033522,3.930635720233228,0.9623835857702484,A,1719,Incorrect
1,relearn,5,740,A,23.46879526159051,42.970378715213926,1.1734397630795257,0.6749771304684363,B,1628,Incorrect
1,relearn,5,741,B,47.548488958589054,36.12171222008503,2.3774244479294526,0.5673985287285189,A,1854,Incorrect
1,relearn,5,742,B,61.60715093840541,47.103748602679495,3.0803575469202706,0.7399039528335919,B,748,Correct
1,relearn,5,743,B,54.833752662347344,25.888684958284863,2.741687633117367,0.4066585123802415,44,1581,Correct
1,relearn,5,744,A,32.87330575307522,55.27182825610151,1.643665287653761,0.8682078479992261,B,567,Incorrect
1,relearn,5,745,B,77.02419140344693,59.66606541794195,3.8512095701723466,0.9372323639280722,A,743,Incorrect
1,relearn,5,746,A,36.2322598080867,67.33951624450307,1.811612990404335,1.057766647650107,A,782,Correct
1,relearn,5,747,B,46.31901847354011,21.813949075997805,2.3159509236770055,0.3426527108146828,B,900,Correct
1,relearn,5,748,B,72.80817018693875,41.522629960635804,3.640408509346938,0.6522359462103043,B,792,Correct
1,relearn,5,749,A,35.04067698319953,61.798158257731714,1.7520338491599767,0.9707231999393469,B,678,Incorrect
1,relearn,5,750,A,27.106708710873754,56.52968853235884,1.3553354355436877,0.8879662710148885,A,770,Correct
1,relearn,5,751,A,51.79338957315275,80.77146510541724,2.5896694786576377,1.2687552069743155,A,468,Correct
1,relearn,5,752,B,71.23550888886032,58.98095150900552,3.561775444443016,0.926470619812138,A,824,Incorrect
1,relearn,5,753,B,71.38305531524443,53.365462034230546,3.5691527657622215,0.8382627174108185,B,322,Correct
1,relearn,5,754,B,82.20670392331806,56.80150646159293,4.110335196165903,0.8922359770628675,A,716,Incorrect
1,relearn,5,755,A,54.73823019449469,83.1129860114295,2.7369115097247345,1.3055357313570908,A,613,Correct
1,relearn,5,756,A,46.48753791892072,73.71530470784361,2.3243768959460365,1.157917298636473,A,971,Correct
1,relearn,5,757,A,59.77372320107153,82.56730723666101,2.988686160053577,1.2969642292069279,A,823,Correct
1,relearn,5,758,A,46.15393407086504,68.61719491567438,2.307696703543252,1.0778363772851074,A,369,Correct
1,relearn,5,759,A,46.192086602096154,59.91739663135862,2.3096043301048077,0.9411802653965101,A,580,Correct
1,relearn,5,760,A,64.62102973283146,82.35306066236554,3.231051486641573,1.2935988518876107,B,826,Incorrect
1,relearn,5,761,B,63.841344898584374,32.31975561241371,3.1920672449292185,0.5076775339888819,A,665,Incorrect
1,relearn,5,762,B,71.13752154033115,46.649817205423616,3.5568760770165575,0.7327736151193278,B,1209,Correct
1,relearn,5,763,A,37.55362032265912,57.13286618652595,1.8776810161329562,0.8974409634505932,A,1764,Correct
1,relearn,5,764,B,71.99271711662968,51.89554227953524,3.599635855831484,0.8151732718972321,A,942,Incorrect
1,relearn,5,765,A,17.840045894189927,48.81682335341616,0.8920022947094963,0.7668128680934143,A,820,Correct
1,relearn,5,766,A,22.21148661684798,44.66496076546072,1.110574330842399,0.7015955630682387,A,1026,Correct
1,relearn,5,767,B,54.47141119028641,34.64899135749142,2.7235705595143207,0.5442650835149563,B,1267,Correct
1,relearn,5,768,B,41.261726964883394,27.550234631118848,2.0630863482441697,0.4327580736089903,A,1581,Incorrect
1,relearn,5,769,A,55.90675806820864,68.79496746473221,2.7953379034104318,1.0806288219557578,B,3664,Incorrect
1,relearn,5,770,B,54.99397467869089,33.196445003055516,2.7496987339345447,0.521448538734484,A,1530,Incorrect
1,relearn,5,771,B,36.19094582062919,11.325248865022296,1.8095472910314596,0.1778965931721509,A,2709,Incorrect
1,relearn,5,772,A,18.259578969647546,44.80413472693243,0.9129789484823774,0.7037817025428913,A,1299,Correct
1,relearn,5,773,B,67.1838206212219,55.801114489102304,3.359191031061095,0.8765218567054338,A,1622,Incorrect
1,relearn,5,774,A,30.614609129565725,40.69385246046038,1.5307304564782862,0.6392175396802462,A,1063,Correct
1,relearn,5,775,B,60.52566657241687,49.114852133873946,3.0262833286208433,0.7714942932296368,A,851,Incorrect
1,relearn,5,776,B,47.263053482086384,19.924373223375436,2.363152674104319,0.3129713227296873,A,376,Incorrect
1,relearn,5,777,B,64.36945596829953,42.14044026323403,3.2184727984149766,0.6619404877500776,A,384,Incorrect
1,relearn,5,778,B,34.52492626205532,20.117053282395762,1.7262463131027659,0.3159979340192448,A,1085,Incorrect
1,relearn,5,779,A,13.535832715968752,38.257695096651844,0.6767916357984376,0.6009504692945984,A,1074,Correct
1,relearn,5,780,A,11.36577364138219,30.63161102214371,0.5682886820691095,0.4811602207739341,A,608,Correct
1,relearn,5,781,A,66.28532107812781,83.08460476508196,3.3142660539063904,1.3050899197819652,B,1161,Incorrect
1,relearn,5,782,B,69.19309536992364,44.581404519286664,3.459654768496182,0.700283064622529,A,612,Incorrect
1,relearn,5,783,B,47.79711501625528,29.250727790915228,2.3898557508127642,0.4594693577004704,A,1082,Incorrect
1,relearn,5,784,A,54.257138577154386,64.96857571960008,2.7128569288577196,1.0205240009744392,B,724,Incorrect
1,relearn,5,785,B,64.35968460584274,38.3700967086413,3.2179842302921373,0.602716069686987,B,2213,Correct
1,relearn,5,786,B,45.54210364411758,18.982156365495044,2.277105182205879,0.2981710149356598,A,1442,Incorrect
1,relearn,5,787,A,27.34331986334888,49.10904436760536,1.367165993167444,0.7714030650504209,A,2663,Correct
1,relearn,5,788,A,25.25639486802193,46.802342832314416,1.2628197434010964,0.7351694820639496,A,2093,Correct
1,relearn,5,789,B,65.26164225080358,31.94710716834937,3.2630821125401788,0.501823985917661,A,953,Incorrect
1,relearn,5,790,B,56.941733531266394,39.58208518360902,2.8470866765633196,0.6217539401329575,A,1464,Incorrect
1,relearn,5,791,A,36.589945541260384,51.380720066451886,1.8294972770630193,0.8070864634845946,A,1258,Correct
1,relearn,5,792,B,42.987913035657286,31.318733784609,2.1493956517828643,0.49195351988731056,100,2461,Correct
1,relearn,5,793,A,49.010499372254884,58.33681468941914,2.4505249686127444,0.9163525423105415,100,487,Incorrect
1,relearn,5,794,A,18.559723183880514,34.41300935925877,0.9279861591940258,0.5405582869548208,107,559,Correct
1,relearn,5,795,A,51.36559998073308,68.16220554460327,2.568279999036654,1.0706894209570155,100,376,Incorrect
1,relearn,5,796,B,38.95972706727607,24.48075800949583,1.9479863533638035,0.3845428475847079,100,523,Correct
1,relearn,5,797,B,48.85291491341944,34.756114801875796,2.4426457456709723,0.5459477746444823,100,768,Correct
1,relearn,5,798,A,24.694784765491164,54.571872379894984,1.2347392382745581,0.857212966806589,B,894,Incorrect
1,relearn,5,799,B,50.10401626590939,20.947404861899553,2.5052008132954695,0.32904106612957373,A,299,Incorrect
1,relearn,5,800,A,17.769227953181,44.42298409196449,0.8884613976590501,0.6977946023692594,107,1398,Correct
1,relearn,5,801,A,27.23697155382507,58.13950303636083,1.3618485776912537,0.9132531781119633,B,1123,Incorrect
1,relearn,5,802,B,67.46133125621505,44.14745327909259,3.3730665628107523,0.6934665744814794,A,536,Incorrect
1,relearn,5,803,B,41.47787010153,21.327706606143163,2.0738935050765,0.3350148319588893,100,744,Correct
1,relearn,5,804,A,43.18700289687865,67.64378399453125,2.1593501448439327,1.062546074291171,A,1034,Correct
1,relearn,5,805,A,35.572261278770554,64.37138835519937,1.7786130639385278,1.0111434037903495,100,3269,Incorrect
1,relearn,5,806,B,63.01448718636538,45.850475080285456,3.1507243593182688,0.7202175783791335,B,812,Correct
1,relearn,5,807,A,23.056649573012315,52.77778047916428,1.1528324786506159,0.8290314371305865,B,1634,Incorrect
1,relearn,5,808,B,36.6331326847266,22.903756676878487,1.8316566342363299,0.35977136857844816,B,1200,Correct
1,relearn,5,809,A,19.600860435275028,43.078630957349745,0.9800430217637514,0.676677552711579,A,844,Correct
1,relearn,5,810,B,68.80157933288882,57.884456072228716,3.440078966644441,0.9092469097677742,A,1035,Incorrect
1,relearn,5,811,A,25.250225544967478,37.892467398889565,1.262511277248374,0.5952134860337109,A,767,Correct
1,relearn,5,812,B,37.366041618964616,22.16732761266559,1.868302080948231,0.34820356788834195,B,1858,Correct
1,relearn,5,813,A,24.555126439595487,53.656663467924034,1.2277563219797742,0.8428368988348498,A,1584,Correct
1,relearn,5,814,B,36.075096229453905,19.501354140346738,1.8037548114726951,0.306326554511831,A,2282,Incorrect
1,relearn,5,815,B,59.750775071826325,45.77436496340547,2.987538753591316,0.7190220434588631,B,560,Correct
1,relearn,5,816,B,55.83612513125718,42.580670094866,2.7918062565628587,0.6688556017748081,B,939,Correct
1,relearn,5,817,A,48.87573430393556,74.11380185503131,2.443786715196778,1.1641768771868797,A,1169,Correct
1,relearn,5,818,A,56.75492170240793,69.99720569081664,2.8377460851203966,1.0995135358504162,A,963,Correct
1,relearn,5,819,B,49.710316427574966,22.413647120383708,2.4855158213787485,0.35207274566775737,A,794,Incorrect
1,relearn,5,820,B,80.49932098107516,53.11799000087129,4.0249660490537575,0.8343754358009665,A,586,Incorrect
1,relearn,5,821,B,41.35345633781314,20.795036641605808,2.0676728168906573,0.3266476717219969,A,1176,Incorrect
1,relearn,5,822,A,19.121024201859782,39.5472104808084,0.9560512100929891,0.6212061295823847,A,655,Correct
1,relearn,5,823,A,26.822425783814296,52.81015787160268,1.341121289190715,0.8295400200217208,A,590,Correct
1,relearn,5,824,A,29.954861733632605,57.03764232910563,1.4977430866816304,0.8959451905960023,B,1033,Incorrect
1,relearn,5,825,B,41.453134802281255,27.513875131316347,2.0726567401140628,0.4321869399216517,100,4195,Incorrect
1,relearn,5,826,A,52.2739009844261,65.87627295337445,2.6136950492213047,1.034782075780986,B,785,Incorrect
1,relearn,5,827,A,57.19538795608789,81.24025623044702,2.8597693978043948,1.276118960746624,A,465,Correct
1,relearn,5,828,B,45.34322310657531,27.42718389457999,2.267161155328765,0.43082519715934386,A,973,Incorrect
1,relearn,5,829,B,54.58437269345136,30.52532382785666,2.729218634672568,0.47949066543021973,A,836,Incorrect
1,relearn,5,830,B,68.32254329295743,42.70350064758055,3.4161271646478717,0.6707850195850301,B,855,Correct
1,relearn,5,831,B,72.2586375971621,61.827982084154925,3.612931879858105,0.9711916715093123,A,1447,Incorrect
1,relearn,5,832,B,79.8738534981327,49.94245026190619,3.993692674906635,0.7844941742253906,B,1007,Correct
1,relearn,5,833,B,46.52059409959283,33.84827089571326,2.326029704979641,0.5316873959134499,A,829,Incorrect
1,relearn,5,834,B,60.170298634163224,45.13592125025071,3.008514931708161,0.7089933930639754,B,1049,Correct
1,relearn,5,835,B,62.764799956607106,44.952242787890334,3.1382399978303557,0.706108178524105,B,573,Correct
1,relearn,5,836,A,58.36486360227234,71.5285517998179,2.918243180113617,1.1235678642811247,A,825,Correct
1,relearn,5,837,B,72.55912421791672,43.323962161348796,3.627956210895836,0.6805312062524778,A,689,Incorrect
1,relearn,5,838,B,58.56399323995432,27.119519776301672,2.928199661997716,0.4259924204905623,B,547,Correct
1,relearn,5,839,B,83.8699109102555,61.028383257153095,4.193495545512775,0.9586316025056726,B,624,Correct
1,relearn,5,840,A,52.58133390600766,59.49198571606311,2.629066695300383,0.9344979263652639,A,1021,Correct
1,relearn,5,841,A,42.47908831722863,63.52195498474999,2.1239544158614314,0.9978005356087606,A,487,Correct
1,relearn,5,842,B,49.618999371267094,30.429655291352752,2.4809499685633547,0.47798790757291787,A,853,Incorrect
1,relearn,5,843,A,64.6135454361613,85.67422526281463,3.230677271808065,1.3457675834382776,B,685,Incorrect
1,relearn,5,844,B,73.13853903409431,50.90430383194978,3.6569269517047154,0.799602934772781,A,416,Incorrect
1,relearn,5,845,A,54.9007086314754,62.71142639995017,2.74503543157377,0.9850687823711024,A,623,Correct
1,relearn,5,846,A,18.095009911769928,36.561938168787556,0.9047504955884963,0.5743135817603362,A,1120,Correct
1,relearn,5,847,B,37.01285722632146,23.092222679211705,1.8506428613160728,0.3627317856203556,107,1916,Incorrect
1,relearn,5,848,B,69.08792676205087,46.968505182349446,3.4543963381025433,0.7377795541548158,B,772,Correct
1,relearn,5,849,B,73.69317738989874,49.04625527653206,3.6846588694949367,0.7704167763142137,B,707,Correct
1,relearn,5,850,B,61.6693649988643,41.416623017546804,3.0834682499432153,0.6505707930421148,B,567,Correct
1,relearn,5,851,A,33.810798652020296,48.38635263945834,1.6905399326010149,0.760051049930637,B,510,Incorrect
1,relearn,5,852,B,67.076216450355,38.23264662850272,3.35381082251775,0.6005570088769935,A,534,Incorrect
1,relearn,5,853,B,81.28224321909168,56.176078888507696,4.0641121609545845,0.8824117837180822,B,468,Correct
1,relearn,5,854,A,49.55438920053934,62.15630574861519,2.4777194600269667,0.9763489675706525,A,638,Correct
1,relearn,5,855,B,82.66951179223258,60.813185333331305,4.1334755896116295,0.9552512814229408,B,916,Correct
1,relearn,5,856,A,47.53916801860603,56.23341876813664,2.3769584009303015,0.8833124764410821,B,713,Incorrect
1,relearn,5,857,B,54.782265995631306,35.802390181553896,2.739113299781565,0.5623826298766252,A,572,Incorrect
1,relearn,5,858,A,33.65039361373559,42.76805551089251,1.6825196806867795,0.6717990450067018,A,856,Correct
1,relearn,5,859,B,60.65933736245198,43.78008807133155,3.032966868122599,0.6876960152920466,A,1007,Incorrect
1,relearn,5,860,A,16.58960066786401,41.3617236435492,0.8294800333932004,0.649708435691927,A,931,Correct
1,relearn,5,861,B,36.991748821006745,13.598349465022451,1.8495874410503372,0.2136023739013061,B,701,Correct
1,relearn,5,862,B,32.52677400967209,15.015891367325445,1.6263387004836045,0.23586907003346005,B,1660,Correct
1,relearn,5,863,B,50.079482345943944,33.49877682182735,2.503974117297197,0.5261975558384842,B,903,Correct
1,relearn,5,864,A,28.685058173089764,59.240813635890454,1.4342529086544884,0.9305525245559775,A,989,Correct
1,relearn,5,865,B,45.28763613627803,29.875321999384468,2.2643818068139017,0.46928046058447886,B,907,Correct
1,relearn,5,866,A,21.467680193227416,46.778134162757986,1.0733840096613707,0.734789213171791,A,741,Correct
1,relearn,5,867,A,38.691104514328536,69.69764311722946,1.934555225716427,1.0948080179480564,A,811,Correct
1,relearn,5,868,A,42.045799523912315,73.93071469406375,2.1022899761956158,1.1613009507875682,A,681,Correct
1,relearn,5,869,A,58.356807470323126,67.69689970030848,2.917840373516156,1.0633804138464709,A,617,Correct
1,relearn,5,870,B,68.11059832566627,34.99560011223708,3.4055299162833137,0.5497096011028506,B,957,Correct
1,relearn,5,871,A,65.27020548244809,79.43447860939253,3.2635102741224045,1.2477538722050157,A,686,Correct
1,relearn,5,872,B,33.27132982749699,17.551780153301706,1.6635664913748496,0.27570271793517886,B,697,Correct
1,relearn,5,873,A,53.93846624194701,62.25926527123896,2.6969233120973506,0.9779662519701122,A,656,Correct
1,relearn,5,874,A,49.18473315168442,73.47609704852113,2.459236657584221,1.1541598335104233,A,591,Correct
1,relearn,5,875,B,82.97792264979378,60.582422091142746,4.148896132489689,0.9516264608910504,A,597,Incorrect
1,relearn,5,876,B,57.3175343722106,37.717185170426674,2.8658767186105303,0.5924601592274915,B,1550,Correct
1,relearn,5,877,B,45.97868423759454,19.447832158643156,2.298934211879727,0.3054858331892033,B,719,Correct
1,relearn,5,878,A,24.168984531801456,54.741356357691856,1.2084492265900728,0.8598752149043283,A,817,Correct
1,relearn,5,879,A,31.35442713687452,48.52981246677154,1.5677213568437258,0.7623045116284991,A,733,Correct
1,relearn,5,880,A,11.924059793932063,35.560298465868,0.5962029896966031,0.5585798620991564,A,772,Correct
1,relearn,5,881,A,27.89288071017708,44.49131864576824,1.394644035508854,0.6988679990303404,A,891,Correct
1,relearn,5,882,B,83.39426617665953,62.61337204769236,4.169713308832977,0.9835285482075741,A,524,Incorrect
1,relearn,5,883,B,50.35164899725298,34.673575204887335,2.5175824498626493,0.5446512456868363,A,640,Incorrect
1,relearn,5,884,A,30.184198141298715,43.3653599737346,1.5092099070649356,0.6811814815688073,B,483,Incorrect
1,relearn,5,885,B,46.44593888936954,33.18765870994203,2.322296944468477,0.521310523964996,A,640,Incorrect
1,relearn,5,886,B,39.34305482547036,27.39669463206728,1.967152741273518,0.43034627294372735,A,1414,Incorrect
1,relearn,5,887,A,28.983633977717552,53.93547729240814,1.4491816988858774,0.8472164961484425,B,1620,Incorrect
1,relearn,5,888,A,42.607614922178044,56.874226679293386,2.1303807461089024,0.8933782635713435,A,861,Correct
1,relearn,5,889,A,29.712562963572584,41.80991836307972,1.485628148178629,0.6567486618832012,A,538,Correct
1,relearn,5,890,B,79.85512363415631,48.89875884042647,3.992756181707816,0.7680999077137136,A,447,Incorrect
1,relearn,5,891,B,49.22298414078159,37.11536607677267,2.4611492070390795,0.5830068070104243,B,727,Correct
1,relearn,5,892,B,48.547779953394524,31.016547063831453,2.427388997669726,0.48720678197727474,A,904,Incorrect
1,relearn,5,893,B,47.247029781626246,16.716928270671126,2.362351489081312,0.26258889522863965,B,790,Correct
1,relearn,5,894,B,35.586796021369295,18.94219013875528,1.779339801068465,0.29754322691407303,B,706,Correct
1,relearn,5,895,B,54.396973338989284,38.642996729727365,2.719848666949464,0.6070027731940294,B,642,Correct
1,relearn,5,896,A,41.42745732044577,52.84066599333552,2.0713728660222883,0.8300192404772744,A,804,Correct
1,relearn,5,897,B,78.179846938683,48.05438837408507,3.90899234693415,0.7548365674438821,B,923,Correct
1,relearn,5,898,B,32.32763422240448,14.495308001579126,1.6163817111202237,0.22769176564641164,A,722,Incorrect
