experiment,condition,subject,trial,cat,x,y,xt,yt,resp,rt,fb
1,relearn,21,0,B,61.147069459636626,47.20174697513909,3.057353472981831,0.7414433076685061,B,3810,Correct
1,relearn,21,1,B,73.2033424149559,47.62216204507761,3.660167120747795,0.7480471721443924,B,818,Correct
1,relearn,21,2,B,33.06259645821616,11.52657436826409,1.653129822910808,0.18105900678197437,A,722,Incorrect
1,relearn,21,3,B,32.72815856993681,16.453137705534704,1.6364079284968402,0.2584452827210453,B,909,Correct
1,relearn,21,4,B,38.93856194738976,17.998046656637666,1.9469280973694878,0.28271265577729615,B,834,Correct
1,relearn,21,5,B,74.48677802864843,51.48183637452379,3.7243389014324215,0.8086747947375785,107,1017,Incorrect
1,relearn,21,6,A,25.81691922236964,51.115974469530926,1.2908459611184822,0.8029278493728089,B,726,Incorrect
1,relearn,21,7,B,59.80310056156145,40.681165467220225,2.9901550280780724,0.6390182528564492,B,2574,Correct
1,relearn,21,8,A,29.201970088431978,40.983566095653615,1.4600985044215988,0.6437683508200855,B,3678,Incorrect
1,relearn,21,9,B,78.68560253565151,65.70867388794213,3.9342801267825758,1.0321494358174321,B,665,Correct
1,relearn,21,10,B,65.93198446807062,48.539061141629894,3.296599223403531,0.7624497894734514,B,684,Correct
1,relearn,21,11,A,39.03344111278777,65.63748163188285,1.9516720556393887,1.0310311504742906,A,1005,Correct
1,relearn,21,12,A,38.175718504319086,52.90243380974555,1.9087859252159545,0.8309894870685846,A,786,Correct
1,relearn,21,13,B,55.48674347690113,32.82202370216765,2.7743371738450566,0.5155671426933998,B,641,Correct
1,relearn,21,14,B,42.60004363829928,26.147808295226746,2.130002181914964,0.41072881223879304,B,581,Correct
1,relearn,21,15,A,57.01469552820479,65.34266037317056,2.8507347764102393,1.0264001089718275,B,616,Incorrect
1,relearn,21,16,B,64.86124810263497,50.62316699788098,3.2430624051317487,0.7951868477099607,A,1029,Incorrect
1,relearn,21,17,A,68.64006316356662,86.78249004294665,3.4320031581783312,1.3631761658957526,A,1145,Correct
1,relearn,21,18,A,30.539495389246323,50.9537612809048,1.5269747694623161,0.8003798105642927,100,803,Incorrect
1,relearn,21,19,A,40.711353831087436,54.55102982673204,2.0355676915543715,0.8568855727470953,A,684,Correct
1,relearn,21,20,A,45.374974639343456,60.847367631317745,2.268748731967173,0.955788215704126,A,1011,Correct
1,relearn,21,21,B,68.39809275994995,55.409434052097566,3.419904637997497,0.8703693547881893,A,910,Incorrect
1,relearn,21,22,B,65.2347872460722,39.961296090874406,3.2617393623036097,0.6277105711350878,B,581,Correct
1,relearn,21,23,B,78.97699885979955,50.91805162701613,3.9488499429899777,0.7998188846326985,B,708,Correct
1,relearn,21,24,A,40.234474590068245,71.49030665398347,2.0117237295034123,1.1229671109351798,A,1062,Correct
1,relearn,21,25,B,79.5608822358524,61.4717496271449,3.9780441117926206,0.9655959851597475,B,1036,Correct
1,relearn,21,26,B,78.98730536596153,55.37722569086681,3.949365268298077,0.8698634270330556,B,661,Correct
1,relearn,21,27,A,60.37070136204309,80.56831081313337,3.0185350681021546,1.2655640668133945,B,625,Incorrect
1,relearn,21,28,A,34.285479199727476,51.65885267911892,1.7142739599863739,0.811455360347987,A,687,Correct
1,relearn,21,29,B,42.24531814496142,15.873628361395781,2.112265907248071,0.24934237122987785,A,913,Incorrect
1,relearn,21,30,B,71.01853232133614,51.33051418521817,3.550926616066807,0.8062978313463404,B,672,Correct
1,relearn,21,31,A,55.86055550808133,63.80587472270918,2.7930277754040667,1.0022603364236693,B,608,Incorrect
1,relearn,21,32,A,56.379552659360584,75.55310470757286,2.818977632968029,1.1867853935260564,A,443,Correct
1,relearn,21,33,B,58.266518093391696,30.233515994741946,2.913325904669585,0.4749069587063541,B,942,Correct
1,relearn,21,34,A,27.01543682645589,51.084092843234686,1.3507718413227945,0.8024270539580252,A,882,Correct
1,relearn,21,35,B,51.154168365714725,31.51894268125154,2.557708418285736,0.49509839388168814,B,1104,Correct
1,relearn,21,36,B,57.38540717729505,31.849643815921088,2.869270358864753,0.5002930351577464,B,753,Correct
1,relearn,21,37,B,41.41745942651333,15.22041848500879,2.0708729713256666,0.23908177448532947,A,620,Incorrect
1,relearn,21,38,B,57.94264955369804,33.727252051972634,2.897132477684902,0.5297864363612426,B,535,Correct
1,relearn,21,39,B,62.52010498608805,45.29608359206514,3.1260052493044026,0.711509217246105,B,510,Correct
1,relearn,21,40,B,53.561495467085436,39.60756538027323,2.678074773354272,0.622154182126219,B,606,Correct
1,relearn,21,41,A,15.19385622813213,38.89561800665818,0.7596928114066066,0.6109709389327611,B,922,Incorrect
1,relearn,21,42,A,39.662194306395904,47.511569556777864,1.9831097153197954,0.746309989400469,B,569,Incorrect
1,relearn,21,43,B,55.92127644851483,32.57394290277369,2.796063822425742,0.511670298609036,B,736,Correct
1,relearn,21,44,A,35.32220858022361,53.575273195719355,1.7661104290111806,0.8415584234286905,A,1905,Correct
1,relearn,21,45,A,37.33733661589841,66.97131989044642,1.8668668307949203,1.0519830328451922,A,795,Correct
1,relearn,21,46,A,23.027002876204026,40.63735354848292,1.1513501438102012,0.6383300568462252,A,1092,Correct
1,relearn,21,47,B,58.26953230703129,40.311245257701536,2.9134766153515645,0.6332075597932576,B,651,Correct
1,relearn,21,48,B,47.463479104925625,33.19844693159329,2.373173955246281,0.5214799849544204,B,756,Correct
1,relearn,21,49,B,77.65121763635842,52.972113779568105,3.882560881817921,0.8320840174750692,B,566,Correct
1,relearn,21,50,A,34.25810654974345,43.07328276660916,1.7129053274871726,0.6765935435278758,A,733,Correct
1,relearn,21,51,A,31.09047360547737,47.64342481713109,1.5545236802738684,0.7483811669867831,A,592,Correct
1,relearn,21,52,B,78.45305448501048,52.082565966489256,3.9226527242505242,0.8181110331021422,B,497,Correct
1,relearn,21,53,B,41.28094837401328,32.754329296421545,2.064047418700664,0.5145038014544944,A,646,Incorrect
1,relearn,21,54,B,51.87063279160845,25.741122852538183,2.593531639580423,0.4043406122434315,B,475,Correct
1,relearn,21,55,B,54.049561334428745,42.67141457585863,2.7024780667214374,0.6702810127490094,B,493,Correct
1,relearn,21,56,A,33.03680775921093,55.69664903790931,1.6518403879605466,0.8748809172353245,107,766,Correct
1,relearn,21,57,A,25.46700740196023,44.6710234677568,1.2733503700980116,0.7016907957732099,A,780,Correct
1,relearn,21,58,A,15.191746589144174,39.26988203973289,0.7595873294572086,0.6168498646168131,A,666,Correct
1,relearn,21,59,A,40.04721102704396,63.36740285676193,2.0023605513521976,0.9953728364593407,B,683,Incorrect
1,relearn,21,60,B,73.98829886287685,45.32943214266431,3.699414943143842,0.7120330550539562,B,561,Correct
1,relearn,21,61,A,55.557829722483746,64.95720988839254,2.7778914861241875,1.0203454669153214,B,445,Incorrect
1,relearn,21,62,B,49.48712987481338,25.21900129104511,2.474356493740669,0.39613914593409416,B,650,Correct
1,relearn,21,63,B,85.87165443367131,66.1729298515632,4.293582721683566,1.0394419514409183,B,689,Correct
1,relearn,21,64,A,56.905916431338326,66.61611338914703,2.845295821566916,1.0464034621702447,B,705,Incorrect
1,relearn,21,65,B,89.72660265108286,68.51472489936442,4.486330132554143,1.0762267820328446,B,653,Correct
1,relearn,21,66,A,52.9173958907343,60.477760624054866,2.6458697945367144,0.949982442410464,B,676,Incorrect
1,relearn,21,67,A,51.64904051906711,77.64780006661384,2.582452025953355,1.2196887912834156,A,828,Correct
1,relearn,21,68,A,43.417361311373234,65.21322681641696,2.1708680655686616,1.024366971416702,A,503,Correct
1,relearn,21,69,A,44.065652737015455,53.08284494561286,2.2032826368507727,0.8338233785639173,A,457,Correct
1,relearn,21,70,A,32.484916484099465,58.24093173063807,1.6242458242049733,0.9148464163159863,A,674,Correct
1,relearn,21,71,B,52.13941117569984,20.909138189291504,2.606970558784992,0.3284399746418599,B,512,Correct
1,relearn,21,72,A,33.80040720946472,45.05688658619067,1.690020360473236,0.7077519194640255,B,431,Incorrect
1,relearn,21,73,A,66.1241173611482,83.28148864171922,3.30620586805741,1.3081825644842344,B,545,Incorrect
1,relearn,21,74,B,43.79356575436637,31.844069449064165,2.1896782877183183,0.5002054732079158,A,827,Incorrect
1,relearn,21,75,A,69.65966259975636,84.8131134915028,3.482983129987818,1.332241271364913,B,506,Incorrect
1,relearn,21,76,B,57.688011589995696,37.45425625682961,2.884400579499785,0.5883300815106272,B,795,Correct
1,relearn,21,77,B,77.7310164340688,56.41708690029297,3.88655082170344,0.8861975287144866,B,822,Correct
1,relearn,21,78,B,80.64117422250294,59.561644044193216,4.032058711125147,0.9355921168248383,B,644,Correct
1,relearn,21,79,B,72.6184200021249,40.10201301430425,3.6309210001062455,0.6299209473995024,B,598,Correct
1,relearn,21,80,B,71.41719793737253,56.84536467273272,3.5708598968686265,0.8929249002324493,B,573,Correct
1,relearn,21,81,B,40.234050256683844,31.472053490745314,2.011702512834192,0.49436186019955236,A,772,Incorrect
1,relearn,21,82,A,39.519194819375706,57.767029992676214,1.9759597409687855,0.9074023852234642,B,416,Incorrect
1,relearn,21,83,A,37.091172074897244,66.45304792481784,1.8545586037448623,1.043842035846291,B,557,Incorrect
1,relearn,21,84,A,62.74322340276973,80.66145297502528,3.1371611701384863,1.26702714047109,B,614,Incorrect
1,relearn,21,85,A,17.49522735534937,39.51182527590379,0.8747613677674686,0.6206503000835143,B,1294,Incorrect
1,relearn,21,86,B,56.307024170066036,47.96889348294952,2.815351208503302,0.7534936168343276,B,534,Correct
1,relearn,21,87,A,44.644261539340704,64.12294366550717,2.232213076967035,1.0072408437305473,B,619,Incorrect
1,relearn,21,88,B,56.65452024492357,40.92349821764129,2.8327260122461784,0.6428248067986843,B,653,Correct
1,relearn,21,89,A,60.3616206100128,84.18358870762407,3.0180810305006402,1.3223527191834823,A,610,Correct
1,relearn,21,90,A,53.35035576938233,65.20845967118129,2.6675177884691164,1.0242920892744471,A,1676,Correct
1,relearn,21,91,A,64.55081699286198,85.42148853302886,3.2275408496430993,1.3417976041703414,A,671,Correct
1,relearn,21,92,A,44.738644684441084,68.59382193400445,2.236932234222054,1.077469235347574,B,1177,Incorrect
1,relearn,21,93,A,33.567344344628985,50.939759346291495,1.6783672172314494,0.8001598686897067,A,997,Correct
1,relearn,21,94,A,52.55235108316143,78.88964905180383,2.6276175541580717,1.2391957095271193,B,724,Incorrect
1,relearn,21,95,A,30.69308360894422,55.24014245023125,1.5346541804472111,0.8677101285245008,A,680,Correct
1,relearn,21,96,A,24.060617714266073,38.552919261961534,1.2030308857133036,0.6055878396390939,A,1076,Correct
1,relearn,21,97,A,29.97424994012389,53.744424869926924,1.4987124970061945,0.844215451713855,A,597,Correct
1,relearn,21,98,A,52.756868233995746,83.0561878628772,2.6378434116997873,1.3046435481259437,B,1052,Incorrect
1,relearn,21,99,A,49.46680814841834,61.47727913420188,2.473340407420917,0.9656828424534886,A,554,Correct
1,relearn,21,100,A,14.68421598833621,33.49762318624636,0.7342107994168104,0.5261794345731534,A,802,Correct
1,relearn,21,101,B,62.86499064288264,45.90456991070715,3.143249532144132,0.7210672979883832,B,596,Correct
1,relearn,21,102,B,59.86883511815343,41.34215012078687,2.9934417559076714,0.6494009755153519,B,499,Correct
1,relearn,21,103,A,23.656367919345957,35.59640526763404,1.1828183959672978,0.5591470264150206,A,596,Correct
1,relearn,21,104,A,21.46826372900972,47.15178927577473,1.0734131864504861,0.7406585739619393,A,456,Correct
1,relearn,21,105,A,52.352743210982155,70.73458661094953,2.617637160549108,1.11109628825835,B,531,Incorrect
1,relearn,21,106,A,37.57176286519451,59.23977826246432,1.8785881432597253,0.9305362609482312,A,384,Correct
1,relearn,21,107,A,31.74745772708755,51.06165795899456,1.5873728863543775,0.8020746476204604,A,522,Correct
1,relearn,21,108,B,47.890316077832246,24.15040972714444,2.394515803891612,0.3793537488999022,B,623,Correct
1,relearn,21,109,A,19.668309983366807,35.5658091918033,0.9834154991683404,0.5586664243797279,A,635,Correct
1,relearn,21,110,B,58.18287154772625,29.84511009281795,2.9091435773863124,0.4688058930658773,B,502,Correct
1,relearn,21,111,A,27.962547853935085,57.660788115981724,1.3981273926967543,0.9057335417268293,A,584,Correct
1,relearn,21,112,A,21.500455495631904,38.27386032616013,1.0750227747815952,0.6012043921259326,A,526,Correct
1,relearn,21,113,A,36.95789841219975,62.659609914883426,1.8478949206099873,0.9842548509269997,B,629,Incorrect
1,relearn,21,114,A,23.344404652253584,53.64959205304091,1.1672202326126793,0.8427258213096134,A,556,Correct
1,relearn,21,115,B,88.59560787946275,65.49443429737322,4.429780393973138,1.0287841681982355,B,591,Correct
1,relearn,21,116,A,55.14042755259477,82.76645830072121,2.7570213776297385,1.3000924868059587,B,600,Incorrect
1,relearn,21,117,B,46.63352171641288,28.333949698948018,2.331676085820644,0.44506864110698907,B,784,Correct
1,relearn,21,118,A,31.659956930087716,60.40905020218837,1.582997846504386,0.9489031416276599,A,1113,Correct
1,relearn,21,119,A,39.4134927490421,58.61870787072433,1.970674637452105,0.9207805100479688,A,587,Correct
1,relearn,21,120,B,41.207582429488525,26.238848536945735,2.0603791214744263,0.41215886901162,B,739,Correct
1,relearn,21,121,A,29.99044363056661,43.08993331436728,1.4995221815283304,0.6768550897204516,B,520,Incorrect
1,relearn,21,122,A,34.111574625454324,49.344323985812636,1.7055787312727162,0.775098828650918,A,789,Correct
1,relearn,21,123,B,65.43097871379533,35.530899328040064,3.2715489356897662,0.5581180615220459,B,555,Correct
1,relearn,21,124,B,67.51334709012342,46.82715246065758,3.375667354506171,0.7355591907946553,B,713,Correct
1,relearn,21,125,A,18.696447525938993,46.60336864120602,0.9348223762969496,0.7320440027787488,A,574,Correct
1,relearn,21,126,B,33.32213631030627,15.01524877151865,1.6661068155153134,0.23585897616213078,B,945,Correct
1,relearn,21,127,A,37.60876493050783,70.18592521032501,1.8804382465253917,1.1024779351307985,A,1414,Correct
1,relearn,21,128,A,67.77653279466591,82.91791285102673,3.3888266397332956,1.3024715293189213,B,553,Incorrect
1,relearn,21,129,B,66.84316349899694,48.008500888173344,3.342158174949847,0.754115768500722,A,716,Incorrect
1,relearn,21,130,B,54.258018362949144,22.54315054613308,2.712900918147457,0.3541069807225021,B,857,Correct
1,relearn,21,131,A,29.167993868921464,40.39272850851269,1.458399693446073,0.6344874957039524,A,637,Correct
1,relearn,21,132,B,37.44493178351172,14.922783626684964,1.872246589175586,0.23440653706351766,B,674,Correct
1,relearn,21,133,A,29.191815949095115,45.696818329362934,1.4595907974547557,0.71780394377977,A,705,Correct
1,relearn,21,134,B,32.84105985836118,12.741593859102107,1.642052992918059,0.20014448831389997,B,731,Correct
1,relearn,21,135,B,35.88836105053906,15.079677274627318,1.794418052526953,0.2368710167223707,B,845,Correct
1,relearn,21,136,B,48.13845093399041,19.99658773675749,2.4069225466995205,0.31410566565330544,A,829,Incorrect
1,relearn,21,137,B,63.859612135552936,45.752245206898806,3.1929806067776467,0.7186745871361606,B,755,Correct
1,relearn,21,138,A,68.1882518597487,84.91753697197203,3.409412592987435,1.3338815515604345,A,708,Correct
1,relearn,21,139,B,51.50314948489263,28.171701851438158,2.5751574742446315,0.4425200578780004,B,616,Correct
1,relearn,21,140,B,55.366292712833555,39.2589442397108,2.768314635641678,0.6166780540558339,B,540,Correct
1,relearn,21,141,A,22.61842139517141,48.51595749544095,1.1309210697585705,0.7620868782477598,A,633,Correct
1,relearn,21,142,A,36.36611519024501,57.54773441424581,1.8183057595122505,0.9039576983326558,A,731,Correct
1,relearn,21,143,B,69.38146780645,44.682213986513176,3.4690733903225004,0.7018665760307845,B,605,Correct
1,relearn,21,144,B,46.30488465974196,35.82217473406813,2.315244232987098,0.5626934049007916,B,557,Correct
1,relearn,21,145,B,41.46540014232593,23.121533836219324,2.073270007116297,0.36319220419797227,B,556,Correct
1,relearn,21,146,A,43.275177660307925,58.35144455477082,2.163758883015396,0.9165823476981007,A,960,Correct
1,relearn,21,147,A,58.1881192437352,67.3324134728214,2.9094059621867596,1.0576550775734306,B,668,Incorrect
1,relearn,21,148,A,33.537648893120355,63.66404567460309,1.6768824446560178,1.0000324909456906,A,647,Correct
1,relearn,21,149,A,52.94595688954416,71.81339309741705,2.647297844477208,1.1280421409210069,A,728,Correct
1,relearn,21,150,A,64.02337677295475,78.20823589231071,3.2011688386477375,1.2284920966475046,B,795,Incorrect
1,relearn,21,151,B,53.25792455901659,42.399657848968886,2.6628962279508297,0.6660122680652073,B,841,Correct
1,relearn,21,152,A,39.8777331261097,68.27007425644878,1.9938866563054853,1.0723838187204455,A,854,Correct
1,relearn,21,153,A,30.672576695256303,53.31843377380305,1.5336288347628153,0.8375239992234678,A,491,Correct
1,relearn,21,154,B,86.43728575809916,64.27340250876071,4.321864287904958,1.0096042457137122,B,723,Correct
1,relearn,21,155,A,28.71639657966079,49.802547104334614,1.4358198289830395,0.7822965805651861,A,616,Correct
1,relearn,21,156,A,60.868388271307495,78.70908294748813,3.0434194135653745,1.2363593837930917,B,965,Incorrect
1,relearn,21,157,A,10.684400868614834,35.34071057694523,0.5342200434307416,0.5551305836058711,A,1168,Correct
1,relearn,21,158,B,49.41993984387684,33.00294853423773,2.470996992193842,0.5184091033098165,A,912,Incorrect
1,relearn,21,159,A,52.97434851738214,68.14891069502221,2.648717425869107,1.0704805859481432,B,616,Incorrect
1,relearn,21,160,B,82.55890514734327,65.87674811341873,4.127945257367163,1.0347895395775077,B,779,Correct
1,relearn,21,161,A,30.410550778308913,60.63906671354154,1.5205275389154458,0.9525162325390172,A,593,Correct
1,relearn,21,162,A,37.598767249699016,56.10509260047617,1.8799383624849508,0.881296733713155,A,579,Correct
1,relearn,21,163,B,34.516721741374255,19.137852239012258,1.7258360870687128,0.3006166799978394,B,697,Correct
1,relearn,21,164,B,55.65482964438671,25.84312417977352,2.7827414822193357,0.40594284534492614,B,635,Correct
1,relearn,21,165,A,68.28412165758603,88.77628126254487,3.4142060828793013,1.394494565137161,A,850,Correct
1,relearn,21,166,B,62.200292013208504,49.38165172700455,3.110014600660425,0.7756851714384362,B,940,Correct
1,relearn,21,167,B,71.05001595322085,58.8411433791003,3.5525007976610423,0.9242745188430261,B,709,Correct
1,relearn,21,168,B,86.39777380423799,65.93542127354253,4.3198886902119,1.035711175421547,B,1503,Correct
1,relearn,21,169,A,64.91337389367828,89.19064942587784,3.245668694683914,1.4010034450262026,A,990,Correct
1,relearn,21,170,A,41.801455057860586,62.53761211630315,2.0900727528930294,0.9823385139881301,A,815,Correct
1,relearn,21,171,B,71.788028527008,39.17788208605975,3.5894014263504,0.6154047327238624,107,1089,Incorrect
1,relearn,21,172,A,43.825610494301436,67.15050387459225,2.1912805247150717,1.0547976482863595,B,716,Incorrect
1,relearn,21,173,A,11.941987892153804,39.20888144987196,0.5970993946076902,0.6158916695919543,A,568,Correct
1,relearn,21,174,A,30.519636394487314,48.38576199835448,1.5259818197243658,0.7600417721618731,A,492,Correct
1,relearn,21,175,B,37.2473075523373,27.055520269296835,1.862365377616865,0.42498711858536337,A,422,Incorrect
1,relearn,21,176,B,58.2147623315395,34.51134635944949,2.910738116576975,0.5421029609416969,B,649,Correct
1,relearn,21,177,B,64.3229931220481,52.02968071251539,3.216149656102405,0.8172803134753047,B,952,Correct
1,relearn,21,178,A,44.17385975714058,52.434680506312226,2.208692987857029,0.8236420353597922,A,956,Correct
1,relearn,21,179,B,66.80167182384098,38.270122791707685,3.340083591192049,0.6011456830720409,A,936,Incorrect
1,relearn,21,180,B,69.32068733117222,46.00195587164089,3.466034366558611,0.7225970330855441,B,694,Correct
1,relearn,21,181,A,29.54807529140853,59.36897848506219,1.4774037645704265,0.9325657332990094,A,713,Correct
1,relearn,21,182,A,15.593850223543868,34.18101161503331,0.7796925111771934,0.5369140749102802,A,650,Correct
1,relearn,21,183,B,54.615838266332375,28.701699502108255,2.7307919133166187,0.45084524150682553,B,1484,Correct
1,relearn,21,184,B,60.45734328949303,42.093896054282986,3.0228671644746514,0.661209373025539,B,572,Correct
1,relearn,21,185,A,26.047114267895385,40.62266983342147,1.3023557133947694,0.6380994055894029,A,612,Correct
1,relearn,21,186,B,80.47508803105875,56.48130499627494,4.023754401552938,0.8872062642073093,B,607,Correct
1,relearn,21,187,B,66.88212584651585,33.95192345246027,3.3441062923257925,0.533315566467461,B,519,Correct
1,relearn,21,188,B,57.66449852682954,40.706200997674856,2.883224926341477,0.6394115100492243,B,515,Correct
1,relearn,21,189,A,44.075395154847925,68.14766890299165,2.2037697577423963,1.0704610799245409,A,707,Correct
1,relearn,21,190,B,81.58183326286974,57.119253667625486,4.079091663143487,0.8972271385037203,B,587,Correct
1,relearn,21,191,A,39.18528272712405,67.21876081293884,1.9592641363562024,1.0558698257666908,A,510,Correct
1,relearn,21,192,A,14.847337265820137,42.59449593427486,0.7423668632910068,0.669072777552391,A,584,Correct
1,relearn,21,193,A,17.869295501455237,47.10242198747618,0.8934647750727619,0.7398831144107076,A,448,Correct
1,relearn,21,194,B,64.6293470024589,37.62546263868863,3.2314673501229447,0.5910193850681073,B,881,Correct
1,relearn,21,195,A,56.784524684137004,78.4382048513,2.83922623420685,1.2321044406080768,B,507,Incorrect
1,relearn,21,196,A,55.68966035532607,69.5355396363321,2.7844830177663034,1.092261702424514,B,629,Incorrect
1,relearn,21,197,A,23.546678843805864,38.66556959114559,1.1773339421902933,0.6073573468720395,A,565,Correct
1,relearn,21,198,A,23.912629825692036,46.43565048227496,1.1956314912846018,0.7294094920988917,A,398,Correct
1,relearn,21,199,B,38.62252365724804,29.931046447783004,1.931126182862402,0.4701557781730499,A,484,Incorrect
1,relearn,21,200,B,73.21061792387324,40.73979820095167,3.6605308961936625,0.6399392536842021,B,665,Correct
1,relearn,21,201,B,75.29111497047151,61.077926087141954,3.7645557485235757,0.9594098194593278,A,850,Incorrect
1,relearn,21,202,A,17.3296492417468,32.70630424687858,0.86648246208734,0.5137494257403321,A,567,Correct
1,relearn,21,203,B,56.19611348491901,44.90107774235229,2.8098056742459505,0.7053044798681908,B,1351,Correct
1,relearn,21,204,B,53.26867918324272,40.88863011527852,2.663433959162136,0.6422770999275469,B,585,Correct
1,relearn,21,205,A,20.396787874616184,39.869903871906345,1.0198393937308092,0.626274985516561,A,631,Correct
1,relearn,21,206,B,54.210110888656715,36.03219890168711,2.7105055444328356,0.5659924568111322,B,811,Correct
1,relearn,21,207,A,45.16790295106378,71.8962717935568,2.258395147553189,1.1293439964356655,A,706,Correct
1,relearn,21,208,A,33.37228134802455,60.94103151473494,1.6686140674012275,0.9572594845443766,A,720,Correct
1,relearn,21,209,B,56.820381892257025,26.669932890740018,2.841019094612851,0.4189303262064082,B,843,Correct
1,relearn,21,210,B,69.86847761005517,38.202491522482866,3.493423880502758,0.6000833335792926,B,764,Correct
1,relearn,21,211,A,56.98752437317254,68.7562022524806,2.849376218658627,1.0800198994256354,A,868,Correct
1,relearn,21,212,A,23.880766532771997,49.733724177579745,1.1940383266385999,0.781215512559728,A,568,Correct
1,relearn,21,213,A,48.60780374721469,62.77993700044149,2.4303901873607345,0.9861449443670851,B,663,Incorrect
1,relearn,21,214,A,50.593018680552404,81.18684848660234,2.5296509340276203,1.2752800338680876,A,1047,Correct
1,relearn,21,215,A,62.37900544629019,87.46890714977373,3.1189502723145095,1.3739583805962843,A,835,Correct
1,relearn,21,216,B,40.6811940695955,14.233892631394347,2.034059703479775,0.22358546261387188,A,942,Incorrect
1,relearn,21,217,B,56.644853627549615,48.33400637437986,2.832242681377481,0.75922879672157,B,1924,Correct
1,relearn,21,218,B,66.5859131437371,37.09056819612871,3.3292956571868553,0.5826172828121459,B,1247,Correct
1,relearn,21,219,A,23.33180424825332,45.105779641566784,1.166590212412666,0.7085199297819312,A,594,Correct
1,relearn,21,220,A,41.19476872777101,48.81202597332204,2.059738436388551,0.7667375110231134,A,504,Correct
1,relearn,21,221,A,23.924573481079676,45.62543223278492,1.1962286740539838,0.7166826135968803,A,1347,Correct
1,relearn,21,222,A,13.77042042383038,38.942646834702984,0.688521021191519,0.6117096660362236,A,573,Correct
1,relearn,21,223,A,59.168662295973604,84.33892387517062,2.95843311479868,1.324792718289524,A,1152,Correct
1,relearn,21,224,A,46.22099013844228,66.7414350318291,2.311049506922114,1.0483720099301739,A,1168,Correct
1,relearn,21,225,A,37.55960741587734,54.48202099531778,1.877980370793867,0.8558015845580761,A,600,Correct
1,relearn,21,226,A,51.58364053685762,76.13580261206775,2.579182026842881,1.1959383908061731,A,798,Correct
1,relearn,21,227,A,61.084543069330024,82.81008515193409,3.0542271534665013,1.3007777757823067,B,711,Incorrect
1,relearn,21,228,A,32.63862958969603,44.63678801513248,1.6319314794848014,0.7011530265409257,A,894,Correct
1,relearn,21,229,B,84.56376545150117,64.71974960274217,4.228188272575059,1.0166154494707285,B,1715,Correct
1,relearn,21,230,B,50.85885081017942,30.240563306776878,2.542942540508971,0.4750176576249365,A,1975,Incorrect
1,relearn,21,231,A,29.85360441117212,56.135052691046035,1.492680220558606,0.8817673457153309,B,423,Incorrect
1,relearn,21,232,B,49.71066935374405,37.72526850723428,2.4855334676872025,0.592587131985148,A,657,Incorrect
1,relearn,21,233,A,52.058200105192576,64.21854438074675,2.602910005259629,1.0087425362539204,B,869,Incorrect
1,relearn,21,234,B,30.562069796123275,13.842431826612078,1.5281034898061636,0.21743641067151023,A,505,Incorrect
1,relearn,21,235,B,57.0137107390527,36.82171508582288,2.850685536952635,0.5783941480309882,B,1868,Correct
1,relearn,21,236,B,67.83287707715566,35.12743325465779,3.391643853857783,0.5517804312614936,B,1113,Correct
1,relearn,21,237,B,58.55349369409923,48.26135816598128,2.9276746847049617,0.7580876413325628,B,598,Correct
1,relearn,21,238,B,67.55104482203726,51.499113026063704,3.377552241101863,0.8089461757453608,B,488,Correct
1,relearn,21,239,B,65.0211533243817,51.98962502665751,3.251057666219085,0.8166511202331763,B,656,Correct
1,relearn,21,240,B,54.98921249777559,36.41304913342534,2.7494606248887794,0.5719748382618662,B,548,Correct
1,relearn,21,241,B,34.88055501377285,24.281052019826575,1.7440277506886424,0.3814058732345939,A,703,Incorrect
1,relearn,21,242,A,38.765903421590636,55.022146960874075,1.9382951710795318,0.8642858633850998,A,1242,Correct
1,relearn,21,243,B,44.438493481518904,35.85173656806563,2.221924674075945,0.5631577611033577,B,1450,Correct
1,relearn,21,244,A,31.272857971631925,64.31174427076103,1.5636428985815962,1.0102065167028416,A,834,Correct
1,relearn,21,245,A,42.00592984550525,67.62308510080969,2.1002964922752625,1.0622209368289055,A,564,Correct
1,relearn,21,246,A,53.97930981985317,80.31824049622125,2.6989654909926584,1.2616359714609344,A,812,Correct
1,relearn,21,247,A,45.58032434178656,55.893843090486726,2.279016217089328,0.8779784341698685,B,839,Incorrect
1,relearn,21,248,A,47.34677953871915,55.98240980787344,2.367338976935957,0.8793696369133419,A,879,Correct
1,relearn,21,249,A,29.912877867447094,42.08660416834041,1.4956438933723546,0.6610948323489989,A,1651,Correct
1,relearn,21,250,B,46.73223706039151,28.573937337106127,2.336611853019576,0.44883835811193845,A,1224,Incorrect
1,relearn,21,251,B,58.7701933642785,41.590065990968625,2.938509668213925,0.6532952288977086,A,1064,Incorrect
1,relearn,21,252,B,51.59912066190576,30.58639727158556,2.579956033095288,0.48045000484096045,B,565,Correct
1,relearn,21,253,B,83.03409948429152,63.605992578638215,4.151704974214576,0.9991205950466835,B,656,Correct
1,relearn,21,254,B,81.22329973106734,52.130515366666685,4.061164986553368,0.8188642205188494,B,404,Correct
1,relearn,21,255,B,48.9695874568453,25.958131138162813,2.448479372842265,0.40774937042286374,A,771,Incorrect
1,relearn,21,256,B,72.92194940216902,46.28240876495772,3.6460974701084514,0.7270023768321552,B,855,Correct
1,relearn,21,257,B,52.883064111804906,32.27769335043078,2.644153205590245,0.5070168215226872,B,1068,Correct
1,relearn,21,258,B,87.78377891425737,60.144832075707384,4.389188945712869,0.9447528130021703,B,684,Correct
1,relearn,21,259,A,47.396300301425036,77.70819163500275,2.369815015071252,1.220637419821362,A,742,Correct
1,relearn,21,260,A,29.150347152220405,61.037286286684264,1.4575173576110203,0.9587714509665215,A,667,Correct
1,relearn,21,261,B,51.97765250588877,44.00830520585142,2.5988826252944386,0.6912808416582015,B,654,Correct
1,relearn,21,262,B,49.8625861361831,32.37846665616275,2.4931293068091547,0.5085997649075149,A,874,Incorrect
1,relearn,21,263,A,38.13345135691397,48.81519231833969,1.9066725678456988,0.7667872478543444,A,620,Correct
1,relearn,21,264,B,52.67251401124931,38.155236508512466,2.6336257005624657,0.5993410535556192,B,521,Correct
1,relearn,21,265,B,36.388859530789716,19.636895798550533,1.8194429765394857,0.30845563790017316,B,1049,Correct
1,relearn,21,266,A,43.83224445694387,73.77514107748497,2.1916122228471933,1.158857206132887,A,805,Correct
1,relearn,21,267,A,40.86346466532395,65.58122240849919,2.043173233266198,1.030147432659897,A,549,Correct
1,relearn,21,268,B,77.05504401276436,61.19346904749551,3.8527522006382178,0.9612247640364314,B,710,Correct
1,relearn,21,269,B,55.1652908936112,41.74113905532315,2.75826454468056,0.655668279043366,A,846,Incorrect
1,relearn,21,270,B,68.14471433276137,40.762564941252876,3.4072357166380685,0.6402968728045845,B,520,Correct
1,relearn,21,271,A,16.796526957192942,44.215448889447416,0.839826347859647,0.694534647031315,A,698,Correct
1,relearn,21,272,B,71.75804129198058,54.9577819274445,3.587902064599029,0.8632748198042476,B,613,Correct
1,relearn,21,273,B,78.32623666201798,54.78525094928394,3.9163118331008993,0.8605647095367185,B,578,Correct
1,relearn,21,274,A,23.31350797459459,36.97520642680948,1.1656753987297295,0.5808051843771538,A,589,Correct
1,relearn,21,275,B,52.72342166590954,40.97323098222421,2.6361710832954772,0.6436060072379663,B,593,Correct
1,relearn,21,276,A,52.17297080854378,74.68871948795729,2.608648540427189,1.173207662246977,B,510,Incorrect
1,relearn,21,277,B,65.21855503984708,45.90647150758085,3.2609277519923534,0.7210971682022257,B,693,Correct
1,relearn,21,278,A,51.58516569491203,69.81024635652979,2.5792582847456016,1.096576785494838,B,620,Incorrect
1,relearn,21,279,B,60.705177200871084,51.7486141496814,3.035258860043554,0.8128653302304596,B,588,Correct
1,relearn,21,280,B,62.05924494616733,36.658327622662846,3.102962247308367,0.575827663761227,B,733,Correct
1,relearn,21,281,B,77.61566074374704,45.947004035608494,3.8807830371873524,0.7217338516636411,B,594,Correct
1,relearn,21,282,B,53.78469592026623,25.58207827882296,2.6892347960133116,0.40184234592154616,B,811,Correct
1,relearn,21,283,B,60.6538199451231,28.07176709893525,3.032690997256155,0.44095028645649326,B,716,Correct
1,relearn,21,284,B,40.498193663914115,25.411193040582518,2.024909683195706,0.39915808687623056,A,644,Incorrect
1,relearn,21,285,B,41.70057479289456,30.49880531310489,2.0850287396447276,0.4790741135745783,A,611,Incorrect
1,relearn,21,286,A,16.709842773542857,33.52140350602221,0.8354921386771429,0.5265529749626926,A,630,Correct
1,relearn,21,287,A,60.61129163945034,72.67229987841142,3.030564581972517,1.1415338170874587,A,1369,Correct
1,relearn,21,288,B,72.81533488474241,51.04475197498101,3.6407667442371205,0.8018090890445673,B,621,Correct
1,relearn,21,289,A,46.10985108244401,53.8627974440422,2.3054925541222007,0.8460748437599903,B,1294,Incorrect
1,relearn,21,290,B,56.35336242064851,26.6061103010081,2.8176681210324257,0.41792780331123386,B,850,Correct
1,relearn,21,291,A,59.80312539248612,76.63378045400982,2.990156269624306,1.2037606084556518,A,884,Correct
1,relearn,21,292,B,71.8546264756981,50.80083468253839,3.592731323784905,0.7979776451744608,B,678,Correct
1,relearn,21,293,B,39.05304156257851,19.550722764819646,1.9526520781289252,0.3071020350516407,A,669,Incorrect
1,relearn,21,294,B,56.02927592465405,24.484838017836154,2.8014637962327025,0.3846069362058506,B,660,Correct
1,relearn,21,295,A,22.910646436624923,51.309072039169216,1.145532321831246,0.8059610189038172,A,680,Correct
1,relearn,21,296,B,33.11893375548462,10.22734077471273,1.655946687774231,0.16065069321798425,A,617,Incorrect
1,relearn,21,297,B,71.03506231551748,49.32520801264634,3.5517531157758744,0.7747985556465907,B,628,Correct
1,relearn,21,298,B,54.86771499578701,33.87742165914079,2.7433857497893506,0.5321452950346023,B,608,Correct
1,relearn,21,299,A,27.83646606282947,46.26402650194956,1.3918233031414735,0.7267136289200411,A,663,Correct
1,relearn,21,300,B,67.79118866157746,54.145493921686295,3.389559433078873,0.8505154296468023,B,746,Incorrect
1,relearn,21,301,A,56.737238426527966,72.0481517345576,2.836861921326398,1.131729720970044,B,981,Correct
1,relearn,21,302,B,64.94307700288364,51.3650989976977,3.2471538501441817,0.8068410883103978,A,902,Incorrect
1,relearn,21,303,B,49.003521674113266,19.07940713260092,2.450176083705663,0.29969862641313877,A,737,Correct
1,relearn,21,304,B,55.341012366420465,30.6543534022004,2.7670506183210235,0.4815174572444903,B,704,Correct
1,relearn,21,305,B,78.60955554460779,62.10999339256928,3.9304777772303896,0.9756214947830313,B,773,Incorrect
1,relearn,21,306,B,40.90979164617994,29.08780509376041,2.045489582308997,0.45691017395804734,A,691,Incorrect
1,relearn,21,307,B,70.68244170319969,44.72982266182984,3.5341220851599844,0.7026144113538945,A,828,Correct
1,relearn,21,308,B,40.64011174256207,27.557617378290487,2.0320055871281033,0.43287404153037906,A,675,Incorrect
1,relearn,21,309,B,84.19069114367433,58.89220541397856,4.209534557183717,0.9250765994112803,B,778,Incorrect
1,relearn,21,310,A,50.48352146670425,81.27274110785824,2.5241760733352123,1.276629232007763,B,2047,Incorrect
1,relearn,21,311,A,53.098120008641324,60.43598154264256,2.654906000432066,0.949326178134271,A,631,Correct
1,relearn,21,312,B,42.68604753580701,14.27619636685646,2.1343023767903504,0.22424996813660772,B,745,Correct
1,relearn,21,313,B,42.64985810355624,19.417931845095094,2.1324929051778123,0.3050161601622902,B,593,Incorrect
1,relearn,21,314,A,19.61630119281774,35.210019567188226,0.9808150596408871,0.553077694025157,A,688,Incorrect
1,relearn,21,315,B,73.88691007984477,46.02875088280209,3.6943455039922384,0.7230179281366287,B,822,Incorrect
1,relearn,21,316,A,45.22945043298164,67.25815625055625,2.261472521649082,1.0564886478537099,B,2017,Incorrect
1,relearn,21,317,B,71.27497667221749,61.04512925869925,3.5637488336108745,0.9588946480828445,B,1548,Correct
1,relearn,21,318,A,15.477025357542168,30.40524604168816,0.7738512678771085,0.4776044879757883,A,537,Correct
1,relearn,21,319,B,55.1370098155519,46.71139516049812,2.756850490777595,0.7337408793757536,A,794,Correct
1,relearn,21,320,A,52.58130338150422,70.99312485374776,2.629065169075211,1.1151573974795845,B,753,Incorrect
1,relearn,21,321,B,79.77499513698389,52.96550575827965,3.9887497568491943,0.8319802189193961,B,868,Incorrect
1,relearn,21,322,A,14.722185584287782,40.905836238060616,0.7361092792143892,0.6425473730721919,A,638,Incorrect
1,relearn,21,323,B,57.168586020831086,34.52241071041815,2.858429301041554,0.5422767593602963,A,666,Correct
1,relearn,21,324,B,63.34795804223959,49.79890919586791,3.1673979021119796,0.782239436432619,A,2230,Correct
1,relearn,21,325,A,31.739709642406652,64.99366036393131,1.5869854821203324,1.0209180296461837,B,813,Correct
1,relearn,21,326,B,44.770769973767386,19.183896157453294,2.2385384986883694,0.30133993617742366,A,1108,Incorrect
1,relearn,21,327,A,55.96710506073419,80.21927941982835,2.7983552530367097,1.2600814945079981,A,1086,Incorrect
1,relearn,21,328,A,61.00649881631641,77.97338205995945,3.0503249408158206,1.2248030212755938,B,864,Correct
1,relearn,21,329,A,39.90303468121729,69.32275442569855,1.9951517340608647,1.0889192801519194,A,777,Correct
1,relearn,21,330,B,38.10747661986266,26.069469421547005,1.905373830993133,0.40949826808857914,B,835,Incorrect
1,relearn,21,331,B,63.95799279866082,54.02540450332558,3.197899639933041,0.848629069474323,A,790,Correct
1,relearn,21,332,B,48.238708246478915,26.70670652579856,2.411935412323946,0.41950796511513666,B,1045,Correct
1,relearn,21,333,A,20.194138137765815,34.16818690951379,1.009706906888291,0.5367126249070573,B,1119,Incorrect
1,relearn,21,334,A,51.91957518637814,69.43345175527907,2.595978759318907,1.0906581097388302,B,739,Correct
1,relearn,21,335,A,28.21376068397783,58.422367424644364,1.4106880341988914,0.9176964015329319,B,1103,Incorrect
1,relearn,21,336,A,25.38703456791974,52.18890046134473,1.269351728395987,0.8197813314414478,A,547,Incorrect
1,relearn,21,337,B,52.66865140452314,34.24433169814138,2.633432570226157,0.5379087044498653,B,796,Incorrect
1,relearn,21,338,B,30.724346590067498,14.753575245639418,1.536217329503375,0.2317486180294251,A,747,Correct
1,relearn,21,339,B,64.71851403908718,52.40373133815504,3.235925701954359,0.8231558869632055,B,763,Incorrect
1,relearn,21,340,A,65.54042175214235,82.65840656631121,3.277021087607118,1.298395214130808,B,1030,Incorrect
1,relearn,21,341,A,34.386564283849104,63.63279227685166,1.7193282141924553,0.9995415637218124,B,884,Correct
1,relearn,21,342,B,72.41570781156102,41.97422924693288,3.620785390578051,0.6593296512112908,A,886,Incorrect
1,relearn,21,343,B,75.46123829893835,49.57571458531741,3.773061914946918,0.7787335036884875,B,708,Incorrect
1,relearn,21,344,A,28.46772030444093,59.671919349949505,1.4233860152220468,0.9373243172770197,B,3706,Incorrect
1,relearn,21,345,B,52.23171875128467,35.26228280040318,2.611585937564233,0.5538986429727617,B,679,Correct
1,relearn,21,346,A,58.96223395729604,71.02060519286657,2.948111697864802,1.1155890576370535,A,820,Correct
1,relearn,21,347,A,39.75122806088286,61.22316804163977,1.9875614030441429,0.9616912747455444,B,1046,Correct
1,relearn,21,348,A,27.46497007134674,49.80495803388482,1.373248503567337,0.7823344513580025,B,1112,Correct
1,relearn,21,349,B,42.33700932113453,32.01059509860615,2.1168504660567264,0.5028212519940927,A,798,Correct
1,relearn,21,350,A,26.60080028888016,56.729355016003275,1.3300400144440079,0.8911026248058159,B,829,Correct
1,relearn,21,351,A,63.21130729455952,85.08112485310188,3.160565364727976,1.3364511839883044,A,933,Incorrect
1,relearn,21,352,B,79.23710854622556,62.64747342979847,3.961855427311278,0.9840642114650832,A,905,Correct
1,relearn,21,353,A,64.43884945051269,81.22271378399276,3.2219424725256345,1.2758434046420903,B,773,Incorrect
1,relearn,21,354,A,51.07117734189186,78.62718071882716,2.553558867094593,1.2350728665937223,A,831,Correct
1,relearn,21,355,B,60.96264460145391,42.43914166761947,3.0481322300726954,0.666632478438249,B,684,Correct
1,relearn,21,356,A,59.96783293652315,68.96241932754397,2.9983916468261578,1.0832591496659547,A,785,Correct
1,relearn,21,357,B,49.31987322613695,24.62664003601921,2.4659936613068476,0.3868343570987912,B,2036,Correct
1,relearn,21,358,B,86.32952935648049,62.42470117442476,4.316476467824025,0.9805649130605548,B,1600,Incorrect
1,relearn,21,359,B,38.40722756168816,12.458294179061046,1.920361378084408,0.19569442734599332,B,972,Correct
1,relearn,21,360,B,79.64111879469138,51.88098557237777,3.9820559397345687,0.8149446156759002,A,929,Incorrect
1,relearn,21,361,B,63.009944429868625,30.26201303776576,3.150497221493431,0.4753545892114172,A,1328,Correct
1,relearn,21,362,A,20.627563957571443,40.64974575501556,1.031378197878572,0.6385247131712488,B,1143,Incorrect
1,relearn,21,363,B,46.08553955268805,18.483766110537797,2.304276977634402,0.29034231911768765,B,727,Incorrect
1,relearn,21,364,B,59.39690080289504,48.93183599641397,2.969845040144752,0.7686194824649737,A,599,Incorrect
1,relearn,21,365,A,23.925913650700377,40.267150198597776,1.1962956825350188,0.6325149162245577,B,885,Incorrect
1,relearn,21,366,A,42.16552141217408,62.52711297099093,2.1082760706087043,0.9821735937992208,A,1707,Correct
1,relearn,21,367,A,57.20712878847505,72.56552318225356,2.8603564394237524,1.1398565726663379,B,1132,Incorrect
1,relearn,21,368,A,24.90502487886257,42.41215735468594,1.2452512439431285,0.6662086098418782,A,1081,Correct
1,relearn,21,369,A,41.023699060196726,50.38658466658344,2.051184953009836,0.7914706211400933,A,951,Incorrect
1,relearn,21,370,A,25.224695567784096,40.874831969908854,1.2612347783892048,0.6420603591669143,A,650,Incorrect
1,relearn,21,371,A,45.913631484736904,53.593617734296544,2.2956815742368453,0.8418465787668282,A,359,Correct
1,relearn,21,372,B,59.51274795796171,35.59874550445589,2.9756373978980855,0.5591837867690566,B,749,Incorrect
1,relearn,21,373,B,77.17063068287321,45.52174077728758,3.85853153414366,0.7150538320227279,A,416,Incorrect
1,relearn,21,374,B,75.50264289399044,50.71573255162839,3.7751321446995223,0.7966408640281025,B,514,Incorrect
1,relearn,21,375,A,20.44812118662877,42.43787883898014,1.0224060593314386,0.6666126419723687,100,907,Incorrect
1,relearn,21,376,A,48.25247023398377,73.60534077815505,2.4126235116991888,1.1561899892681258,B,650,Correct
1,relearn,21,377,B,35.330536922113666,21.426957211904913,1.7665268461056831,0.33657385682851654,A,567,Incorrect
1,relearn,21,378,A,36.946117385220674,56.979812232646665,1.8473058692610338,0.8950367975650428,B,707,Incorrect
1,relearn,21,379,B,75.90431260124666,55.63102968745983,3.7952156300623328,0.8738501708887972,B,666,Correct
1,relearn,21,380,B,58.90120534519144,28.041066289549434,2.945060267259572,0.4404680392703645,A,682,Correct
1,relearn,21,381,A,42.83376893362255,66.95334294525803,2.1416884466811275,1.0517006516505032,B,647,Correct
1,relearn,21,382,B,86.19617629955714,61.11259354120274,4.309808814977857,0.9599543745543078,B,741,Incorrect
1,relearn,21,383,A,39.63180476584843,47.244770590855694,1.9815902382924213,0.7421191210438367,B,543,Incorrect
1,relearn,21,384,A,44.31198362683242,69.63528340989879,2.215599181341621,1.0938284739559063,B,435,Correct
1,relearn,21,385,B,70.43751173184701,41.462559878575746,3.5218755865923503,0.6512923675678024,A,461,Incorrect
1,relearn,21,386,B,60.119288425194796,34.39521375564606,3.0059644212597396,0.5402787542669413,B,802,Correct
1,relearn,21,387,A,14.636018018710033,35.9635348547317,0.7318009009355017,0.5649138844837279,A,1012,Correct
1,relearn,21,388,B,46.90236421685602,25.832178946319353,2.3451182108428013,0.40577091801986903,B,1369,Correct
1,relearn,21,389,B,71.81141318489057,53.54666457525344,3.5905706592445283,0.841109040269265,B,1438,Correct
1,relearn,21,390,B,68.63977312079538,41.328832013108126,3.431988656039769,0.6491917751691357,B,1026,Incorrect
1,relearn,21,391,B,59.42191666532645,31.61334698436106,2.971095833266322,0.49658129320726874,A,817,Incorrect
1,relearn,21,392,B,30.84638144615102,13.38715263813721,1.542319072307551,0.2102849019022854,B,419,Incorrect
1,relearn,21,393,A,21.270515074870936,49.94161235651199,1.0635257537435467,0.7844810124382364,A,535,Correct
1,relearn,21,394,B,59.80461306506734,31.688110835568438,2.990230653253367,0.49775568103580464,B,807,Incorrect
1,relearn,21,395,B,54.26540713058598,46.220194170240944,2.713270356529299,0.7260251122636138,B,886,Correct
1,relearn,21,396,B,79.25953608845926,50.54767181452472,3.9629768044229627,0.7940009721428936,A,997,Correct
1,relearn,21,397,A,23.567236232487552,47.636584047798465,1.1783618116243775,0.7482737124333819,A,1007,Incorrect
1,relearn,21,398,B,61.31650929152924,50.40296595873538,3.0658254645764624,0.7917279378754976,B,815,Correct
1,relearn,21,399,B,66.19964277928929,44.13334237987631,3.309982138964465,0.6932449209949124,B,519,Incorrect
1,relearn,21,400,B,45.6667823780074,36.721736568850005,2.28333911890037,0.5768236891587942,B,1151,Incorrect
1,relearn,21,401,A,35.7197656128433,68.19807182365064,1.785988280642165,1.0712528071508496,A,2023,Correct
1,relearn,21,402,A,65.7977765563014,79.6431805064629,3.28988882781507,1.2510321539381484,B,833,Correct
1,relearn,21,403,A,60.372376844965004,75.10676862674,3.0186188422482503,1.1797743627631736,B,821,Incorrect
1,relearn,21,404,B,53.7510218151239,28.65004580647002,2.687551090756195,0.4500338671530863,B,1007,Correct
1,relearn,21,405,B,53.37905491493747,26.07387677388666,2.668952745746873,0.4095674986172393,B,697,Correct
1,relearn,21,406,B,63.5706696741583,41.83995321179248,3.1785334837079153,0.6572204481835396,A,883,Correct
1,relearn,21,407,B,67.95761034623855,48.40133297013361,3.3978805173119273,0.7602863604146258,B,998,Incorrect
1,relearn,21,408,A,22.82047975588499,35.07894692076053,1.1410239877942494,0.5510188097096379,A,712,Correct
1,relearn,21,409,B,70.80288914670457,52.31782374499569,3.5401444573352285,0.8218064536454206,A,1138,Incorrect
1,relearn,21,410,B,67.08803084946915,44.74779377650471,3.3544015424734575,0.7028967009630912,A,979,Incorrect
1,relearn,21,411,B,32.150271310863346,12.92449259564787,1.6075135655431672,0.2030174549493151,A,1339,Correct
1,relearn,21,412,A,28.50605685235884,49.739242815092155,1.4253028426179417,0.7813021991150622,B,810,Correct
1,relearn,21,413,B,76.92073995929266,61.31917319726395,3.846036997964633,0.9631993202036228,B,740,Correct
1,relearn,21,414,B,51.77632942811909,24.529651002540277,2.5888164714059547,0.3853108569235102,B,1028,Incorrect
1,relearn,21,415,A,33.69272446993883,63.04513821660951,1.6846362234969416,0.9903107153292677,A,848,Correct
1,relearn,21,416,B,62.62512018036694,52.14229761879875,3.1312560090183474,0.8190492957025537,A,1075,Incorrect
1,relearn,21,417,A,27.00527106442773,49.34613647079573,1.3502635532213867,0.775127299098456,A,895,Correct
1,relearn,21,418,B,41.14754563919054,16.397323776400548,2.0573772819595266,0.257568559572366,A,1143,Correct
1,relearn,21,419,B,76.52534836721638,64.43712688461027,3.8262674183608194,1.0121760221956249,A,1289,Correct
1,relearn,21,420,A,65.28219153255644,88.43269464672349,3.2641095766278223,1.3890975191964796,A,1064,Incorrect
1,relearn,21,421,B,60.042795060342186,31.176783722189583,3.0021397530171097,0.48972377352094315,A,983,Correct
1,relearn,21,422,B,58.613112204768456,44.81508353151822,2.930655610238423,0.7039536859631528,B,1500,Incorrect
1,relearn,21,423,B,31.909175467679887,14.58027412811807,1.5954587733839944,0.22902641044110525,A,937,Incorrect
1,relearn,21,424,A,32.011665133405174,56.93171405483588,1.600583256670259,0.894281273154736,A,914,Correct
1,relearn,21,425,A,61.263389824896315,82.25208535078512,3.0631694912448157,1.2920127354023359,B,1019,Correct
1,relearn,21,426,B,64.33341847279382,47.34284172912926,3.216670923639691,0.743659618881484,A,903,Incorrect
1,relearn,21,427,B,49.385721195647214,19.66915524304669,2.4692860597823607,0.30896236806936317,A,1009,Correct
1,relearn,21,428,A,63.5303452410341,80.26114498592896,3.176517262051705,1.2607391172824987,B,974,Incorrect
1,relearn,21,429,A,29.294817227698584,50.480156544676994,1.464740861384929,0.7929404447640999,B,825,Incorrect
1,relearn,21,430,A,41.016361779604566,65.08486449735639,2.050818088980228,1.02235066082391,A,551,Incorrect
1,relearn,21,431,B,63.10093105533205,34.879781118541985,3.1550465527666023,0.5478903206041573,B,1131,Incorrect
1,relearn,21,432,B,80.20279106995713,67.77612512954252,4.010139553497856,1.0646248839787669,A,1016,Incorrect
1,relearn,21,433,B,55.2448691703993,30.853638847633423,2.762243458519965,0.4846478257011891,B,908,Correct
1,relearn,21,434,B,61.52736348871905,31.927247253886343,3.0763681744359523,0.5015120271107711,B,536,Correct
1,relearn,21,435,B,43.04849259466363,20.084797463384117,2.1524246297331815,0.31549126079903234,A,886,Correct
1,relearn,21,436,B,84.08121605472144,64.8080711561515,4.2040608027360715,1.0180028011874507,A,1305,Correct
1,relearn,21,437,A,61.64745248141395,83.46032956101939,3.0823726240706977,1.3109917910754079,B,703,Incorrect
1,relearn,21,438,B,86.19123187528989,63.09141939127162,4.309561593764494,0.9910376983208578,B,1055,Correct
1,relearn,21,439,B,79.34306834572568,50.17078496954884,3.967153417286284,0.7880808474258394,B,1180,Incorrect
1,relearn,21,440,B,65.04942758613419,36.96305175428204,3.2524713793067095,0.5806142592275588,A,1325,Incorrect
1,relearn,21,441,B,44.21131054604983,29.68332171602804,2.210565527302492,0.4662645271860803,B,398,Correct
1,relearn,21,442,A,49.580673624483524,67.70295884804406,2.479033681224176,1.0634755907165365,B,635,Incorrect
1,relearn,21,443,A,25.542969659239358,37.69509044813326,1.277148482961968,0.5921130961412912,A,642,Incorrect
1,relearn,21,444,A,20.556681460188347,51.195100489238996,1.0278340730094173,0.8041707579839223,B,600,Correct
1,relearn,21,445,A,56.95803797242948,66.75458464486893,2.847901898621474,1.0485785635687912,A,606,Correct
1,relearn,21,446,B,86.14420990876155,58.48632114697082,4.307210495438078,0.9187009842540845,B,657,Correct
1,relearn,21,447,B,30.993929224039437,15.671201296394887,1.549696461201972,0.2461626543284051,B,799,Correct
1,relearn,21,448,B,68.43101961638287,47.68566712355344,3.421550980819143,0.7490447075844191,B,611,Incorrect
1,relearn,21,449,B,85.25290738399251,56.71920000429708,4.2626453691996256,0.8909431102549493,B,757,Incorrect
1,relearn,21,450,B,85.98799095507798,67.62523557917191,4.299399547753898,1.062254716464028,B,495,Correct
1,relearn,21,451,A,56.15118127684946,77.52096233072308,2.807559063842473,1.2176964287870535,B,845,Incorrect
1,relearn,21,452,B,38.55558075081889,13.08303343699647,1.9277790375409445,0.20550780866168866,B,817,Incorrect
1,relearn,21,453,A,39.11787042636986,52.71689789424386,1.955893521318493,0.8280750957229985,A,697,Correct
1,relearn,21,454,A,57.52077175303189,76.42938447151491,2.8760385876515944,1.200549963870505,A,799,Incorrect
1,relearn,21,455,A,32.48578699116393,42.97639526792497,1.6242893495581965,0.6750716382574211,A,849,Incorrect
1,relearn,21,456,A,45.3696762396052,74.46267508762367,2.26848381198026,1.1696569651096111,B,672,Incorrect
1,relearn,21,457,A,14.949557963744514,41.06141453496765,0.7474778981872257,0.6449911912452977,A,594,Correct
1,relearn,21,458,B,80.23579398275503,61.34373591239351,4.0117896991377515,0.9635851504306391,B,594,Incorrect
1,relearn,21,459,B,43.5582706242069,30.630964070670068,2.177913531210345,0.4811500584839499,B,641,Correct
1,relearn,21,460,B,82.4156464278926,60.03472132102024,4.12078232139463,0.9430231973121385,B,728,Incorrect
1,relearn,21,461,B,60.82797390411084,48.45613847757751,3.041398695205542,0.7611472433124361,A,1479,Correct
1,relearn,21,462,A,55.77239953495819,71.16231338325252,2.7886199767479094,1.1178150046864037,B,628,Correct
1,relearn,21,463,A,34.546404233893995,52.998436409974374,1.7273202116947,0.8324974923866068,B,1145,Correct
1,relearn,21,464,B,55.71713953897011,39.359256981154545,2.785856976948505,0.6182537629137395,B,1386,Incorrect
1,relearn,21,465,A,60.36868375782239,79.8713352874262,3.018434187891119,1.254616000856927,B,1028,Incorrect
1,relearn,21,466,B,30.132311450379003,14.023136458400256,1.50661557251895,0.22027491238998714,A,736,Correct
1,relearn,21,467,B,42.81655664959986,22.561706138226192,2.140827832479993,0.35439845128151576,B,613,Incorrect
1,relearn,21,468,A,43.09982684987495,56.86462340613051,2.1549913424937475,0.893227415709249,B,3843,Incorrect
1,relearn,21,469,A,38.675138699668864,71.85633952333697,1.9337569349834434,1.1287167418018464,A,636,Incorrect
1,relearn,21,470,B,78.88498498439236,58.060862234789916,3.944249249219618,0.9120178912895253,B,422,Correct
1,relearn,21,471,B,41.75210383288569,33.80688715087796,2.0876051916442844,0.5310373415696868,B,579,Correct
1,relearn,21,472,A,16.848152300232133,40.4978858744894,0.8424076150116067,0.6361393037460689,B,408,Incorrect
1,relearn,21,473,A,13.633148253206919,31.44609473950468,0.6816574126603459,0.4939541010885827,A,444,Incorrect
1,relearn,21,474,B,73.61294150481676,52.097036742527926,3.680647075240838,0.8183383395206162,B,602,Correct
1,relearn,21,475,A,30.009089001157164,52.45102819797053,1.5004544500578583,0.8238988242998764,A,1188,Incorrect
1,relearn,21,476,A,36.91551879336845,67.79013957441683,1.8457759396684223,1.064845022364073,A,1245,Correct
1,relearn,21,477,A,53.2314200040395,62.4769929951745,2.6615710002019752,0.9813863110601059,B,832,Incorrect
1,relearn,21,478,A,11.886772755955413,33.30442004060776,0.5943386377977706,0.52314460665821,B,851,Incorrect
1,relearn,21,479,A,21.021356072408373,47.347453061820644,1.0510678036204186,0.7437320535260163,B,823,Correct
1,relearn,21,480,B,74.66210281494915,52.77923763345528,3.7331051407474574,0.8290543260566652,B,788,Incorrect
1,relearn,21,481,A,56.28333934792798,69.34614951000682,2.8141669673963987,1.0892867692768844,B,1311,Correct
1,relearn,21,482,B,65.60117039276493,54.16802941935605,3.280058519638246,0.850869416416424,A,800,Correct
1,relearn,21,483,B,57.82333096970693,50.38634041124587,2.8911665484853466,0.7914667843862226,A,642,Correct
1,relearn,21,484,B,37.928435259243656,11.572600611572383,1.896421762962183,0.18178198532122272,B,884,Correct
1,relearn,21,485,A,25.62904037794386,55.77391443425169,1.281452018897193,0.8760945992429541,A,1048,Correct
1,relearn,21,486,A,28.73836649651109,45.77152556247037,1.4369183248255546,0.7189774422532716,B,1621,Correct
1,relearn,21,487,A,67.05073317753022,85.44952095134539,3.352536658876511,1.3422379363675692,A,1089,Correct
1,relearn,21,488,B,51.710918437376314,30.015045850415135,2.5855459218688157,0.4714752377041249,B,984,Correct
1,relearn,21,489,B,62.18128212388751,43.480992305509346,3.1090641061943756,0.6829978299889125,A,1692,Correct
1,relearn,21,490,B,45.794335637953395,35.198703644783336,2.2897167818976696,0.5528999439316781,A,1012,Incorrect
1,relearn,21,491,B,62.317733492727534,37.31238162565851,3.1158866746363767,0.5861015200155377,A,1546,Correct
1,relearn,21,492,B,38.59790218271614,13.159435299956588,1.9298951091358072,0.20670792631866905,B,1041,Correct
1,relearn,21,493,B,47.99228820296619,30.134117141193837,2.3996144101483097,0.4733456051659441,B,1338,Incorrect
1,relearn,21,494,A,41.47662560191003,58.796207972878314,2.0738312800955017,0.9235686751326608,B,839,Correct
1,relearn,21,495,B,50.361360997872104,22.18220233181615,2.518068049893605,0.34843721943038,A,700,Correct
1,relearn,21,496,A,16.60800395516428,38.725443406441144,0.8304001977582139,0.6082978425634139,B,796,Correct
1,relearn,21,497,A,53.03593201611689,71.97721822945795,2.6517966008058442,1.130615500077472,A,1487,Incorrect
1,relearn,21,498,B,35.97628035660538,24.922927514917504,1.798814017830269,0.3914884299340788,A,681,Incorrect
1,relearn,21,499,B,77.06407042469345,54.406020357880635,3.853203521234673,0.8546077693368727,B,812,Incorrect
1,relearn,21,500,A,42.74258219515988,71.48308287498246,2.137129109757994,1.122853640079976,A,1211,Incorrect
1,relearn,21,501,B,43.030213072813766,15.220985789701619,2.1515106536406883,0.2390906856866062,A,679,Incorrect
1,relearn,21,502,A,51.156165049602045,76.4078363802822,2.5578082524801022,1.2002114872449274,B,636,Correct
1,relearn,21,503,B,48.165641107223564,40.88290789806627,2.408282055361178,0.6421872155497657,A,998,Correct
1,relearn,21,504,A,22.163517657661433,47.965026311138885,1.1081758828830717,0.7534328714415754,107,1150,Incorrect
1,relearn,21,505,B,37.46182155757219,23.650821824975466,1.8730910778786096,0.3715062404835204,A,1096,Incorrect
1,relearn,21,506,B,36.902931980361274,17.965188630770708,1.8451465990180638,0.2821965231139206,B,637,Incorrect
1,relearn,21,507,A,33.16304454497503,52.62707371132318,1.6581522272487517,0.8266641407571071,A,625,Correct
1,relearn,21,508,B,78.04005435415205,65.54430448693287,3.9020027177076027,1.0295675273040041,A,961,Incorrect
1,relearn,21,509,A,50.22899290604451,76.59863707388337,2.5114496453022257,1.2032085775315138,A,629,Correct
1,relearn,21,510,B,74.12562731761469,45.03566232159791,3.706281365880734,0.7074185294954133,B,719,Correct
1,relearn,21,511,A,62.20359277534938,88.70467086410946,3.1101796387674687,1.3933697116289343,A,796,Incorrect
1,relearn,21,512,B,69.2669777319128,49.163671395065315,3.46334888659564,0.7722611443911992,B,605,Incorrect
1,relearn,21,513,B,48.31001460265989,37.82528220438273,2.4155007301329947,0.5941581434662476,B,233,Correct
1,relearn,21,514,B,58.58547612751998,42.13858473083049,2.929273806375999,0.6619113411152404,B,460,Correct
1,relearn,21,515,A,22.26494696569837,47.43243223985502,1.1132473482849186,0.745066903333121,A,605,Correct
1,relearn,21,516,B,46.540316269953834,18.95154265640144,2.3270158134976917,0.29769013591772175,B,849,Incorrect
1,relearn,21,517,A,60.13778731350527,70.69431852455578,3.0068893656752635,1.1104637586364063,A,724,Incorrect
1,relearn,21,518,B,51.73938269872497,35.31292148676184,2.5869691349362482,0.5546940735980208,B,1499,Correct
1,relearn,21,519,A,67.01649492494148,84.52113381746508,3.350824746247074,1.3276548653701405,B,565,Correct
1,relearn,21,520,A,53.50441685460906,79.9222601931587,2.6752208427304534,1.2554159274055965,A,183,Correct
1,relearn,21,521,B,31.617448533072125,12.563251576991565,1.5808724266536063,0.1973430942973854,B,530,Incorrect
1,relearn,21,522,A,20.858405816809224,43.22220393288096,1.0429202908404611,0.6789327917374933,A,770,Correct
1,relearn,21,523,B,75.29650915164126,49.188222121726284,3.764825457582063,0.7726467863037912,B,594,Incorrect
1,relearn,21,524,A,29.736756791302053,50.463381431097204,1.4868378395651027,0.7926769418961728,A,256,Correct
1,relearn,21,525,A,56.42795051760714,74.37116754101287,2.8213975258803567,1.1682195679287082,B,459,Correct
1,relearn,21,526,A,28.421632857605186,40.741161097405325,1.4210816428802593,0.6399606620116343,A,431,Incorrect
1,relearn,21,527,A,31.206379673377278,42.46474244235335,1.560318983668864,0.6670346144673998,B,483,Incorrect
1,relearn,21,528,A,15.389331682163423,37.098878057056645,0.7694665841081713,0.5827478138023635,B,378,Correct
1,relearn,21,529,A,32.370444918306575,65.41494379403892,1.6185222459153288,1.0275355342917094,A,731,Incorrect
1,relearn,21,530,B,43.49903342969734,32.40863601255884,2.174951671484867,0.5090736640496023,B,1471,Incorrect
1,relearn,21,531,A,64.90834393643757,81.4761547210466,3.2454171968218786,1.2798244455719265,A,655,Incorrect
1,relearn,21,532,B,47.22870475671607,32.79094845098333,2.3614352378358037,0.5150790137892541,B,794,Incorrect
1,relearn,21,533,B,67.8598507866313,56.83872610303911,3.3929925393315647,0.8928206218235504,A,415,Incorrect
1,relearn,21,534,A,54.57658661574747,74.23189287699512,2.7288293307873737,1.1660318466221617,A,298,Incorrect
1,relearn,21,535,A,42.22902127605917,64.7752516026128,2.1114510638029587,1.0174872728459943,A,567,Correct
1,relearn,21,536,A,18.36398894015483,45.39912977441416,0.9181994470077415,0.7131278628933458,B,552,Incorrect
1,relearn,21,537,A,22.1522160138281,47.290262945433206,1.107610800691405,0.742833713278513,A,574,Correct
1,relearn,21,538,A,36.60903291306535,50.125273361353486,1.8304516456532673,0.7873659527560414,A,738,Incorrect
1,relearn,21,539,B,46.759246375834536,20.928356441166567,2.337962318791727,0.3287418542363876,B,781,Incorrect
1,relearn,21,540,B,51.82976145252456,39.197026808276924,2.5914880726262277,0.6157054573172248,A,669,Incorrect
1,relearn,21,541,B,51.211737906604654,19.74777676359322,2.5605868953302324,0.31019735202617843,B,650,Correct
1,relearn,21,542,A,35.92385970993459,45.913139329306105,1.7961929854967296,0.7212019061009634,A,286,Correct
1,relearn,21,543,A,27.54260101261322,58.48740433950527,1.3771300506306607,0.9187179990026277,A,612,Incorrect
1,relearn,21,544,A,27.079610177684565,37.8882551511785,1.3539805088842283,0.5951473202013899,A,656,Correct
1,relearn,21,545,B,74.85907866862772,48.5157801397508,3.742953933431386,0.7620840923510934,B,605,Correct
1,relearn,21,546,A,58.618112903051305,86.83161454594136,2.9309056451525652,1.3639478117843498,A,543,Correct
1,relearn,21,547,B,45.674946549020135,33.4037175526495,2.2837473274510067,0.5247043683299606,B,1047,Correct
1,relearn,21,548,B,44.082242685805156,35.83489817293518,2.204112134290258,0.5628932642111574,B,636,Correct
1,relearn,21,549,A,31.401412485210287,56.2398233155443,1.5700706242605145,0.8834130788365098,B,676,Correct
1,relearn,21,550,A,23.790436568875172,51.89916751847338,1.1895218284437588,0.8152302170173098,B,614,Correct
1,relearn,21,551,B,53.953027437812196,47.05710001643452,2.6976513718906094,0.7391711985543541,A,287,Incorrect
1,relearn,21,552,A,52.6360104088173,65.28280697457106,2.6318005204408648,1.0254599339851647,A,322,Correct
1,relearn,21,553,B,62.713189463507945,34.47767862505073,3.135659473175397,0.541574109406446,B,620,Incorrect
1,relearn,21,554,A,46.90250276755608,64.91436379971155,2.3451251383778042,1.0196724421281451,B,1745,Correct
1,relearn,21,555,A,62.07332155852133,85.7587760823981,3.1036660779260665,1.3470957046065697,B,574,Correct
1,relearn,21,556,B,40.97529508525535,25.67897649667082,2.048764754262767,0.40336441956823005,A,577,Correct
1,relearn,21,557,A,37.95475385832432,51.750673542257495,1.897737692916216,0.812897679093399,A,684,Incorrect
1,relearn,21,558,B,63.86688208490219,53.83382990343223,3.193344104245109,0.8456198226961261,B,462,Incorrect
1,relearn,21,559,B,35.22997250024751,13.582742413653804,1.7614986250123759,0.2133572189116864,A,457,Correct
1,relearn,21,560,B,72.29648861008121,46.64717806934266,3.6148244305040604,0.732732159666709,A,502,Incorrect
1,relearn,21,561,A,32.07914642770483,53.40047262335376,1.6039573213852412,0.8388126624587552,A,552,Correct
1,relearn,21,562,A,31.01980424782325,54.1436451599554,1.5509902123911623,0.8504863893654421,A,486,Incorrect
1,relearn,21,563,B,59.36525039822814,50.57668845133055,2.968262519911407,0.7944567644079987,B,598,Incorrect
1,relearn,21,564,B,73.60291502137186,60.4254013701685,3.680145751068593,0.9491599851736798,B,637,Correct
1,relearn,21,565,B,73.02794053338498,56.376048990465634,3.6513970266692493,0.8855529067343255,B,697,Incorrect
1,relearn,21,566,B,77.62894024434358,56.898396061340804,3.8814470122171794,0.8937579153367535,B,645,Correct
1,relearn,21,567,A,45.27629212694349,72.82706894879806,2.2638146063471742,1.1439649239601066,A,608,Incorrect
1,relearn,21,568,B,50.947685458924575,31.288833208262382,2.547384272946229,0.4914838427323672,B,654,Incorrect
1,relearn,21,569,B,36.538169652769014,17.372204317558865,1.8269084826384505,0.27288194730351906,A,658,Correct
1,relearn,21,570,A,34.90778916342059,58.18342905975664,1.7453894581710296,0.9139431664739718,B,577,Correct
1,relearn,21,571,A,19.978069078046488,51.598880539222435,0.9989034539023244,0.8105133201773929,B,583,Correct
1,relearn,21,572,A,39.997734998534895,72.90098711364531,1.9998867499267448,1.1451260277783615,A,875,Correct
1,relearn,21,573,B,54.871885579768,22.677918069417952,2.7435942789884002,0.3562239040279733,A,1657,Incorrect
1,relearn,21,574,A,42.22830383938613,70.6418143548299,2.1114151919693063,1.1096390250669381,A,306,Incorrect
1,relearn,21,575,A,48.08280057093359,76.91415577774357,2.4041400285466796,1.2081647337421006,B,442,Correct
1,relearn,21,576,B,47.193621994545964,28.49771574891902,2.359681099727298,0.44764107220447075,A,626,Incorrect
1,relearn,21,577,B,72.36904107010693,45.450063362449946,3.618452053505347,0.7139279258233168,A,489,Incorrect
1,relearn,21,578,A,58.14441811095638,67.52782880082725,2.907220905547819,1.0607246543677407,B,595,Correct
1,relearn,21,579,A,27.128771619022253,55.26338343770809,1.3564385809511126,0.868075197102098,A,341,Incorrect
1,relearn,21,580,A,45.586525261127704,65.86740253444633,2.279326263056385,1.0346427395662916,B,574,Incorrect
1,relearn,21,581,B,76.04991908853451,65.43916221430399,3.8024959544267256,1.027915956347641,B,410,Incorrect
1,relearn,21,582,A,60.95655292750272,76.33728234707442,3.047827646375136,1.199103227082894,B,757,Correct
1,relearn,21,583,A,50.0649884738867,74.54445519206907,2.503249423694335,1.1709415639862886,B,1465,Incorrect
1,relearn,21,584,B,63.31410600053671,40.91402640837922,3.1657053000268354,0.6426760239667147,B,675,Correct
1,relearn,21,585,B,66.2452310997583,56.570399998155615,3.312261554987915,0.8886057652242088,A,3017,Correct
1,relearn,21,586,A,19.838215846636,49.66582813021132,0.9919107923318,0.7801490039416259,B,967,Correct
1,relearn,21,587,B,54.31001686622403,37.23199255725966,2.715500843311202,0.584838771481984,A,814,Incorrect
1,relearn,21,588,A,27.598636837713627,37.38602686604884,1.3799318418856814,0.5872583367464483,B,78,Correct
1,relearn,21,589,A,20.30265844499571,39.19032243868533,1.0151329222497856,0.6156001453259453,A,681,Incorrect
1,relearn,21,590,A,30.784412243909898,48.11401100079676,1.539220612195495,0.7557731174742078,B,311,Incorrect
1,relearn,21,591,A,25.516065617733496,51.03087568758067,1.2758032808866746,0.801591120831787,B,129,Correct
1,relearn,21,592,A,34.99945976356122,46.05824216437542,1.749972988178061,0.7234811761043075,A,94,Incorrect
1,relearn,21,593,B,70.08048835904187,41.37281474289404,3.504024417952093,0.6498826542730372,B,530,Incorrect
1,relearn,21,594,B,63.274256867984434,30.872930096021825,3.163712843399222,0.4849508519222669,B,381,Incorrect
1,relearn,21,595,B,44.82588781955816,34.262747058177546,2.2412943909779077,0.5381979722488793,A,773,Incorrect
1,relearn,21,596,A,57.21039449485815,78.12877873285137,2.860519724742908,1.2272439865053417,B,431,Incorrect
1,relearn,21,597,A,39.23002770038703,61.77878932852754,1.9615013850193517,0.970418953510868,A,1135,Correct
1,relearn,21,598,B,62.96420885600263,41.20739623498934,3.1482104428001314,0.6472842664270311,B,567,Incorrect
1,relearn,21,599,A,29.194232625103602,44.95542093223712,1.45971163125518,0.7061581006987647,B,1164,Incorrect
1,relearn,21,600,A,55.514559641149404,73.8307294647213,2.77572798205747,1.1597303864777198,B,839,Incorrect
1,relearn,21,601,A,45.066022302600196,59.300168987197154,2.25330111513001,0.9314848762340592,B,832,Incorrect
1,relearn,21,602,A,47.8845438181804,72.69450043486164,2.3942271909090196,1.1418825426127066,A,603,Correct
1,relearn,21,603,A,67.7280218790739,89.37304686122803,3.3864010939536957,1.4038685372408517,B,836,Incorrect
1,relearn,21,604,B,71.17473095076292,43.258212255739835,3.558736547538146,0.6794984091503011,B,631,Correct
1,relearn,21,605,A,46.28501814772263,67.76412940508608,2.3142509073861315,1.0644364555796324,A,892,Correct
1,relearn,21,606,B,49.956436261954984,27.35035610500993,2.497821813097749,0.42961838906281974,B,637,Correct
1,relearn,21,607,B,45.29809837499515,32.545827119515664,2.2649049187497576,0.5112286569183694,B,541,Correct
1,relearn,21,608,B,76.92699464174859,64.31540084751096,3.84634973208743,1.0102639540761158,A,717,Incorrect
1,relearn,21,609,A,43.94097304319405,53.06901800181495,2.1970486521597024,0.8336061854386317,A,894,Correct
1,relearn,21,610,A,25.87451617229389,48.883296070926065,1.2937258086146946,0.7678570190983807,A,753,Correct
1,relearn,21,611,B,47.12260701598757,22.548558206830123,2.3561303507993783,0.35419192405809674,B,683,Correct
1,relearn,21,612,A,15.147310924753768,38.57223597931624,0.7573655462376884,0.605891265925759,A,601,Correct
1,relearn,21,613,A,51.0504185191694,66.53716513798312,2.55252092595847,1.0451633459408933,B,869,Incorrect
1,relearn,21,614,B,60.744727125119034,38.619855829789856,3.037236356255952,0.6066392767878238,A,783,Incorrect
1,relearn,21,615,B,56.510217460756934,40.45049136556579,2.825510873037847,0.6353948325407942,B,661,Correct
1,relearn,21,616,B,42.976807443782235,21.07973583124591,2.148840372189112,0.3311197161352784,B,686,Correct
1,relearn,21,617,A,46.88309329570147,54.54104215392676,2.3441546647850737,0.8567286867495377,A,717,Correct
1,relearn,21,618,A,38.42006130870413,67.44212996947624,1.9210030654352064,1.059378500272773,B,630,Incorrect
1,relearn,21,619,B,87.27562829749527,69.687143679023,4.363781414874763,1.0946430931583753,B,701,Correct
1,relearn,21,620,A,55.25606095805795,73.66787581402872,2.7628030479028975,1.157172287314589,B,515,Incorrect
1,relearn,21,621,A,26.331619056153848,41.850987069909586,1.3165809528076924,0.6573937676215469,A,597,Correct
1,relearn,21,622,A,61.0090242804625,73.74641854231061,3.050451214023125,1.1584060336054056,A,854,Correct
1,relearn,21,623,A,63.8769640522523,86.84228408719707,3.193848202612615,1.3641154085464806,A,563,Correct
1,relearn,21,624,B,42.95959895094382,15.006498271622732,2.147979947547191,0.23572152363118953,B,842,Correct
1,relearn,21,625,A,14.303838033551418,40.263830822544506,0.7151919016775709,0.6324627755874405,A,1314,Correct
1,relearn,21,626,A,39.93402638000727,64.1131716363767,1.9967013190003633,1.0070873450559128,B,653,Incorrect
1,relearn,21,627,B,55.639625765552076,48.13111390343681,2.781981288277604,0.7560417692406532,A,1977,Incorrect
1,relearn,21,628,A,28.997655037074843,43.978999956487385,1.4498827518537423,0.690820515877633,A,590,Correct
1,relearn,21,629,A,13.330335776289658,37.493351396280026,0.666516788814483,0.5889441865250697,A,600,Correct
1,relearn,21,630,B,71.82206866624674,48.4015455247272,3.591103433312337,0.7602896992143745,B,587,Correct
1,relearn,21,631,B,67.99555024614693,42.08352157018798,3.3997775123073466,0.6610464110104507,B,705,Correct
1,relearn,21,632,A,11.462953233994668,34.99848061116948,0.5731476616997334,0.5497548478742742,A,530,Correct
1,relearn,21,633,A,41.74490179545843,62.69674841981754,2.0872450897729213,0.9848382211983313,A,898,Correct
1,relearn,21,634,A,41.52417647790524,50.572588774335784,2.0762088238952625,0.7943923668323546,A,661,Correct
1,relearn,21,635,B,71.09570640878583,37.97174724258301,3.5547853204392914,0.5964588109063363,B,1438,Correct
1,relearn,21,636,A,59.25782262975068,73.50157491363274,2.9628911314875337,1.1545600388797421,A,1219,Correct
1,relearn,21,637,A,61.78570043558065,79.90376998837426,3.0892850217790326,1.255125483948026,A,625,Correct
1,relearn,21,638,A,26.25767068050656,58.69763834552514,1.312883534025328,0.9220203470468616,A,708,Correct
1,relearn,21,639,A,31.236234925568194,62.291334148245745,1.5618117462784096,0.9784699887121793,A,813,Correct
1,relearn,21,640,B,51.73295658996337,25.737361518863494,2.5866478294981685,0.40428152935223094,B,1264,Correct
1,relearn,21,641,A,27.829207193025,56.00911198512179,1.39146035965125,0.8797890737327333,A,667,Correct
1,relearn,21,642,A,14.931486545897155,38.045705157784155,0.7465743272948577,0.59762053912169,A,746,Correct
1,relearn,21,643,A,25.860503305812543,37.98164004438732,1.293025165290627,0.5966142066736956,A,713,Correct
1,relearn,21,644,A,47.71456043389826,64.08266483201233,2.385728021694913,1.0066081452935345,B,779,Incorrect
1,relearn,21,645,A,39.03626035808606,66.6221811224457,1.951813017904303,1.04649877390202,A,873,Correct
1,relearn,21,646,A,29.265832985110773,48.6356678347405,1.4632916492555388,0.7639672838602708,B,846,Incorrect
1,relearn,21,647,B,76.5159151031639,46.257472684355136,3.8257957551581954,0.726610681794003,B,689,Correct
1,relearn,21,648,B,51.09513364262311,43.792481754848886,2.554756682131156,0.6878906948174915,A,986,Incorrect
1,relearn,21,649,A,28.26936208318353,60.21131994765068,1.4134681041591763,0.9457972020524197,A,661,Correct
1,relearn,21,650,B,57.66485744782809,41.296025739946046,2.8832428723914045,0.6486764554353476,B,774,Correct
1,relearn,21,651,A,25.39388680219197,39.50244269966966,1.2696943401095986,0.6205029189206697,B,478,Incorrect
1,relearn,21,652,A,49.56970501845889,76.96266264159603,2.4784852509229442,1.2089266777777383,B,644,Incorrect
1,relearn,21,653,B,52.84499280092819,39.612741757598016,2.6422496400464093,0.6222354924710978,B,704,Correct
1,relearn,21,654,A,49.203636550963715,65.74508950008848,2.460181827548186,1.032721450915407,A,826,Correct
1,relearn,21,655,A,22.207249660348104,39.25144017367216,1.1103624830174053,0.6165601804621387,A,714,Correct
1,relearn,21,656,B,74.05856883512291,47.366542990089485,3.7029284417561454,0.7440319174180511,B,848,Correct
1,relearn,21,657,B,82.18927028248922,54.51681694655606,4.109463514124461,0.8563481580820004,B,1025,Correct
1,relearn,21,658,B,54.13038840585926,26.578374308419818,2.7065194202929628,0.417492127358457,B,1155,Correct
1,relearn,21,659,B,68.57683852183774,52.13218577066394,3.4288419260918874,0.8188904591634809,B,707,Correct
1,relearn,21,660,B,89.23537582948249,66.86538967781375,4.461768791474125,1.0503190849561923,B,827,Correct
1,relearn,21,661,A,54.05886006112938,68.02616575686217,2.702943003056469,1.0685525129681988,B,1433,Incorrect
1,relearn,21,662,B,73.46344147752511,48.94085372223097,3.6731720738762554,0.7687611325708673,B,999,Correct
1,relearn,21,663,A,23.985169597589284,35.12754439752876,1.199258479879464,0.5517821770896283,A,717,Correct
1,relearn,21,664,A,19.056617851765154,48.69687240800811,0.9528308925882577,0.7649286830489888,A,657,Correct
1,relearn,21,665,A,11.92788004944569,37.04829913877065,0.5963940024722845,0.5819533220117947,A,668,Correct
1,relearn,21,666,B,83.48475410211756,68.89371797402714,4.174237705105878,1.0821799913284535,A,1176,Incorrect
1,relearn,21,667,A,52.16521575985604,64.25526031348585,2.608260787992802,1.0093192687767345,A,1230,Correct
1,relearn,21,668,A,34.75336812004646,46.02808475804964,1.7376684060023229,0.7230074646734853,B,1057,Incorrect
1,relearn,21,669,A,16.847796659898215,43.276272414053714,0.8423898329949108,0.6797820974537088,A,661,Correct
1,relearn,21,670,B,37.29063305414726,27.609851431089616,1.864531652707363,0.4336945321130839,B,795,Correct
1,relearn,21,671,B,57.76316567129929,25.16857712629296,2.8881582835649646,0.39534708500635035,B,817,Correct
1,relearn,21,672,B,36.47034419370047,12.712057881345306,1.8235172096850234,0.1996805382602132,B,697,Correct
1,relearn,21,673,B,73.29004871582896,50.81025146177927,3.664502435791448,0.798125563596879,B,645,Correct
1,relearn,21,674,A,28.69419904677697,39.53092485217604,1.4347099523388485,0.6209503155260322,B,772,Incorrect
1,relearn,21,675,A,62.66095838343357,87.47036089749189,3.1330479191716787,1.3739812160120422,A,1025,Correct
1,relearn,21,676,A,12.368081037107075,39.917517200625014,0.6184040518553537,0.6270228939351387,A,666,Correct
1,relearn,21,677,B,31.866101221144525,10.90711409139901,1.5933050610572264,0.1713285475070242,B,1363,Correct
1,relearn,21,678,A,18.881084469700212,46.642226243741014,0.9440542234850107,0.732654376572049,A,926,Correct
1,relearn,21,679,B,42.86628208104112,29.051743084404116,2.143314104052056,0.45634371323971024,B,608,Correct
1,relearn,21,680,B,45.31136083894246,28.797645473568636,2.265568041947123,0.45235235730223294,B,777,Correct
1,relearn,21,681,A,25.87936666450365,43.8330348113723,1.2939683332251826,0.6885277007397644,A,1039,Correct
1,relearn,21,682,A,37.47206979399022,52.4101135450768,1.873603489699511,0.8232561384351009,B,1049,Incorrect
1,relearn,21,683,B,50.911701430316604,43.375142785366926,2.54558507151583,0.6813351496145852,B,996,Correct
1,relearn,21,684,B,40.48265148859254,26.862970350132883,2.024132574429627,0.42196255152788953,B,690,Correct
1,relearn,21,685,B,46.391925008733196,16.902834729199853,2.31959625043666,0.26550910705048336,B,788,Correct
1,relearn,21,686,A,39.54119605024995,67.44167434562073,1.9770598025124975,1.0593713433499863,A,1743,Correct
1,relearn,21,687,A,65.03953467421418,83.87858376304357,3.251976733710709,1.3175617127174686,A,897,Correct
1,relearn,21,688,B,62.41389296012482,46.46832106006129,3.120694648006241,0.7299226803347022,B,745,Correct
1,relearn,21,689,A,31.199945342426922,51.70504881783982,1.5599972671213462,0.8121810075981359,A,1035,Correct
1,relearn,21,690,B,58.611197570254056,51.715346637850686,2.9305598785127027,0.8123427653766068,B,634,Correct
1,relearn,21,691,B,73.89064549731694,49.652374609740306,3.694532274865847,0.7799376765362426,B,936,Correct
1,relearn,21,692,B,78.85349021320013,52.68793828047197,3.9426745106600065,0.8276201991736158,B,676,Correct
1,relearn,21,693,B,80.97517416910108,66.2926615268566,4.048758708455054,1.041322692198437,B,1003,Correct
1,relearn,21,694,A,17.560389846534466,41.30603228922449,0.8780194923267233,0.6488336379438521,A,781,Correct
1,relearn,21,695,A,59.264351972712504,73.36854446106214,2.9632175986356253,1.1524704014172447,A,819,Correct
1,relearn,21,696,B,36.84914796901873,14.958387131134021,1.8424573984509365,0.2349657956036137,A,830,Incorrect
1,relearn,21,697,B,30.16113952780773,11.868829491988773,1.5080569763903864,0.18643513769370906,A,606,Incorrect
1,relearn,21,698,B,39.12491036069353,27.132226922945925,1.9562455180346763,0.4261920238832906,B,405,Correct
1,relearn,21,699,B,39.91789648200043,28.129777932961396,1.9958948241000214,0.441861518506519,B,645,Correct
1,relearn,21,700,B,88.65258185702481,62.329697223656396,4.432629092851241,0.9790725944915752,B,664,Correct
1,relearn,21,701,B,85.33496813215953,64.514337033997,4.266748406607976,1.0133888363861043,B,590,Correct
1,relearn,21,702,A,20.55983162551736,42.20481292310757,1.027991581275868,0.6629516511268314,A,603,Correct
1,relearn,21,703,B,77.86899540353616,57.31980849239686,3.8934497701768076,0.900377446324439,B,594,Correct
1,relearn,21,704,A,30.456796507330473,60.73820319329701,1.5228398253665236,0.9540734647215299,A,781,Correct
1,relearn,21,705,A,32.260843854872206,44.056173285967894,1.6130421927436103,0.6920327517023781,B,689,Incorrect
1,relearn,21,706,A,20.120331769396934,45.73701298329139,1.0060165884698467,0.7184353199272462,A,467,Correct
1,relearn,21,707,A,55.213572196110036,84.53239390222276,2.7606786098055016,1.3278317383679084,B,632,Incorrect
1,relearn,21,708,B,67.05994833643601,41.60229630427671,3.352997416821801,0.6534873422099076,B,810,Correct
1,relearn,21,709,A,18.352864433879482,46.584654568190025,0.9176432216939742,0.7317500428072198,A,645,Correct
1,relearn,21,710,A,59.034686368080294,82.96488049169616,2.951734318404015,1.3032092952933392,A,916,Correct
1,relearn,21,711,B,63.024841914103675,49.28363126216174,3.1512420957051837,0.774145469577178,B,1100,Correct
1,relearn,21,712,B,55.78648482980461,43.86856369397369,2.7893242414902306,0.6890857871226183,B,1068,Correct
1,relearn,21,713,B,74.1746954358462,57.75692209394451,3.7087347717923103,0.9072436107214704,B,743,Correct
1,relearn,21,714,B,66.22067688251072,55.1122632248268,3.311033844125536,0.8657014063491141,B,779,Correct
1,relearn,21,715,B,51.22255333462626,27.130856000590317,2.561127666731313,0.42617048948528546,B,653,Correct
1,relearn,21,716,A,47.80613760353026,79.53969774857188,2.390306880176513,1.2494066505783303,A,1115,Correct
1,relearn,21,717,A,18.007161960836264,40.96724654913986,0.9003580980418132,0.643512003982898,A,558,Correct
1,relearn,21,718,B,72.6256495346847,47.87746873715964,3.6312824767342353,0.7520575202856785,B,661,Correct
1,relearn,21,719,B,49.74716520491589,28.20079206503643,2.487358260245794,0.4429770058846589,B,770,Correct
1,relearn,21,720,B,60.19745006202264,33.72237005839255,3.009872503101132,0.5297097501854121,B,694,Correct
1,relearn,21,721,B,73.86090672690744,58.47043084096859,3.693045336345372,0.918451379911085,B,869,Correct
1,relearn,21,722,A,62.497156126315126,81.3268444085802,3.124857806315756,1.2774790846681787,A,811,Correct
1,relearn,21,723,B,72.06870826462476,60.26760883065511,3.6034354132312383,0.9466813857590473,B,1867,Correct
1,relearn,21,724,B,37.11610850792505,13.631128467102048,1.8558054253962524,0.21411726526193245,B,834,Correct
1,relearn,21,725,A,36.247601439097714,49.76948273615099,1.8123800719548857,0.7817772066842801,A,838,Correct
1,relearn,21,726,A,17.475951590564964,46.73693200181316,0.8737975795282482,0.7341420111411096,A,772,Correct
1,relearn,21,727,A,44.04094784175518,70.17937765220775,2.202047392087759,1.1023750863283979,B,1317,Incorrect
1,relearn,21,728,A,54.72727573463189,81.70825411477239,2.736363786731595,1.2834702543230845,A,1073,Correct
1,relearn,21,729,B,48.110245098477776,24.697821145136864,2.405512254923889,0.3879524673461831,B,1047,Correct
1,relearn,21,730,B,55.036199678213485,26.10077952677564,2.751809983910674,0.4099900860714261,B,708,Correct
1,relearn,21,731,A,45.904407391191974,70.87329697169989,2.2952203695595985,1.1132751455099004,A,967,Correct
1,relearn,21,732,B,83.01848190540274,62.46788756767121,4.1509240952701365,0.9812432833393454,B,911,Correct
1,relearn,21,733,A,27.325687739449748,47.456157215377324,1.3662843869724872,0.7454395743771584,A,819,Correct
1,relearn,21,734,A,55.283381508559785,63.684417191447295,2.764169075427989,1.0003524859839916,B,1082,Incorrect
1,relearn,21,735,A,16.35153615558412,35.02843233525131,0.8175768077792059,0.5502253284559634,A,644,Correct
1,relearn,21,736,A,52.29937080347638,67.23994157027056,2.614968540173819,1.0562025323248445,B,748,Incorrect
1,relearn,21,737,B,59.29493255671629,37.445109266976786,2.9647466278358143,0.5881864009300067,B,745,Correct
1,relearn,21,738,B,58.94955338393947,34.45990952866955,2.947477669196973,0.5412949930931858,B,680,Correct
1,relearn,21,739,B,63.74947791935249,53.811773407484715,3.1874738959676243,0.8452733600679628,B,739,Correct
1,relearn,21,740,A,18.785555138258317,48.57392498940117,0.9392777569129158,0.7629974295136219,A,600,Correct
1,relearn,21,741,A,32.39898659416434,58.2352648559248,1.619949329708217,0.914757401256146,A,678,Correct
1,relearn,21,742,A,25.39979249621571,39.51114541490132,1.2699896248107856,0.6206396208518601,A,574,Correct
1,relearn,21,743,B,83.20906401485973,58.201694288815666,4.160453200742987,0.9142300760211116,B,715,Correct
1,relearn,21,744,B,66.72277231132709,51.94963105621356,3.336138615566355,0.8160228964145034,B,711,Correct
1,relearn,21,745,A,58.37519596252517,70.41003913398049,2.918759798126258,1.1059983084114149,B,607,Incorrect
1,relearn,21,746,B,57.67149415037206,48.58242536733248,2.883574707518603,0.7631309531379308,B,504,Correct
1,relearn,21,747,A,27.432765642910383,48.490495448574016,1.3716382821455193,0.7616869213508471,A,613,Correct
1,relearn,21,748,A,53.72963427651287,67.69827874119225,2.686481713825643,1.0634020757700182,A,1218,Correct
1,relearn,21,749,B,89.45101788651468,68.30660147970633,4.472550894325734,1.0729575870016554,B,957,Correct
1,relearn,21,750,A,44.82576618801745,53.299131960711904,2.2412883094008724,0.8372208070524272,B,1753,Incorrect
1,relearn,21,751,A,47.89204319736756,63.845165901197475,2.3946021598683784,1.002877520812118,B,966,Incorrect
1,relearn,21,752,A,60.72573116024499,83.07837787126542,3.03628655801225,1.3049921079626212,B,852,Incorrect
1,relearn,21,753,B,60.65003503266763,52.742030798199174,3.0325017516333816,0.8284698824551456,B,660,Correct
1,relearn,21,754,A,46.83840459831313,74.89309797256449,2.3419202299156567,1.1764180319759463,A,926,Correct
1,relearn,21,755,A,38.12549501398968,58.23006844845792,1.906274750699484,0.914675776278531,A,942,Correct
1,relearn,21,756,B,46.36948399834436,26.90418963322117,2.3184741999172176,0.4226100225125714,B,789,Correct
1,relearn,21,757,B,70.79622832524406,50.42370820183339,3.5398114162622027,0.792053756268176,B,1171,Correct
1,relearn,21,758,A,62.4460488834189,82.83561991783601,3.122302444170945,1.3011788749471498,B,736,Incorrect
1,relearn,21,759,B,45.8678868141098,25.35780053514908,2.29339434070549,0.3983193993620984,B,1403,Correct
1,relearn,21,760,B,53.529244495576094,32.38400609013095,2.676462224778805,0.5086867781328126,B,837,Correct
1,relearn,21,761,A,47.62040784531253,65.67355330115471,2.381020392265626,1.0315977629302266,A,771,Correct
1,relearn,21,762,A,23.30558948722132,39.14517351067831,1.165279474361066,0.6148909476232238,A,624,Correct
1,relearn,21,763,B,49.77286416133542,30.746916631519156,2.4886432080667706,0.4829714370505921,B,768,Correct
1,relearn,21,764,A,67.65638641939432,83.84308326188729,3.382819320969716,1.3170040721493121,A,901,Correct
1,relearn,21,765,A,52.821317680969855,77.3138067926728,2.641065884048493,1.2144424372046079,A,951,Correct
1,relearn,21,766,A,20.079492320620904,40.51156856831575,1.0039746160310452,0.6363542309980996,A,603,Correct
1,relearn,21,767,B,44.521833202545125,34.79643942782366,2.2260916601272562,0.5465811923876652,B,934,Correct
1,relearn,21,768,B,55.22602902358868,22.81546765089538,2.7613014511794343,0.3583845278013425,B,774,Correct
1,relearn,21,769,B,49.828272143275804,26.528702544269734,2.49141360716379,0.4167118851117333,B,847,Correct
1,relearn,21,770,A,57.48026474962778,66.38882434292853,2.874013237481389,1.0428332141810375,B,1611,Incorrect
1,relearn,21,771,A,30.11575441621457,61.454332076560995,1.5057877208107286,0.965322390914958,A,819,Correct
1,relearn,21,772,B,52.64731828869212,26.922181715018688,2.6323659144346063,0.42289264147256084,A,1436,Incorrect
1,relearn,21,773,A,46.39753501070903,63.661869207072726,2.3198767505354514,0.9999983030736698,A,1052,Correct
1,relearn,21,774,A,20.795304614612903,45.229147189379,1.039765230730645,0.7104577826914226,A,644,Correct
1,relearn,21,775,A,47.17123138487393,73.46617306155298,2.358561569243696,1.154003947887656,B,603,Incorrect
1,relearn,21,776,B,52.97518360886768,22.409735823192115,2.648759180443384,0.35201130715514184,B,625,Correct
1,relearn,21,777,A,44.52109730240102,54.5477107086352,2.2260548651200507,0.8568334361619481,A,1628,Correct
1,relearn,21,778,A,21.344947182494757,48.58668393461204,1.067247359124738,0.7631978465563319,A,765,Correct
1,relearn,21,779,A,21.853312840582333,51.71763350844317,1.0926656420291168,0.8123786874558719,B,2956,Incorrect
1,relearn,21,780,A,44.90632749329597,56.05193371766189,2.2453163746647986,0.880461715934543,A,1382,Correct
1,relearn,21,781,A,15.047605503358785,35.9246421130169,0.7523802751679391,0.5643029587254821,A,550,Correct
1,relearn,21,782,A,57.29429387999427,76.82352172268287,2.8647146939997135,1.2067410573343818,B,564,Incorrect
1,relearn,21,783,A,62.843535180077915,74.04908937226584,3.142176759003896,1.1631603758846216,A,438,Correct
1,relearn,21,784,B,41.873373822988654,29.97197231289978,2.0936686911494324,0.4707986401590131,B,425,Correct
1,relearn,21,785,B,50.44617558676641,39.35201454690761,2.5223087793383203,0.6181399990226181,B,614,Correct
1,relearn,21,786,A,36.68711544710463,46.035047622385896,1.8343557723552317,0.7231168370907191,B,532,Incorrect
1,relearn,21,787,A,51.21069793982752,68.55294595511891,2.560534896991376,1.0768271569726986,B,485,Incorrect
1,relearn,21,788,A,39.74153357755981,51.68526117296208,1.9870766788779903,0.8118701839992372,A,601,Correct
1,relearn,21,789,B,77.11534810748222,55.73686528093468,3.855767405374111,0.8755126325035419,B,616,Correct
1,relearn,21,790,B,79.81657657111708,60.942303844689725,3.990828828555854,0.9572794702565711,B,511,Correct
1,relearn,21,791,B,39.93896357767996,26.50176067633933,1.9969481788839978,0.4162886832399126,A,536,Incorrect
1,relearn,21,792,A,38.04465151590703,52.43131687562867,1.9022325757953513,0.8235891995725678,A,900,Correct
1,relearn,21,793,A,40.98629349134865,73.52879855135991,2.0493146745674324,1.1549876667811807,A,1281,Correct
1,relearn,21,794,B,52.80505225955968,22.634836351939054,2.640252612977984,0.3555471779922946,B,724,Correct
1,relearn,21,795,A,61.56307838386181,86.81079637164038,3.0781539191930904,1.3636208006671247,A,678,Correct
1,relearn,21,796,B,63.791495546554486,39.16680822768787,3.1895747773277243,0.6152307849633224,B,984,Correct
1,relearn,21,797,A,51.4511369722214,62.01244058461735,2.57255684861107,0.9740891388590371,A,717,Correct
1,relearn,21,798,B,39.619780658785004,26.628215051843252,1.98098903293925,0.4182750239253996,B,529,Correct
1,relearn,21,799,A,58.425891651520786,77.50752806719241,2.921294582576039,1.2174854038689817,A,1017,Correct
1,relearn,21,800,A,22.06500182681402,37.36066897637688,1.1032500913407008,0.5868600159469284,A,674,Correct
1,relearn,21,801,B,66.3916735599823,49.4226705250075,3.3195836779991144,0.7763294932107618,B,657,Correct
1,relearn,21,802,B,67.94663001463742,40.6557826441101,3.3973315007318714,0.6386195404033985,B,740,Correct
1,relearn,21,803,A,28.23695082642795,37.457235997175005,1.4118475413213973,0.5883768871625208,A,585,Correct
1,relearn,21,804,B,66.43362254347281,35.50058200813855,3.32168112717364,0.5576418381746502,B,862,Correct
1,relearn,21,805,B,68.81604830810474,57.57292250806741,3.4408024154052375,0.904353351985195,B,636,Correct
1,relearn,21,806,A,36.77012450120967,54.71969119231605,1.8385062250604836,0.8595348992824109,A,1316,Correct
1,relearn,21,807,B,76.56379517595354,49.5849964553589,3.828189758797677,0.7788793029621572,B,734,Correct
1,relearn,21,808,A,44.66091341557028,53.64054249218939,2.2330456707785142,0.8425836711401666,B,989,Incorrect
1,relearn,21,809,B,64.53369732433063,39.29339307962434,3.226684866216532,0.6172191751678191,B,800,Correct
1,relearn,21,810,A,64.69023311383393,88.28960123519761,3.2345116556916964,1.3868498131443456,A,829,Correct
1,relearn,21,811,B,57.338608205792596,39.17961870721941,2.86693041028963,0.6154320115052486,B,667,Correct
1,relearn,21,812,A,15.030784469218343,38.14078524235701,0.7515392234609172,0.5991140535976739,A,617,Correct
1,relearn,21,813,A,20.085203929312456,49.546961305461664,1.0042601964656228,0.7782818482246807,A,462,Correct
1,relearn,21,814,B,67.62323808126584,54.052298487829034,3.3811619040632923,0.8490515191950317,B,611,Correct
1,relearn,21,815,B,69.26050146287005,38.40350975034884,3.4630250731435024,0.6032409205187994,B,698,Correct
1,relearn,21,816,A,22.006444308258565,41.17521148232034,1.1003222154129282,0.6467787095143184,A,681,Correct
1,relearn,21,817,A,26.522142638193515,40.787859344942575,1.3261071319096758,0.6406941963686269,A,421,Correct
1,relearn,21,818,A,45.953622609965194,56.73827620922454,2.2976811304982596,0.8912427585812417,A,1123,Correct
1,relearn,21,819,A,49.68219092975376,68.7583710815332,2.4841095464876877,1.0800539673127278,A,817,Correct
1,relearn,21,820,A,56.62900512340194,83.81066227050783,2.831450256170097,1.3164948044076132,A,755,Correct
1,relearn,21,821,B,78.99586189759276,62.38935207385934,3.949793094879638,0.980009650687318,A,2252,Incorrect
1,relearn,21,822,B,89.25706061054615,64.96351881789128,4.462853030527308,1.0204445673481477,B,1577,Correct
1,relearn,21,823,B,64.79056016775888,56.21912257789545,3.239528008387944,0.8830879124099021,B,970,Correct
1,relearn,21,824,B,80.56490069418436,57.690593511880294,4.028245034709218,0.9062017237907904,B,676,Correct
1,relearn,21,825,B,39.774523107959475,30.595131702516568,1.9887261553979738,0.48058720496119123,A,579,Incorrect
1,relearn,21,826,A,61.375388514474054,81.78077816909736,3.0687694257237026,1.284609459504464,A,1336,Correct
1,relearn,21,827,B,82.82678439471607,60.815991309532045,4.141339219735803,0.9552953575940328,B,724,Correct
1,relearn,21,828,B,41.0941431710407,13.529360534901716,2.0547071585520347,0.21251869832107456,A,642,Incorrect
1,relearn,21,829,A,14.10469036210717,40.88822321917809,0.7052345181053584,0.6422707084185474,A,494,Correct
1,relearn,21,830,B,51.061440859736926,25.668254381307506,2.5530720429868463,0.4031959969739484,B,533,Correct
1,relearn,21,831,A,18.832521353141363,32.09683289117915,0.9416260676570681,0.5041758720721382,A,558,Correct
1,relearn,21,832,B,59.20339566780091,35.94587521991274,2.9601697833900453,0.5646364875886664,B,897,Correct
1,relearn,21,833,B,38.06953204544717,27.828213975846168,1.9034766022723586,0.4371245629452157,B,633,Correct
1,relearn,21,834,B,78.89698727077148,62.603102523798064,3.944849363538574,0.9833672349034632,A,619,Incorrect
1,relearn,21,835,B,71.4925007867193,53.028134655021674,3.574625039335965,0.8329639913289321,B,815,Correct
1,relearn,21,836,A,69.64706702469017,84.75735413853977,3.4823533512345084,1.331365405496725,A,595,Correct
1,relearn,21,837,A,11.498619205468962,35.76437578463188,0.5749309602734481,0.5617855011261211,A,609,Correct
1,relearn,21,838,B,74.21065119222527,55.50904742407214,3.7105325596112637,0.8719340779761625,B,1099,Correct
1,relearn,21,839,A,29.66330741896936,46.63460842317504,1.483165370948468,0.732534716126417,B,796,Incorrect
1,relearn,21,840,A,52.486408436279405,78.14506783781476,2.6243204218139704,1.2274998551677743,B,726,Incorrect
1,relearn,21,841,B,45.80722561715982,25.31321133371968,2.290361280857991,0.39761899382389815,B,848,Correct
1,relearn,21,842,B,60.385682242600566,35.647415035819115,3.0192841121300287,0.5599482859799783,B,870,Correct
1,relearn,21,843,B,80.56017058437823,66.68798326318299,4.028008529218911,1.0475323915116737,A,1028,Incorrect
1,relearn,21,844,A,38.4401130429049,63.03218205511926,1.9220056521452449,0.9901072004204852,B,1036,Incorrect
1,relearn,21,845,B,64.60917945575991,41.581308194297804,3.2304589727879955,0.6531576617492953,B,1109,Correct
1,relearn,21,846,A,47.88967866751925,58.5884855988959,2.3944839333759624,0.9203057797122138,A,1225,Correct
1,relearn,21,847,A,31.311352147539193,51.0628978693629,1.5655676073769595,0.802094124086982,A,771,Correct
1,relearn,21,848,B,49.88050717852646,29.12368678807072,2.4940253589263226,0.4574738022942655,B,653,Correct
1,relearn,21,849,A,11.602956181854047,34.487278550756706,0.5801478090927024,0.5417249046868106,A,613,Correct
1,relearn,21,850,B,54.003396318178275,21.926948195824476,2.7001698159089136,0.34442769683823077,B,583,Correct
1,relearn,21,851,A,25.727196079911067,55.19006150456419,1.2863598039955533,0.8669234588695387,A,1012,Correct
1,relearn,21,852,A,21.721214381597505,52.884440975731806,1.0860607190798752,0.8307068562928103,A,583,Correct
1,relearn,21,853,A,42.35946431443522,62.38055860744452,2.117973215721761,0.9798715232398761,B,859,Incorrect
1,relearn,21,854,B,67.26689316759723,47.96998584609497,3.3633446583798614,0.7535107756344915,B,800,Correct
1,relearn,21,855,B,41.88182739957472,15.824875170582498,2.094091369978736,0.24857655789938748,B,759,Correct
1,relearn,21,856,A,46.80642939539306,62.95134698255726,2.340321469769653,0.9888374460699195,A,1396,Correct
1,relearn,21,857,A,41.222456009335005,64.01798605126405,2.0611228004667503,1.005592173381325,A,1193,Correct
1,relearn,21,858,A,42.650283498755606,56.2039469573779,2.1325141749377803,0.8828495343202442,A,923,Correct
1,relearn,21,859,B,58.32808870675878,32.942506933275666,2.9164044353379386,0.5174596888620483,B,684,Correct
1,relearn,21,860,A,17.98612511609798,47.46755731424537,0.899306255804899,0.7456186467114285,A,502,Correct
1,relearn,21,861,A,32.24912213952867,55.673608659231384,1.6124561069764338,0.8745189998133722,B,903,Incorrect
1,relearn,21,862,A,45.3710600667481,52.06526433462157,2.268553003337405,0.8178392597042888,B,620,Incorrect
1,relearn,21,863,B,86.3654657205261,67.2086197628231,4.318273286026305,1.0557105305239742,B,563,Correct
1,relearn,21,864,B,36.41916964560525,21.540113193813152,1.8209584822802625,0.3383513068358799,B,837,Correct
1,relearn,21,865,B,34.57599440852356,16.986740777404705,1.7287997204261782,0.26682710017364397,B,631,Correct
1,relearn,21,866,A,31.23913268098584,61.7554339503184,1.561956634049292,0.9700520880878498,B,1044,Incorrect
1,relearn,21,867,B,43.03816916291463,18.115426729832357,2.1519084581457317,0.28455645765542753,B,680,Correct
1,relearn,21,868,B,78.32397318491331,66.0213717514905,3.9161986592456657,1.0370612823720164,B,676,Correct
1,relearn,21,869,B,31.882848491269677,11.637267005076964,1.5941424245634837,0.18279776265506342,B,777,Correct
1,relearn,21,870,B,83.72775657897151,64.01209038675108,4.186387828948575,1.0054995644997151,B,652,Correct
1,relearn,21,871,A,53.8420326945237,71.38681069636307,2.692101634726185,1.1213414002344975,A,911,Correct
1,relearn,21,872,B,37.26773423125438,12.83792106457453,1.8633867115627192,0.201657592519165,B,788,Correct
1,relearn,21,873,B,87.29644604154574,60.6884751002208,4.364822302077287,0.9532923376621038,B,569,Correct
1,relearn,21,874,A,37.25834329681907,45.87520631571941,1.8629171648409537,0.7206060557169011,A,1528,Correct
1,relearn,21,875,B,57.275480180785756,41.74279844293538,2.863774009039288,0.6556943446430262,B,761,Correct
1,relearn,21,876,B,38.914573842545096,15.330427596967827,1.945728692127255,0.24080979357512178,B,733,Correct
1,relearn,21,877,A,33.02898090688231,61.06272478989614,1.6514490453441155,0.9591710380405654,A,811,Correct
1,relearn,21,878,A,46.067867436622095,71.50110145641641,2.303393371831105,1.1231366752952814,A,901,Correct
1,relearn,21,879,A,30.295986140956515,58.110068001561615,1.5147993070478258,0.9127908136665465,A,521,Correct
1,relearn,21,880,A,14.402685136290668,39.94004406769501,0.7201342568145335,0.6273767451356163,A,636,Correct
1,relearn,21,881,A,51.310151109388336,81.6755889222627,2.565507555469417,1.282957150679002,A,702,Correct
1,relearn,21,882,A,46.45516105964448,67.94108486279853,2.322758052982224,1.067216065409443,A,590,Correct
1,relearn,21,883,B,39.615509373905375,17.407920405033387,1.9807754686952688,0.2734429742936437,B,529,Correct
1,relearn,21,884,B,56.80091769124206,39.13104300526794,2.840045884562103,0.6146689861632801,B,725,Correct
1,relearn,21,885,A,67.92114305826554,81.88940144928812,3.3960571529132775,1.2863157099997444,B,522,Incorrect
1,relearn,21,886,B,73.87907268194112,61.53884709085851,3.6939536340970562,0.9666499496551335,B,1048,Correct
1,relearn,21,887,A,50.81479860090316,67.26970427999755,2.5407399300451576,1.0566700438759908,A,814,Correct
1,relearn,21,888,B,65.99641877510211,46.44380008235777,3.299820938755106,0.729537505717641,B,547,Correct
1,relearn,21,889,B,76.95350369467843,54.21509076499085,3.8476751847339217,0.8516086543049953,B,512,Correct
1,relearn,21,890,B,53.09746255274134,29.84916291356263,2.654873127637067,0.4688695546252663,B,697,Correct
1,relearn,21,891,B,74.53005741713741,59.0429335871272,3.7265028708568706,0.9274442320185443,B,539,Correct
1,relearn,21,892,A,29.25918636196873,60.97902142264858,1.4629593180984364,0.957856228622437,A,611,Correct
1,relearn,21,893,B,43.19177753683323,34.60769251520167,2.1595888768416613,0.5436163628172601,A,578,Incorrect
1,relearn,21,894,B,63.069576458880434,52.70758643401852,3.1534788229440216,0.8279288316478082,B,1105,Correct
1,relearn,21,895,A,55.135114886051895,84.02257348076768,2.7567557443025947,1.3198234979144414,A,894,Correct
1,relearn,21,896,A,16.450280176436966,32.50517061039538,0.8225140088218482,0.5105900259665049,A,562,Correct
1,relearn,21,897,B,41.31987116986614,24.039137992479247,2.065993558493307,0.37760589657902044,B,687,Correct
1,relearn,21,898,B,31.329679438204423,16.26057452297188,1.5664839719102213,0.2554205073225891,B,812,Correct
