experiment,condition,subject,trial,cat,x,y,xt,yt,resp,rt,fb
1,new_learn,2,0,A,37.240829856212855,51.9826490292668,1.8620414928106428,0.8165415415224059,B,17328,Incorrect
1,new_learn,2,1,A,22.136064003072683,34.01142880188142,1.106803200153634,0.5342502743104148,B,4330,Incorrect
1,new_learn,2,2,B,70.23403224838046,43.24160783794927,3.511701612419023,0.6792375875655612,A,3997,Incorrect
1,new_learn,2,3,B,75.69275682724798,63.55325917504106,3.784637841362399,0.9982922606799856,A,1206,Incorrect
1,new_learn,2,4,A,31.338486992278128,59.390530933886694,1.5669243496139063,0.932904278373479,A,799,Correct
1,new_learn,2,5,B,69.79147776050208,52.755800347697594,3.4895738880251037,0.8286861740328831,B,1127,Correct
1,new_learn,2,6,A,22.21070190535802,43.09476836379259,1.1105350952679012,0.6769310384992231,B,2056,Incorrect
1,new_learn,2,7,B,59.79506200113506,35.36600342265528,2.989753100056753,0.5555278826972265,B,1426,Correct
1,new_learn,2,8,A,43.66100920109227,73.84727039689471,2.1830504600546137,1.159990210832717,A,2438,Correct
1,new_learn,2,9,B,36.46810755622324,22.842046661602915,1.8234053778111619,0.35880202992523486,A,2423,Incorrect
1,new_learn,2,10,A,21.496856413958575,39.78024329833526,1.0748428206979286,0.6248666005203233,B,1614,Incorrect
1,new_learn,2,11,A,44.284995580307,72.63400336150129,2.2142497790153497,1.1409322568065439,A,4470,Correct
1,new_learn,2,12,B,82.08945334604365,58.78122518739576,4.104472667302183,0.9233333260886492,A,3114,Incorrect
1,new_learn,2,13,B,84.58688419822613,61.16054372486438,4.229344209911306,0.9607075742779563,B,1702,Correct
1,new_learn,2,14,A,27.586649447509174,54.343555180456065,1.3793324723754585,0.8536265686243616,B,977,Incorrect
1,new_learn,2,15,A,45.60440973100256,72.97462829107333,2.280220486550128,1.1462827806884093,A,11048,Correct
1,new_learn,2,16,B,64.89901845186677,57.15488321708372,3.2449509225933384,0.8977868061578639,B,2887,Correct
1,new_learn,2,17,B,53.44765673363799,29.076536665911597,2.6723828366818996,0.45673316990731055,B,2826,Correct
1,new_learn,2,18,A,56.920964758617515,83.43399429350737,2.8460482379308756,1.3105781176606774,B,2500,Incorrect
1,new_learn,2,19,B,56.459818979005334,31.053256433335168,2.8229909489502667,0.4877834114050287,A,4736,Incorrect
1,new_learn,2,20,A,27.03743882961434,36.602476693323226,1.3518719414807172,0.5749503594146794,A,1756,Correct
1,new_learn,2,21,B,79.87424067312703,49.06403191334512,3.9937120336563514,0.7706960110723009,B,816,Correct
1,new_learn,2,22,B,62.282600026754125,48.16254302877371,3.1141300013377067,0.7565354567869889,B,703,Correct
1,new_learn,2,23,B,37.9414599788161,12.543348843827278,1.897072998940805,0.19703046289590903,A,1450,Incorrect
1,new_learn,2,24,B,63.97873075694152,55.56200906873469,3.1989365378470764,0.8727659975451318,B,614,Correct
1,new_learn,2,25,A,41.4384320636557,61.781904803742364,2.071921603182785,0.9704678912811049,B,2228,Incorrect
1,new_learn,2,26,A,12.872331087313018,31.05421190287682,0.6436165543656509,0.48779841988549266,A,809,Correct
1,new_learn,2,27,B,82.98744807304372,68.39941364987226,4.149372403652186,1.0744154771614407,B,5514,Correct
1,new_learn,2,28,B,58.91509864146022,42.41689966308859,2.9457549320730108,0.6662831018480724,B,1614,Correct
1,new_learn,2,29,A,42.26851063684389,55.745832558011934,2.1134255318421946,0.8756534901624851,B,1716,Incorrect
1,new_learn,2,30,A,15.165416515732211,36.615184227663725,0.7582708257866105,0.5751499688973262,A,625,Correct
1,new_learn,2,31,A,30.193625230672183,56.60516782637273,1.509681261533609,0.8891518969927493,A,733,Correct
1,new_learn,2,32,B,36.7572709331194,15.016344062181368,1.83786354665597,0.2358761809476285,B,3283,Correct
1,new_learn,2,33,B,62.673685925008414,34.512880748981225,3.1336842962504203,0.5421270630761001,B,967,Correct
1,new_learn,2,34,B,36.14661086194744,24.075342920037833,1.8073305430973718,0.37817460225122945,A,2431,Incorrect
1,new_learn,2,35,B,56.82924045722724,49.572367771584176,2.841462022861362,0.7786809320613014,B,576,Correct
1,new_learn,2,36,A,48.0809815045779,77.83477929379436,2.4040490752288948,1.2226258541158366,B,1167,Incorrect
1,new_learn,2,37,A,47.41272533206749,54.80468206278049,2.3706362666033742,0.8608699327537777,B,1142,Incorrect
1,new_learn,2,38,A,19.046251004314335,37.71310136434179,0.9523125502157168,0.5923960109515168,A,595,Correct
1,new_learn,2,39,A,30.211336328970724,57.296591646480685,1.5105668164485362,0.9000127569615901,A,2126,Correct
1,new_learn,2,40,A,46.63312081293883,68.58763158481054,2.3316560406469415,1.0773719975698202,B,1882,Incorrect
1,new_learn,2,41,B,84.18615141906335,69.1385809635594,4.209307570953167,1.0860262901737068,B,684,Correct
1,new_learn,2,42,B,36.46018001710068,21.933989844458477,1.8230090008550344,0.34453830679631936,B,2050,Correct
1,new_learn,2,43,A,22.188765129412573,40.07412374962568,1.1094382564706287,0.6294828638543614,A,1070,Correct
1,new_learn,2,44,B,41.122985661987286,17.489115951273615,2.0561492830993644,0.27471839095150624,B,997,Correct
1,new_learn,2,45,B,57.606766462435374,50.59422803320841,2.8803383231217685,0.7947322755158714,A,1152,Incorrect
1,new_learn,2,46,B,42.109819514579634,17.71747821832762,2.1054909757289817,0.2783054970541762,B,2603,Correct
1,new_learn,2,47,A,47.326446521414034,58.47891532014126,2.366322326070702,0.9185846537982769,B,3248,Incorrect
1,new_learn,2,48,B,59.18925592719469,31.16047445555732,2.9594627963597344,0.48946758815975644,B,897,Correct
1,new_learn,2,49,A,28.17911611912269,54.981724416109124,1.4089558059561345,0.8636509075367349,A,972,Correct
1,new_learn,2,50,A,54.69191387180289,76.01969881251517,2.7345956935901445,1.194114636587532,A,1866,Correct
1,new_learn,2,51,A,55.7377460995826,66.98952382822947,2.78688730497913,1.0522689796312203,A,743,Correct
1,new_learn,2,52,B,78.42250020547544,57.42825739188579,3.921125010273772,0.9020809576540608,A,923,Incorrect
1,new_learn,2,53,A,31.707796188282572,57.00911252030421,1.5853898094141285,0.895497045407308,A,827,Correct
1,new_learn,2,54,B,63.858945693937564,34.9348566197357,3.1929472846968783,0.548755444553872,B,4697,Correct
1,new_learn,2,55,B,35.96828592737704,13.74539217442171,1.798414296368852,0.21591211537936938,A,2478,Incorrect
1,new_learn,2,56,A,47.32649963962609,71.76591485968204,2.366324981981305,1.1272963545066383,A,1421,Correct
1,new_learn,2,57,B,59.55679303576219,28.976922572722145,2.9778396517881096,0.45516843539052065,B,1748,Correct
1,new_learn,2,58,A,32.182800930763115,55.46145852587717,1.6091400465381556,0.8711865533113538,A,1171,Correct
1,new_learn,2,59,A,54.74203030739919,80.13679518203291,2.7371015153699596,1.2587858351305226,A,1229,Correct
1,new_learn,2,60,B,38.79264213816296,15.358771483052315,1.9396321069081481,0.24125501829660784,B,1301,Correct
1,new_learn,2,61,B,78.67444258337983,61.87430490682202,3.933722129168991,0.9719193087062347,A,1017,Incorrect
1,new_learn,2,62,A,48.516693157860175,58.008062056932516,2.4258346578930086,0.9111885080351999,A,1712,Correct
1,new_learn,2,63,B,53.48297823635988,37.40244820112199,2.6741489118179937,0.5875162824745881,A,1473,Incorrect
1,new_learn,2,64,A,38.828881551832595,64.48698156416908,1.9414440775916295,1.0129591376708702,A,814,Correct
1,new_learn,2,65,A,35.62431680290055,46.36328438729889,1.7812158401450275,0.7282727681371627,A,1350,Correct
1,new_learn,2,66,A,61.456343333238465,85.23546235950892,3.072817166661923,1.3388755118698126,A,1196,Correct
1,new_learn,2,67,A,49.01629473140192,59.163253663774356,2.4508147365700963,0.9293342153629147,B,1217,Incorrect
1,new_learn,2,68,A,61.01190567305689,82.50970602833638,3.0505952836528447,1.2960594315423752,A,808,Correct
1,new_learn,2,69,B,77.48812726247836,64.1759499487963,3.874406363123918,1.0080734644814235,B,1904,Correct
1,new_learn,2,70,A,22.61356524496696,35.79437563784947,1.130678262248348,0.5622567377185068,A,674,Correct
1,new_learn,2,71,A,22.74531840375979,49.928896381648954,1.1372659201879896,0.7842812703721718,A,718,Correct
1,new_learn,2,72,B,70.67521557334861,50.39040066084641,3.5337607786674305,0.7915305626378069,A,1134,Incorrect
1,new_learn,2,73,B,36.59944470452855,24.417611052063283,1.8299722352264274,0.3835509374968748,A,583,Incorrect
1,new_learn,2,74,A,24.169179384763133,52.97066425660406,1.2084589692381567,0.8320612484215938,A,995,Correct
1,new_learn,2,75,A,59.5199494351832,74.61914171365814,2.9759974717591597,1.1721147371240204,A,1754,Correct
1,new_learn,2,76,B,64.11433402439353,52.3932045784486,3.205716701219677,0.8229905330084061,B,1709,Correct
1,new_learn,2,77,B,51.95501958119899,31.09188602602704,2.597750979059949,0.4883902036280885,B,1324,Correct
1,new_learn,2,78,A,13.29260392531469,41.02755120718706,0.6646301962657346,0.6444592673363896,A,737,Correct
1,new_learn,2,79,B,48.96819153133457,30.752273194942262,2.4484095765667284,0.4830555777520846,A,3479,Incorrect
1,new_learn,2,80,A,20.419938734044806,33.49602474797453,1.0209969367022402,0.5261543263634934,A,577,Correct
1,new_learn,2,81,B,54.39976347130324,38.494916475243,2.719988173565162,0.6046767339958805,A,1468,Incorrect
1,new_learn,2,82,A,62.17097194074306,82.65849393288732,3.108548597037153,1.2983965864817766,A,1717,Correct
1,new_learn,2,83,B,43.411724568483436,23.09522301219381,2.1705862284241717,0.36277891474063,B,4182,Correct
1,new_learn,2,84,A,66.27405707956218,80.8018755608967,3.313702853978109,1.2692328932919485,A,2579,Correct
1,new_learn,2,85,A,65.78953798102928,80.38178466350317,3.2894768990514645,1.2626341209064913,A,822,Correct
1,new_learn,2,86,B,31.259145488168052,13.47293841101962,1.5629572744084026,0.2116324216716349,A,1418,Incorrect
1,new_learn,2,87,A,22.192126616278916,39.60849100053855,1.1096063308139457,0.6221687217353467,A,811,Correct
1,new_learn,2,88,B,35.273359636733346,12.464714751997608,1.7636679818366674,0.19579528146984007,B,1931,Correct
1,new_learn,2,89,B,48.70365990584568,32.60403555440339,2.4351829952922843,0.5121429928754705,B,2762,Correct
1,new_learn,2,90,A,21.17601363031361,52.18383427613246,1.0588006815156803,0.8197017519902248,A,1058,Correct
1,new_learn,2,91,B,47.19061957779202,38.74645663781272,2.359530978889601,0.6086279176299395,B,2260,Correct
1,new_learn,2,92,A,58.59574678730296,86.27321203261182,2.929787339365148,1.3551764456162392,A,932,Correct
1,new_learn,2,93,A,14.679034516348832,40.807271805038,0.7339517258174416,0.6409991265787464,A,797,Correct
1,new_learn,2,94,A,51.41172023963677,68.46662144987327,2.5705860119818387,1.0754711748151762,B,972,Incorrect
1,new_learn,2,95,B,53.873546770095665,41.62944071806836,2.693677338504783,0.6539137256646768,B,826,Correct
1,new_learn,2,96,A,52.09126960998522,70.49825151635615,2.6045634804992606,1.1073839452735499,A,777,Correct
1,new_learn,2,97,B,60.979764486132595,34.81227278399567,3.0489882243066297,0.5468299021648234,B,1377,Correct
1,new_learn,2,98,B,53.20111034930643,26.639297698921318,2.6600555174653215,0.41844910973861343,B,662,Correct
1,new_learn,2,99,A,56.493731062594335,68.43301727621485,2.824686553129717,1.0749433216896997,A,1239,Correct
1,new_learn,2,100,B,84.5587131169888,57.596561640503396,4.227935655849439,0.9047246746091858,B,1415,Correct
1,new_learn,2,101,A,48.59281585782079,72.47323355101696,2.4296407928910395,1.138406890528861,A,1228,Correct
1,new_learn,2,102,A,46.07174915974734,56.5226056787229,2.3035874579873674,0.8878550138101429,A,556,Correct
1,new_learn,2,103,B,71.4976453527707,39.15962827660716,3.574882267638535,0.615118002555481,B,972,Correct
1,new_learn,2,104,B,45.28157490632412,32.2881375070179,2.264078745316206,0.5071808779507224,A,740,Incorrect
1,new_learn,2,105,B,82.30469847428816,53.38889970672876,4.115234923714408,0.8386308755095067,B,786,Correct
1,new_learn,2,106,A,38.53026080971519,62.18824670235639,1.9265130404857593,0.9768506948987624,A,2101,Correct
1,new_learn,2,107,A,19.539399287223286,44.18381990512255,0.9769699643611643,0.6940378201073374,A,872,Correct
1,new_learn,2,108,A,27.47506490144699,57.903856339732556,1.3737532450723495,0.9095516484571127,A,570,Correct
1,new_learn,2,109,B,61.714740020174254,37.83519120425029,3.085737001008713,0.5943137936721894,B,867,Correct
1,new_learn,2,110,B,59.08565783132409,36.24888833001799,2.9542828915662045,0.5693962063919066,B,495,Correct
1,new_learn,2,111,A,32.491618271215515,43.761768096275844,1.6245809135607758,0.6874082457968018,A,623,Correct
1,new_learn,2,112,A,21.35851865524514,49.84010391191178,1.0679259327622568,0.7828865215190698,A,575,Correct
1,new_learn,2,113,B,57.53989572704633,50.78095296230039,2.8769947863523164,0.7976653438432587,B,1050,Correct
1,new_learn,2,114,A,61.725182396449014,76.26792362258924,3.0862591198224503,1.1980137427863689,A,1318,Correct
1,new_learn,2,115,B,53.902878841169965,43.61019802784818,2.6951439420584986,0.6850273887294196,A,1070,Incorrect
1,new_learn,2,116,B,59.51443349027533,46.419764132213025,2.9757216745137662,0.7291599498956571,A,810,Incorrect
1,new_learn,2,117,A,34.28565385576695,67.33601863349041,1.7142826927883477,1.0577117073047946,A,755,Correct
1,new_learn,2,118,A,51.83382948891929,68.37289905956132,2.5916914744459643,1.0739989869507716,B,613,Incorrect
1,new_learn,2,119,A,39.49095589552126,72.14169913999038,1.974547794776063,1.1331991601783942,A,1017,Correct
1,new_learn,2,120,B,44.850678813268665,26.781806441357233,2.2425339406634333,0.4206876318301584,B,1091,Correct
1,new_learn,2,121,B,53.55171961350507,31.773360705137037,2.677585980675253,0.49909478285558556,B,933,Correct
1,new_learn,2,122,A,39.016225244322875,46.31486044756363,1.9508112622161438,0.7275121266705118,A,718,Correct
1,new_learn,2,123,B,77.19492879401754,45.341158197064274,3.859746439700877,0.7122172474857488,B,1060,Correct
1,new_learn,2,124,B,56.2543390659674,38.413724846431336,2.8127169532983705,0.603401378872842,B,684,Correct
1,new_learn,2,125,A,43.75478325977159,54.52124950649177,2.1877391629885796,0.8564177845706534,A,770,Correct
1,new_learn,2,126,A,61.76192670538155,71.41390571361015,3.0880963352690776,1.121767007770159,B,737,Incorrect
1,new_learn,2,127,B,56.03106969100379,31.47844706803638,2.8015534845501895,0.4944622902767912,A,1167,Incorrect
1,new_learn,2,128,A,27.011445269822467,57.635429366675865,1.3505722634911235,0.9053352074242116,A,658,Correct
1,new_learn,2,129,B,32.92904676465644,18.747978772253127,1.6464523382328222,0.29449256190283907,A,585,Incorrect
1,new_learn,2,130,B,53.134465606829984,33.12823228138643,2.6567232803414993,0.5203770558080992,A,1993,Incorrect
1,new_learn,2,131,B,61.953269754736596,40.78357636153294,3.09766348773683,0.6406269194225511,B,659,Correct
1,new_learn,2,132,B,37.50438565957552,18.327711703506193,1.875219282978776,0.2878910222242336,B,863,Correct
1,new_learn,2,133,B,44.425865689739,35.070198841589324,2.2212932844869497,0.5508813952033514,B,1177,Correct
1,new_learn,2,134,B,44.31360017683299,33.04924970128345,2.21568000884165,0.5191364003410338,B,740,Correct
1,new_learn,2,135,B,58.13774765039298,36.8808725601694,2.9068873825196486,0.579323391465048,B,785,Correct
1,new_learn,2,136,B,49.20007435093409,21.29241868292052,2.460003717546704,0.33446053055710584,B,1090,Correct
1,new_learn,2,137,B,54.12548959751135,33.451317814623955,2.706274479875567,0.5254520714966,B,900,Correct
1,new_learn,2,138,B,41.29086276140329,31.47246204305678,2.064543138070164,0.494368277724254,B,556,Correct
1,new_learn,2,139,A,49.86134200843698,76.16291226240074,2.4930671004218485,1.1963642281978106,A,1022,Correct
1,new_learn,2,140,A,53.3174066128488,72.83489307507905,2.66587033064244,1.1440878250483322,A,464,Correct
1,new_learn,2,141,A,64.46982156521885,77.89939630320588,3.2234910782609427,1.2236408557261573,A,707,Correct
1,new_learn,2,142,A,61.43324262851648,77.89652178394235,3.0716621314258243,1.2235957028831528,A,433,Correct
1,new_learn,2,143,B,48.134636386037,22.390992006466764,2.40673181930185,0.3517168799705188,B,860,Correct
1,new_learn,2,144,B,43.79025364718515,32.313234324346894,2.1895126823592577,0.5075750978354687,B,1147,Correct
1,new_learn,2,145,A,47.46286602878859,77.0827709549315,2.3731433014394296,1.2108133347517875,A,893,Correct
1,new_learn,2,146,A,43.33282042225412,67.10728376039702,2.166641021112706,1.0541187483201446,A,1043,Correct
1,new_learn,2,147,A,30.735390084833845,63.78770994982901,1.5367695042416925,1.0019750048384968,A,765,Correct
1,new_learn,2,148,A,27.51240557303756,44.647826935453445,1.375620278651878,0.7013264254958451,A,747,Correct
1,new_learn,2,149,B,60.01109916859808,43.79076849008007,3.000554958429904,0.6878637829174347,A,1251,Incorrect
1,new_learn,2,150,B,68.2505395623494,55.657134031697964,3.41252697811747,0.874260216969224,B,633,Correct
1,new_learn,2,151,A,60.27669548182662,81.79169456114737,3.0138347740913307,1.284780933789804,A,851,Correct
1,new_learn,2,152,A,34.856505462010695,48.54152844109504,1.7428252731005347,0.7624885457228209,A,696,Correct
1,new_learn,2,153,B,68.13003420128467,38.44601645983486,3.4065017100642336,0.6039086143500474,B,919,Correct
1,new_learn,2,154,B,64.68871260549572,35.39235134912775,3.234435630274786,0.5559417549584427,B,594,Correct
1,new_learn,2,155,A,17.161958305150304,42.19750717279466,0.8580979152575152,0.6628368926692715,A,530,Correct
1,new_learn,2,156,A,27.81272916923129,59.873219083591316,1.3906364584615645,0.9404863260989135,A,386,Correct
1,new_learn,2,157,B,55.89455133739173,41.31286904143894,2.7947275668695863,0.6489410293965089,A,918,Incorrect
1,new_learn,2,158,B,65.85043113519666,46.53815885283504,3.292521556759833,0.7310196898183068,B,724,Correct
1,new_learn,2,159,A,53.08348584901107,64.85332606101305,2.654174292450554,1.0187136635707104,B,487,Incorrect
1,new_learn,2,160,B,48.34915990135153,28.91467755536405,2.4174579950675765,0.45419069294424697,A,800,Incorrect
1,new_learn,2,161,A,19.096296581709197,34.01408695168961,0.9548148290854599,0.5342920284299626,A,570,Correct
1,new_learn,2,162,A,32.15026356122678,60.99010445931438,1.607513178061339,0.9580303205552808,A,784,Correct
1,new_learn,2,163,A,15.499367758344874,35.773075046925484,0.7749683879172438,0.5619221488186872,A,542,Correct
1,new_learn,2,164,A,24.298014776489982,37.188858540660334,1.214900738824499,0.5841612239336428,A,560,Correct
1,new_learn,2,165,A,54.435010348503056,62.802388383332264,2.7217505174251526,0.986497609864848,B,2408,Incorrect
1,new_learn,2,166,B,44.82606170753321,31.913628146230806,2.2413030853766607,0.5012980986679757,B,1651,Correct
1,new_learn,2,167,B,63.0237684577947,30.66904911716524,3.151188422889735,0.48174829699535426,B,757,Correct
1,new_learn,2,168,A,47.15276353259207,68.51348682850846,2.3576381766296035,1.0762073344613163,A,1230,Correct
1,new_learn,2,169,A,26.225769867308934,57.88536163243369,1.3112884933654467,0.909261134274211,A,713,Correct
1,new_learn,2,170,A,55.14182861295502,81.32391033311845,2.757091430647751,1.2774329963186,A,802,Correct
1,new_learn,2,171,B,64.56559246386799,33.0602195219401,3.2282796231933992,0.5193087138809644,B,1130,Correct
1,new_learn,2,172,B,81.9674741190198,63.01516082313138,4.09837370595099,0.9898398315336444,A,2211,Incorrect
1,new_learn,2,173,A,54.96213318680384,76.2823640132967,2.748106659340192,1.1982405719131766,A,1147,Correct
1,new_learn,2,174,A,43.43401433043093,68.99433388049249,2.1717007165215465,1.0837604622913828,A,518,Correct
1,new_learn,2,175,A,14.321187213120751,30.383890836995796,0.7160593606560376,0.47726904120490105,A,549,Correct
1,new_learn,2,176,A,54.195317122861944,65.815053470138,2.7097658561430973,1.033820442387025,A,690,Correct
1,new_learn,2,177,A,36.39211543144039,53.08609829283965,1.8196057715720195,0.8338744820226535,A,586,Correct
1,new_learn,2,178,B,55.54148275615616,36.676966885278844,2.7770741378078077,0.5761204486137407,A,1098,Incorrect
1,new_learn,2,179,B,33.4554077272784,10.024354225297788,1.6727703863639198,0.15746218795588668,A,598,Incorrect
1,new_learn,2,180,A,55.83495867082632,73.93941112733103,2.791747933541316,1.1614375540418926,A,753,Correct
1,new_learn,2,181,A,66.44474458810028,82.45135891221202,3.3222372294050135,1.2951429171855027,A,800,Correct
1,new_learn,2,182,A,58.121226343091365,75.21251626950811,2.9060613171545686,1.1814354428514475,A,492,Correct
1,new_learn,2,183,B,68.15154196136669,40.49934627692974,3.407577098068334,0.636162243693958,B,783,Correct
1,new_learn,2,184,A,34.662563134431494,59.76160802862467,1.7331281567215746,0.9387331437472003,A,1414,Correct
1,new_learn,2,185,A,30.435772398083074,59.06883863192372,1.521788619904154,0.9278511475106626,A,687,Correct
1,new_learn,2,186,B,85.13078803520324,56.57512780178929,4.256539401760162,0.8886800293900247,B,841,Correct
1,new_learn,2,187,B,47.50494428864585,25.634216723688446,2.3752472144322927,0.4026613346983412,B,855,Correct
1,new_learn,2,188,B,37.70218843936648,24.568883791656255,1.885109421968324,0.38592712413384317,B,506,Correct
1,new_learn,2,189,A,20.501112715920716,41.56148734295198,1.0250556357960356,0.6528463165444154,A,821,Correct
1,new_learn,2,190,B,80.44269602501649,63.98638800170805,4.022134801250825,1.0050958323795605,B,992,Correct
1,new_learn,2,191,A,38.389721008618224,46.10863770375032,1.919486050430911,0.7242727873856767,107,1472,Incorrect
1,new_learn,2,192,B,56.39569781197661,36.32862559754103,2.8197848905988305,0.5706487164612449,B,641,Correct
1,new_learn,2,193,A,21.749692513308588,39.30741968579491,1.0874846256654294,0.6174395045823206,A,532,Correct
1,new_learn,2,194,B,83.46636466085818,64.55863788725361,4.173318233042909,1.014084712561798,B,604,Correct
1,new_learn,2,195,B,60.976784175942754,46.30553067598763,3.0488392087971374,0.7273655749612978,B,593,Correct
1,new_learn,2,196,B,49.41089517134144,20.36454675407233,2.470544758567072,0.31988555238139743,A,1246,Incorrect
1,new_learn,2,197,B,35.822824550625164,21.655235857758377,1.7911412275312584,0.3401596494124399,A,742,Incorrect
1,new_learn,2,198,A,41.25850909393951,61.265572589632384,2.062925454696975,0.9623573638278065,A,1243,Correct
1,new_learn,2,199,A,43.54239324071531,54.378535746156324,2.1771196620357656,0.8541760420654734,A,995,Correct
1,new_learn,2,200,B,59.3774685896123,37.59125977847662,2.968873429480615,0.5904821277962381,B,1298,Correct
1,new_learn,2,201,A,39.04378357459357,64.67404701904367,1.9521891787296783,1.0158975549647422,A,1458,Correct
1,new_learn,2,202,B,59.57758704373586,52.21596158193184,2.978879352186793,0.8202064065296197,B,963,Correct
1,new_learn,2,203,B,64.46079407516906,33.71852320928581,3.2230397037584533,0.5296493240209462,B,1377,Correct
1,new_learn,2,204,A,28.262760011534375,53.09376051384067,1.4131380005767187,0.8339948399086884,A,856,Correct
1,new_learn,2,205,A,32.575838285517804,51.36733557234213,1.6287919142758904,0.8068762203427583,A,552,Correct
1,new_learn,2,206,B,42.320007965295645,19.354275769316512,2.116000398264782,0.3040162528621785,B,1360,Correct
1,new_learn,2,207,B,45.67970334358631,23.360032520146643,2.2839851671793157,0.36693853276455674,B,1585,Correct
1,new_learn,2,208,A,46.108222952879345,72.41262634296902,2.305411147643967,1.137454874731071,A,861,Correct
1,new_learn,2,209,A,47.37661634358967,57.5749936072962,2.368830817179483,0.9043858847358053,B,1841,Incorrect
1,new_learn,2,210,B,88.02993459947744,66.66337432356032,4.401496729973872,1.0471458351920178,B,639,Correct
1,new_learn,2,211,B,30.56213689246985,14.769161290665238,1.5281068446234927,0.23199344305218328,A,616,Incorrect
1,new_learn,2,212,A,41.859118312195214,72.83362949075342,2.092955915609761,1.1440679767121593,A,1059,Correct
1,new_learn,2,213,A,51.52196716237839,59.75444208718366,2.576098358118919,0.9386205814022647,B,1906,Incorrect
1,new_learn,2,214,B,33.606665693973504,15.41537486395795,1.6803332846986752,0.24214414212471527,A,2260,Incorrect
1,new_learn,2,215,A,10.518218372595665,35.40491980466042,0.5259109186297833,0.5561391797962847,A,621,Correct
1,new_learn,2,216,B,42.16666582868518,20.303778907550825,2.108333291434259,0.3189310132803653,B,3396,Correct
1,new_learn,2,217,B,75.8126943488624,45.132672115686574,3.79063471744312,0.7089423557775894,B,1771,Correct
1,new_learn,2,218,B,66.43187750260748,43.94422339923551,3.3215938751303735,0.6902742469937349,B,571,Correct
1,new_learn,2,219,A,39.14983310543068,49.66649916561074,1.957491655271534,0.7801595445410314,B,846,Incorrect
1,new_learn,2,220,B,42.65277833580626,26.745124848195527,2.132638916790313,0.4201114387121645,A,1212,Incorrect
1,new_learn,2,221,B,60.770310432155824,42.94585134720814,3.0385155216077915,0.6745918554727421,B,609,Correct
1,new_learn,2,222,B,64.46230585817565,52.52284226335816,3.223115292908783,0.8250268770011074,B,640,Correct
1,new_learn,2,223,B,78.96805110701622,59.93230597953803,3.948402555350811,0.9414144608900615,B,517,Correct
1,new_learn,2,224,A,57.238537049773264,84.57572493695517,2.861926852488663,1.328512380669847,B,1605,Incorrect
1,new_learn,2,225,B,47.68554954730186,26.785050225463323,2.384277477365093,0.420738585071746,B,2663,Correct
1,new_learn,2,226,A,62.16534003279669,75.27237468339541,3.1082670016398346,1.182375696618067,B,1145,Incorrect
1,new_learn,2,227,A,46.21438739981299,64.84340966952163,2.31071936999065,1.0185578972574127,B,707,Incorrect
1,new_learn,2,228,A,52.90035203545277,79.246426016158,2.6450176017726386,1.244799948978045,A,669,Correct
1,new_learn,2,229,A,37.888138551016525,64.32599807341714,1.8944069275508264,1.0104304149113925,A,496,Correct
1,new_learn,2,230,B,60.54344061159185,53.39598489987438,3.0271720305795924,0.8387421694631843,B,1282,Correct
1,new_learn,2,231,A,38.164012151893274,64.73819625880186,1.9082006075946638,1.0169052088665307,A,579,Correct
1,new_learn,2,232,B,59.75330628502236,47.94140751280431,2.987665314251118,0.7530618682249027,B,1525,Correct
1,new_learn,2,233,A,19.962483055518373,49.058150405226726,0.9981241527759187,0.770603624558817,A,655,Correct
1,new_learn,2,234,B,76.40144680654886,50.94363800287232,3.820072340327443,0.8002207944848073,B,1407,Correct
1,new_learn,2,235,B,60.90475119332619,53.30293718695679,3.04523755966631,0.8372805794065082,B,648,Correct
1,new_learn,2,236,A,18.801447817573372,31.96054919671109,0.9400723908786687,0.5020351328054136,A,1191,Correct
1,new_learn,2,237,A,67.9749241899392,83.08773556257253,3.3987462094969603,1.3051390982339464,A,1677,Correct
1,new_learn,2,238,B,64.883838635009,57.103629207580624,3.24419193175045,0.8969817100592542,A,1211,Incorrect
1,new_learn,2,239,B,34.34874672760709,12.794923194975851,1.7174373363803546,0.2009821835629089,B,1355,Correct
1,new_learn,2,240,B,35.522330645998366,13.622268015196521,1.7761165322999182,0.213978085608863,B,503,Correct
1,new_learn,2,241,B,48.05437822010053,24.904406103738157,2.4027189110050267,0.391197496287603,A,2078,Incorrect
1,new_learn,2,242,B,40.73315991734591,26.813228053082646,2.0366579958672957,0.42118120135296094,A,5653,Incorrect
1,new_learn,2,243,A,57.38773627046035,75.01584766656323,2.8693868135230174,1.1783461796604304,A,923,Correct
1,new_learn,2,244,A,47.06781847317048,55.41183819993961,2.3533909236585244,0.8704071190541827,A,545,Correct
1,new_learn,2,245,A,64.62243083762675,77.59445224550123,3.231121541881338,1.2188508056689535,A,684,Correct
1,new_learn,2,246,B,48.65766952711835,35.23510774043956,2.4328834763559173,0.5534717781290489,A,2048,Incorrect
1,new_learn,2,247,A,61.57843961215438,83.92232789857411,3.078921980607719,1.3182488439915707,A,840,Correct
1,new_learn,2,248,A,37.234170021643095,51.424667043192436,1.8617085010821546,0.8077767809809725,A,798,Correct
1,new_learn,2,249,B,54.871169604523004,32.61720156014747,2.74355848022615,0.5123498040100842,A,1186,Incorrect
1,new_learn,2,250,B,63.11081679682985,36.29275928170521,3.1555408398414926,0.5700853296895393,A,733,Incorrect
1,new_learn,2,251,A,33.93624747463221,45.19374163454205,1.6968123737316105,0.7099016335365622,A,804,Correct
1,new_learn,2,252,A,45.93195109824948,76.92861861936612,2.296597554912474,1.208391915527058,A,1143,Correct
1,new_learn,2,253,B,36.445633219503335,21.153273530765023,1.8222816609751669,0.33227484361813414,B,1793,Correct
1,new_learn,2,254,A,22.78993070540095,53.1414148244935,1.1394965352700475,0.8347433920699825,A,623,Correct
1,new_learn,2,255,A,47.028058324075865,64.05314276562427,2.351402916203793,1.0061444137591171,B,1372,Incorrect
1,new_learn,2,256,B,65.35510335268647,44.21239368292713,3.2677551676343235,0.6944866559595181,B,655,Correct
1,new_learn,2,257,B,67.93866919778304,57.112178071610884,3.3969334598891523,0.8971159953014242,B,2602,Correct
1,new_learn,2,258,A,68.74166400945317,84.64229218152259,3.437083200472659,1.3295580165023608,A,906,Correct
1,new_learn,2,259,A,26.797224717767268,55.2710640299145,1.3398612358883633,0.8681958435623522,A,1129,Correct
1,new_learn,2,260,B,60.39979713665818,45.23763253254957,3.0199898568329093,0.7105910701502618,B,7397,Correct
1,new_learn,2,261,A,19.18357870022705,45.26080175502754,0.9591789350113524,0.7109550114458927,A,764,Correct
1,new_learn,2,262,B,65.70711393066998,53.8887759005593,3.2853556965334985,0.846482912400719,B,1188,Correct
1,new_learn,2,263,B,68.71801791733999,39.49854388949326,3.4359008958669994,0.6204416765536303,B,1178,Correct
1,new_learn,2,264,A,52.588482169124894,79.63000082304157,2.6294241084562446,1.2508251279550828,A,911,Correct
1,new_learn,2,265,A,24.95611245975637,54.66191086368695,1.2478056229878185,0.858627288002695,A,479,Correct
1,new_learn,2,266,A,46.844222318372104,58.585322856358445,2.342211115918605,0.9202560994686094,A,666,Correct
1,new_learn,2,267,B,65.43373903272433,32.655549542000784,3.271686951636217,0.512952172700436,B,833,Correct
1,new_learn,2,268,A,34.67285103957525,43.38295859918135,1.7336425519787624,0.6814579201308913,A,1052,Correct
1,new_learn,2,269,A,56.38927055916883,81.50871154121282,2.8194635279584412,1.2803358469072188,B,647,Incorrect
1,new_learn,2,270,B,60.67611146381587,30.888758127321935,3.0338055731907936,0.4851994780565331,B,873,Correct
1,new_learn,2,271,B,77.58542347045092,66.0347022969923,3.879271173522546,1.0372706780911003,A,1145,Incorrect
1,new_learn,2,272,A,62.40464993851742,80.67591017086504,3.1202324969258712,1.2672542335722983,A,681,Correct
1,new_learn,2,273,B,73.04682909525219,62.788211683293866,3.6523414547626096,0.9862749227813841,A,961,Incorrect
1,new_learn,2,274,A,35.192295200993684,45.212965676740765,1.759614760049684,0.7102036040852813,A,619,Correct
1,new_learn,2,275,A,39.24733603696728,65.29738474601035,1.9623668018483642,1.0256889210834617,A,697,Correct
1,new_learn,2,276,A,57.604282948645825,65.37597750122954,2.8802141474322913,1.0269234531955715,A,867,Correct
1,new_learn,2,277,B,64.80029740470405,51.30757051363315,3.2400148702352025,0.8059374329958511,A,753,Incorrect
1,new_learn,2,278,A,36.59776612967051,51.15313000718749,1.8298883064835254,0.8035114871935191,A,815,Correct
1,new_learn,2,279,A,64.03528275396702,79.95831342519145,3.201764137698351,1.255982250250058,A,1275,Correct
1,new_learn,2,280,A,34.88684108482102,57.439197835401856,1.744342054241051,0.9022528097389461,A,1428,Correct
1,new_learn,2,281,B,74.39415352707557,61.00670361243052,3.7197076763537784,0.9582910594427081,B,1062,Correct
1,new_learn,2,282,A,16.397198089060502,36.55376219699564,0.8198599044530251,0.5741851538957491,A,834,Correct
1,new_learn,2,283,B,82.55773711443476,57.97033893672015,4.127886855721738,0.9105959546485517,B,1171,Correct
1,new_learn,2,284,B,83.81617557768256,56.53133543657843,4.1908087788841275,0.8879921405258757,B,567,Correct
1,new_learn,2,285,B,48.00943005760563,36.96882575086465,2.4004715028802814,0.5807049569537879,B,1339,Correct
1,new_learn,2,286,B,55.034553422923864,42.86093732837317,2.751727671146193,0.6732580291839484,B,659,Correct
1,new_learn,2,287,A,36.66246649972516,57.37535708863788,1.833123324986258,0.901250001633779,A,1120,Correct
1,new_learn,2,288,B,68.6042749951287,36.505094926597046,3.4302137497564353,0.5734206901999764,B,1427,Correct
1,new_learn,2,289,A,63.04485847855507,84.91033824653127,3.152242923927753,1.3337684742456353,A,891,Correct
1,new_learn,2,290,B,51.86205732118244,26.38283678315937,2.593102866059122,0.41442063109416016,B,1273,Correct
1,new_learn,2,291,B,55.853424187644,44.880909658469584,2.7926712093822,0.7049876803473762,B,639,Correct
1,new_learn,2,292,B,72.2678595999236,44.439932264530455,3.61339297999618,0.6980608236413844,B,770,Correct
1,new_learn,2,293,B,56.26421185281945,36.034963523692646,2.8132105926409725,0.5660358833920449,B,776,Correct
1,new_learn,2,294,B,78.29318273486435,62.82681128930261,3.914659136743217,0.9868812439747269,B,1205,Correct
1,new_learn,2,295,A,44.81700819976239,61.33127532661247,2.2408504099881195,0.9633894200068934,B,978,Incorrect
1,new_learn,2,296,A,26.252868755246062,51.854103094402305,1.312643437762303,0.8145223466993101,A,491,Correct
1,new_learn,2,297,B,83.79865604289387,56.73646403549118,4.1899328021446935,0.8912142930228029,B,781,Correct
1,new_learn,2,298,B,52.39641970120066,25.063542562138906,2.619820985060033,0.3936972059307534,B,2335,Correct
1,new_learn,2,299,A,22.8680401324531,51.712603674506106,1.1434020066226551,0.8122996790091446,A,650,Correct
1,new_learn,2,300,B,64.08703898903275,34.24028498799207,3.2043519494516373,0.5378451388754838,B,2107,Correct
1,new_learn,2,301,B,31.713173465773846,18.855925017699708,1.5856586732886921,0.29618817756122695,A,637,Incorrect
1,new_learn,2,302,B,56.33038351041453,40.52774940238323,2.8165191755207264,0.6366083989452764,B,1232,Correct
1,new_learn,2,303,A,28.078425854897084,46.123689784588834,1.4039212927448543,0.7245092249185943,A,660,Incorrect
1,new_learn,2,304,B,47.66987329944739,35.49844053433584,2.3834936649723693,0.557608199982818,B,1110,Incorrect
1,new_learn,2,305,A,68.08443291672121,86.30512426587632,3.4042216458360604,1.3556777218041562,A,984,Correct
1,new_learn,2,306,B,52.72877672903799,26.872891469992684,2.6364388364518994,0.42211839211422414,A,1532,Correct
1,new_learn,2,307,A,40.032075136405126,62.81433134786822,2.0016037568202565,0.9866852095130891,A,644,Correct
1,new_learn,2,308,A,51.809883591357874,60.95550235297152,2.590494179567894,0.9574867919398534,A,581,Incorrect
1,new_learn,2,309,B,68.27511883711244,52.89654630226895,3.4137559418556225,0.8308970063174024,B,1051,Correct
1,new_learn,2,310,B,42.02199898430157,32.05281779574022,2.1010999492150786,0.5034844845697483,A,1926,Incorrect
1,new_learn,2,311,A,33.6948864349256,50.098851938170014,1.6847443217462799,0.7869509260111883,A,724,Correct
1,new_learn,2,312,B,39.89461622075962,29.37759801468085,1.994730811037981,0.46146223051517726,A,695,Incorrect
1,new_learn,2,313,A,45.874056870287504,75.17674947310604,2.2937028435143754,1.1808736193273517,A,786,Correct
1,new_learn,2,314,B,78.75138720295655,49.22271671294866,3.9375693601478274,0.7731886260756552,B,785,Correct
1,new_learn,2,315,A,10.127509338766636,32.21358891806022,0.5063754669383318,0.5060098714536978,A,650,Correct
1,new_learn,2,316,B,44.19635594731018,16.351040499694925,2.209817797365509,0.25684154356195377,B,1317,Incorrect
1,new_learn,2,317,B,86.10052359273895,66.5336211193693,4.305026179636948,1.0451076766266865,B,1465,Correct
1,new_learn,2,318,A,45.7290228897483,59.698557042461424,2.286451144487415,0.9377427411725401,B,1406,Incorrect
1,new_learn,2,319,A,19.20886349725439,49.381387099175306,0.9604431748627195,0.7756810146742146,A,539,Incorrect
1,new_learn,2,320,A,27.669460102247356,49.77339526631301,1.3834730051123676,0.7818386645643497,A,915,Correct
1,new_learn,2,321,B,51.457836398689,25.258688964048154,2.5728918199344495,0.3967625584438163,B,1366,Incorrect
1,new_learn,2,322,B,61.2340985823996,31.318943474908764,3.06170492911998,0.4919568136948368,B,856,Incorrect
1,new_learn,2,323,B,46.81580607578384,26.1277441009575,2.3407903037891917,0.41041364461221064,A,600,Correct
1,new_learn,2,324,A,32.65485322208599,63.71238663646907,1.6327426611042994,1.0007918289990188,B,1286,Incorrect
1,new_learn,2,325,A,33.27108518220611,51.00432747513116,1.6635542591103052,0.8011741024858006,A,1286,Incorrect
1,new_learn,2,326,B,81.62521870826258,55.28432875752088,4.0812609354131295,0.8684042054163527,B,642,Correct
1,new_learn,2,327,B,62.52903264940154,35.2874205746449,3.126451632470077,0.5542935062071886,B,861,Incorrect
1,new_learn,2,328,B,82.16917325774023,60.071020255352195,4.108458662887012,0.9435933796392906,B,559,Correct
1,new_learn,2,329,B,86.13328006351114,62.251085770687354,4.306664003175557,0.9778377686758973,B,626,Correct
1,new_learn,2,330,B,39.424743062566634,19.842183729959995,1.9712371531283315,0.3116802931861062,A,676,Correct
1,new_learn,2,331,A,47.9077930431314,72.54194589004045,2.39538965215657,1.1394862214262969,A,800,Correct
1,new_learn,2,332,A,43.10440139973934,64.98371667705885,2.155220069986967,1.020761834578043,A,576,Correct
1,new_learn,2,333,B,37.94123701773785,15.521900490747964,1.8970618508868924,0.24381744275742803,B,1121,Incorrect
1,new_learn,2,334,B,87.17795215649295,63.329635120994205,4.358897607824647,0.9947795822531877,B,683,Incorrect
1,new_learn,2,335,A,52.72131131652815,75.12646851596068,2.6360655658264074,1.1800838078994347,B,1108,Incorrect
1,new_learn,2,336,A,55.19519964093402,84.52521079889542,2.7597599820467007,1.3277189064446924,A,1262,Incorrect
1,new_learn,2,337,B,33.477951743827944,10.68587228246771,1.673897587191397,0.16785328929899673,A,808,Incorrect
1,new_learn,2,338,A,43.706380749767895,68.7665148681032,2.185319037488395,1.0801818896130315,B,694,Incorrect
1,new_learn,2,339,B,44.12754365915618,18.26762461170718,2.206377182957809,0.2869471763933769,A,1647,Incorrect
1,new_learn,2,340,A,19.990231706783952,47.373932784490314,0.9995115853391977,0.7441479960370571,A,589,Incorrect
1,new_learn,2,341,A,63.56360394029841,80.1921791433817,3.1781801970149206,1.2596558043610226,B,643,Incorrect
1,new_learn,2,342,B,43.99279770088047,15.346235771520774,2.1996398850440237,0.2410581078003328,A,628,Correct
1,new_learn,2,343,A,25.712790154592753,54.71679107065563,1.2856395077296379,0.8594893442778967,A,667,Correct
1,new_learn,2,344,A,11.230602585064265,35.55607950392607,0.5615301292532132,0.5585135907999437,A,476,Correct
1,new_learn,2,345,B,76.01977023967277,58.020246906543775,3.8009885119836384,0.9113799072053193,B,994,Incorrect
1,new_learn,2,346,B,75.93832388501663,59.31411380315419,3.796916194250832,0.9317039208908907,A,701,Incorrect
1,new_learn,2,347,B,60.44099057125873,27.40185494345817,3.0220495285629365,0.4304273309255067,B,984,Incorrect
1,new_learn,2,348,A,41.84799349172032,71.61642411577668,2.092399674586016,1.1249481593924744,A,2918,Correct
1,new_learn,2,349,A,65.01167186582296,80.41005540002169,3.250583593291148,1.263078196597282,A,733,Correct
1,new_learn,2,350,A,37.36905044054697,57.86462776146414,1.8684525220273485,0.9089354473906187,A,933,Incorrect
1,new_learn,2,351,A,35.981077995603364,44.542351502578406,1.7990538997801682,0.6996696212705731,B,571,Incorrect
1,new_learn,2,352,B,59.02743038230222,49.2273980263243,2.9513715191151113,0.7732621599742054,B,872,Incorrect
1,new_learn,2,353,B,60.26378038105364,31.21815477844045,3.013189019052682,0.4903736285528881,B,618,Correct
1,new_learn,2,354,A,37.49568048061529,67.83948429947695,1.8747840240307647,1.0656201274927846,B,868,Incorrect
1,new_learn,2,355,B,45.69325792783461,34.80773733087751,2.2846628963917306,0.5467586594338398,B,1171,Incorrect
1,new_learn,2,356,A,39.81125454846556,53.93295088353325,1.9905627274232782,0.8471768114106359,B,1508,Correct
1,new_learn,2,357,B,56.98272502502823,34.84751602605481,2.8491362512514113,0.5473835017165319,A,964,Incorrect
1,new_learn,2,358,A,48.7461850562411,68.52614213420193,2.4373092528120552,1.076406123538294,A,824,Correct
1,new_learn,2,359,A,28.452255249356533,52.81842870453036,1.4226127624678266,0.8296699379615441,A,1152,Correct
1,new_learn,2,360,A,34.59751635981162,56.82114243793017,1.7298758179905809,0.8925444182579033,A,640,Correct
1,new_learn,2,361,A,38.895818190786564,58.25523158011033,1.9447909095393283,0.9150710378262338,A,683,Incorrect
1,new_learn,2,362,B,78.93207125446894,62.47407348545106,3.946603562723447,0.9813404515086096,B,820,Correct
1,new_learn,2,363,A,21.290633624949354,52.068007747000536,1.0645316812474677,0.8178823531251667,A,799,Incorrect
1,new_learn,2,364,A,36.16236079176291,66.10891152522477,1.8081180395881455,1.0384363539223187,A,1368,Incorrect
1,new_learn,2,365,A,29.224643445939627,47.22858312958778,1.4612321722969812,0.741864848996839,A,572,Incorrect
1,new_learn,2,366,B,41.37278491421404,15.206869660654778,2.0686392457107017,0.23886895005005276,A,601,Incorrect
1,new_learn,2,367,A,51.92717929958719,77.7085380848687,2.5963589649793595,1.2206428618431309,A,791,Incorrect
1,new_learn,2,368,A,18.732483705860293,48.54982066869037,0.9366241852930146,0.7626187997292979,A,844,Incorrect
1,new_learn,2,369,B,81.63614115259276,53.51283233829548,4.0818070576296375,0.8405776047338569,A,617,Incorrect
1,new_learn,2,370,A,43.98550577197861,51.69868333487829,2.1992752885989306,0.8120810188255934,A,398,Incorrect
1,new_learn,2,371,B,55.1556911027354,42.32780025395794,2.7577845551367703,0.6648835316022522,B,360,Incorrect
1,new_learn,2,372,A,30.12579445003692,46.630802129001836,1.5062897225018461,0.7324749269973572,B,377,Incorrect
1,new_learn,2,373,B,33.702983450735005,16.716515981388667,1.6851491725367505,0.262582419003735,A,287,Incorrect
1,new_learn,2,374,A,21.205006730127696,51.81654881979011,1.0602503365063847,0.8139324455331473,A,661,Incorrect
1,new_learn,2,375,B,72.5857904004706,52.40536009784458,3.62928952002353,0.823181471460581,B,434,Incorrect
1,new_learn,2,376,A,29.6593620583771,61.63000598067225,1.4829681029188548,0.9680818701478748,B,292,Correct
1,new_learn,2,377,A,59.35641599878824,80.93346435175403,2.967820799939412,1.271299885185209,A,959,Correct
1,new_learn,2,378,B,50.99148135106931,34.25301235805256,2.5495740675534653,0.5380450599368916,A,2041,Correct
1,new_learn,2,379,B,69.89407139463908,38.65567476738189,3.494703569731954,0.6072019193438164,A,6573,Correct
1,new_learn,2,380,A,23.887280625580125,40.63855150350261,1.1943640312790063,0.6383488742796711,A,1455,Correct
1,new_learn,2,381,B,68.05711449212069,55.39488329403031,3.402855724606035,0.8701407920149478,A,670,Incorrect
1,new_learn,2,382,A,14.186477957706838,30.261140575376206,0.709323897885342,0.4753408846042495,A,537,Correct
1,new_learn,2,383,B,63.81620731633522,47.596017926971626,3.1908103658167613,0.7476365012975107,A,687,Incorrect
1,new_learn,2,384,A,54.68511315124082,75.27426500695195,2.734255657562041,1.1824053897510574,A,795,Correct
1,new_learn,2,385,A,25.267673836085688,56.99773823403096,1.2633836918042844,0.8953183785363286,A,661,Correct
1,new_learn,2,386,A,26.24961079960196,39.987948049451234,1.3124805399800978,0.6281292191214315,A,626,Correct
1,new_learn,2,387,B,63.045670355390556,34.80583726163329,3.1522835177695274,0.5467288132159452,B,1487,Incorrect
1,new_learn,2,388,A,27.60339308107095,59.98097564765443,1.3801696540535477,0.9421789622490974,A,935,Incorrect
1,new_learn,2,389,A,40.428207979259795,69.08002433399035,2.02141039896299,1.0851064847873413,A,480,Incorrect
1,new_learn,2,390,A,29.959090935762042,60.321644191039596,1.4979545467881021,0.9475301712151372,A,879,Correct
1,new_learn,2,391,B,46.52499952938983,36.51786815860413,2.3262499764694917,0.5736213316591569,A,535,Incorrect
1,new_learn,2,392,A,28.813503278566714,41.245065186678914,1.4406751639283357,0.647875968936513,A,1549,Incorrect
1,new_learn,2,393,B,64.89824321895644,47.72164844522313,3.244912160947822,0.7496099008635387,B,756,Correct
1,new_learn,2,394,A,42.52015398327121,73.64066689488091,2.1260076991635604,1.1567448906120545,A,982,Incorrect
1,new_learn,2,395,A,31.431812571142302,47.863786215751354,1.571590628557115,0.7518425957419843,A,623,Correct
1,new_learn,2,396,B,55.72845334752464,46.99625552485794,2.7864226673762325,0.7382154555156122,A,536,Incorrect
1,new_learn,2,397,B,70.44809061383633,45.124694610276016,3.522404530691816,0.7088170454156304,B,921,Incorrect
1,new_learn,2,398,A,23.42277242811156,45.97158234852323,1.171138621405578,0.7221199269000939,A,636,Correct
1,new_learn,2,399,B,81.41328071418293,55.911991576136295,4.070664035709147,0.878263509915821,B,708,Correct
1,new_learn,2,400,B,36.538057959505835,14.559398528821117,1.8269028979752917,0.22869849729415231,A,573,Incorrect
1,new_learn,2,401,B,66.43253868204299,36.22658881891026,3.3216269341021496,0.569045926490533,B,1387,Correct
1,new_learn,2,402,B,68.72969624369051,43.51829062067728,3.4364848121845255,0.6835837105535266,B,621,Incorrect
1,new_learn,2,403,B,78.33359866186973,59.814886704524355,3.9166799330934863,0.9395700432311974,B,774,Incorrect
1,new_learn,2,404,B,68.52471409548852,39.60916687007386,3.426235704774426,0.6221793382691813,B,475,Correct
1,new_learn,2,405,B,56.79323504571455,44.268903189903426,2.8396617522857275,0.6953743052193919,B,833,Incorrect
1,new_learn,2,406,B,61.500061862634,30.238350308519415,3.0750030931317,0.47498289592959625,B,735,Correct
1,new_learn,2,407,A,52.84237993561659,82.12926578345699,2.6421189967808294,1.29008349015016,A,1047,Correct
1,new_learn,2,408,A,59.77702338411453,74.52354998076878,2.9888511692057262,1.1706131856950746,A,638,Incorrect
1,new_learn,2,409,B,69.21381872319111,41.576774304183985,3.4606909361595557,0.6530864435699265,A,964,Correct
1,new_learn,2,410,A,25.828267365712307,40.241152178474145,1.2914133682856153,0.6321065402794163,A,696,Correct
1,new_learn,2,411,A,48.14492272150067,79.32685370624793,2.4072461360750337,1.2460633041797036,A,750,Incorrect
1,new_learn,2,412,A,22.790629887781765,52.5144519466531,1.1395314943890882,0.824895082214498,A,541,Correct
1,new_learn,2,413,B,77.64740334307884,57.40930405095695,3.882370167153942,0.9017832392709456,A,749,Correct
1,new_learn,2,414,B,75.21732347647055,46.631500060623154,3.7608661738235276,0.7324858900816286,A,573,Incorrect
1,new_learn,2,415,B,60.49629971462744,48.37953199166175,3.0248149857313718,0.7599439114455846,A,437,Incorrect
1,new_learn,2,416,B,67.77510468967812,51.891111963794,3.388755234483906,0.8151036806603033,A,498,Incorrect
1,new_learn,2,417,A,35.90528511499759,58.002335827798724,1.7952642557498795,0.9110985606383025,A,1253,Correct
1,new_learn,2,418,B,50.05661192948579,26.466201750812473,2.5028305964742894,0.41573012494388895,A,1886,Correct
1,new_learn,2,419,A,34.962083580226604,60.13537513765119,1.74810417901133,0.9446042637665563,A,1122,Incorrect
1,new_learn,2,420,A,23.912840830179395,36.64005490435328,1.1956420415089697,0.5755406365732146,A,685,Correct
1,new_learn,2,421,B,68.4823566094239,59.60425308002074,3.4241178304711952,0.9362614179944998,A,775,Correct
1,new_learn,2,422,A,47.58499016568079,74.5554458793819,2.3792495082840395,1.171114205298888,A,1908,Correct
1,new_learn,2,423,B,77.92052279740716,53.100287882623306,3.896026139870358,0.8340973715777623,B,2109,Incorrect
1,new_learn,2,424,A,64.51264129422462,81.99207058113777,3.225632064711231,1.2879284329515908,A,958,Incorrect
1,new_learn,2,425,B,61.358990778659326,35.7437640150938,3.0679495389329663,0.5614617322073294,A,802,Incorrect
1,new_learn,2,426,B,34.98071234587593,23.974120677208635,1.7490356172937964,0.37658460697896906,A,3009,Correct
1,new_learn,2,427,B,37.77583977707182,18.58148874525297,1.8887919888535913,0.2918773426742408,A,681,Correct
1,new_learn,2,428,A,36.550959988950396,50.90730142199314,1.8275479994475199,0.7996500208070744,A,1284,Incorrect
1,new_learn,2,429,A,44.641618932315964,57.118791155448875,2.232080946615798,0.8972198733794392,A,626,Correct
1,new_learn,2,430,A,55.11191096646959,68.84105085493816,2.7555955483234795,1.0813526981563755,A,653,Incorrect
1,new_learn,2,431,B,77.18312070673343,50.905278244384654,3.859156035336672,0.7996182408075156,B,970,Correct
1,new_learn,2,432,A,30.050925153897744,42.26101004777642,1.5025462576948871,0.6638343934968941,A,1212,Correct
1,new_learn,2,433,A,60.24267987463401,73.97834538102636,3.0121339937317004,1.1620491318688042,B,799,Correct
1,new_learn,2,434,B,32.461879235519156,13.81413319829224,1.6230939617759577,0.21699189685732886,B,1604,Incorrect
1,new_learn,2,435,A,43.567176080404536,63.33000519116954,2.1783588040202266,0.9947853953019086,B,924,Incorrect
1,new_learn,2,436,B,45.16240274990555,18.250215655679565,2.2581201374952773,0.28667371715156176,A,520,Correct
1,new_learn,2,437,B,81.61056782282395,59.16718119546849,4.080528391141198,0.9293959088864998,A,406,Incorrect
1,new_learn,2,438,A,43.24317522477194,59.23811239040379,2.162158761238597,0.9305100934910954,A,622,Incorrect
1,new_learn,2,439,B,65.34619142963714,41.730054105236995,3.2673095714818574,0.6554941570545856,B,638,Correct
1,new_learn,2,440,B,57.312984527586465,42.3217003454286,2.8656492263793236,0.6647877144631356,B,1391,Incorrect
1,new_learn,2,441,B,76.60426526700977,54.51824126867413,3.830213263350488,0.8563705312815126,B,2234,Correct
1,new_learn,2,442,A,32.26507627996813,61.10729092338868,1.6132538139984063,0.9598710812284607,A,5012,Incorrect
1,new_learn,2,443,A,30.265098751115666,41.52591035823997,1.513254937555783,0.652287474575375,A,934,Incorrect
1,new_learn,2,444,B,75.74703146812566,50.682128055224126,3.787351573406283,0.7961130058329462,A,652,Incorrect
1,new_learn,2,445,A,31.804331475400033,60.66552434913966,1.5902165737700016,0.9529318281071494,A,479,Correct
1,new_learn,2,446,A,11.999635348220743,32.02958390400033,0.5999817674110371,0.5031195274517267,A,611,Correct
1,new_learn,2,447,A,52.70147243886822,73.34538232251938,2.635073621943411,1.1521065713958076,A,650,Correct
1,new_learn,2,448,A,64.97991993940457,77.44456651671004,3.2489959969702285,1.2164964061467116,A,543,Correct
1,new_learn,2,449,B,58.457236168705876,40.88465250066129,2.922861808435294,0.6422146197032453,B,964,Correct
1,new_learn,2,450,B,57.77812916944131,42.373575783125176,2.8889064584720656,0.6656025719329821,B,667,Correct
1,new_learn,2,451,B,75.43344044704482,59.149707627281614,3.7716720223522406,0.9291214347192605,B,521,Correct
1,new_learn,2,452,A,44.97407421177742,68.33623507451814,2.2487037105888708,1.0734230704204568,B,708,Incorrect
1,new_learn,2,453,B,47.09666021089245,20.939351952543884,2.3548330105446227,0.3289145713252148,B,723,Incorrect
1,new_learn,2,454,B,65.8596467907764,53.33406078402491,3.29298233953882,0.8377694677260207,B,747,Incorrect
1,new_learn,2,455,B,42.94333920916063,29.845343157028932,2.1471669604580312,0.4688095540299424,A,762,Correct
1,new_learn,2,456,B,56.435022755010216,23.883696388266753,2.821751137750511,0.37516422556973955,A,895,Incorrect
1,new_learn,2,457,B,73.75367796777796,42.00278638632665,3.6876838983888978,0.6597782257079258,B,595,Incorrect
1,new_learn,2,458,B,49.81913332775924,35.53271645990848,2.490956666387962,0.558146604962688,B,1696,Incorrect
1,new_learn,2,459,B,62.906196315237274,48.38130288119109,3.145309815761864,0.759971728513263,A,460,Correct
1,new_learn,2,460,B,59.78805905923658,40.552341237325095,2.989402952961829,0.6369946865852347,A,433,Correct
1,new_learn,2,461,A,65.76013894289218,85.93473104660526,3.288006947144609,1.3498595987211492,A,805,Incorrect
1,new_learn,2,462,A,28.947020252828707,44.269828501331496,1.4473510126414353,0.6953888399773154,B,1309,Correct
1,new_learn,2,463,A,52.40855705731806,72.75200256337084,2.620427852865903,1.142785783935158,B,1604,Incorrect
1,new_learn,2,464,A,11.260337926829074,32.72803003219172,0.5630168963414537,0.5140906935779981,B,1031,Correct
1,new_learn,2,465,A,19.991341075571707,51.14242925963262,0.9995670537785855,0.8033434002439875,B,743,Correct
1,new_learn,2,466,B,60.31457826139827,38.312312676500476,3.015728913069913,0.6018084002326449,A,751,Incorrect
1,new_learn,2,467,B,60.953088634125685,50.286474917490764,3.047654431706284,0.789898100878582,A,728,Incorrect
1,new_learn,2,468,B,56.10902925510834,27.250394390165333,2.805451462755417,0.4280481941178396,A,842,Incorrect
1,new_learn,2,469,B,40.69093784384181,32.43127894364961,2.0345468921920906,0.5094293383794548,B,5995,Incorrect
1,new_learn,2,470,A,39.50307665228728,71.74265557217956,1.975153832614364,1.1269309984729108,B,709,Correct
1,new_learn,2,471,A,36.303806328628625,48.8664087567971,1.8151903164314314,0.7675917537883484,B,875,Incorrect
1,new_learn,2,472,B,42.60592862579872,15.076477807858886,2.130296431289936,0.23682075961589513,A,621,Incorrect
1,new_learn,2,473,B,59.38778153926669,38.55318709315859,2.9693890769633344,0.6055920467216993,B,802,Correct
1,new_learn,2,474,A,49.16247223561947,57.23798882989064,2.4581236117809735,0.8990922260711954,A,3930,Incorrect
1,new_learn,2,475,A,31.897442275029796,50.60487994406907,1.5948721137514896,0.7948995953404041,B,1212,Incorrect
1,new_learn,2,476,B,41.59336565133596,18.304650832974563,2.079668282566798,0.28752878291699585,B,706,Correct
1,new_learn,2,477,A,39.69301429875544,47.089164173812634,1.9846507149377721,0.7396748611606673,A,1206,Correct
1,new_learn,2,478,A,58.082107006865314,83.46999286379186,2.904105350343266,1.3111435818804047,B,4746,Correct
1,new_learn,2,479,B,60.56678895739084,43.53653106329034,3.028339447869542,0.6838702307560838,A,1627,Incorrect
1,new_learn,2,480,A,48.06491568543643,69.70505109229504,2.403245784271822,1.0949243821482764,B,1847,Incorrect
1,new_learn,2,481,B,45.049033668022304,15.309283651824632,2.252451683401115,0.24047766526147296,A,1309,Correct
1,new_learn,2,482,B,65.16353311423683,53.097675245886926,3.2581766557118415,0.8340563323758748,A,2290,Incorrect
1,new_learn,2,483,B,48.38105638781235,25.778818816946547,2.4190528193906173,0.404932739067708,A,2127,Incorrect
1,new_learn,2,484,A,66.23035396095415,86.38956594317008,3.3115176980477075,1.3570041285693706,B,1816,Incorrect
1,new_learn,2,485,B,54.05933293821229,35.48760604495791,2.7029666469106144,0.5574380122216425,A,920,Correct
1,new_learn,2,486,A,23.81469440631837,43.90486658825928,1.1907347203159184,0.6896560316525766,B,1123,Correct
1,new_learn,2,487,A,44.289841499511745,70.63501926438414,2.214492074975587,1.1095322880358134,A,1393,Incorrect
1,new_learn,2,488,A,58.414930563246415,68.47230124611079,2.9207465281623204,1.0755603928458446,A,1694,Incorrect
1,new_learn,2,489,A,46.92524232539375,73.4293369298675,2.3462621162696875,1.1534253272842072,A,593,Incorrect
1,new_learn,2,490,A,29.60605137788802,46.94997255194194,1.480302568894401,0.7374884442771161,A,863,Correct
1,new_learn,2,491,B,78.62853521964598,49.87570702874879,3.931426760982299,0.7834457739705699,B,2401,Incorrect
1,new_learn,2,492,A,42.196624311626955,57.13891617724043,2.1098312155813477,0.8975359964825076,B,1079,Incorrect
1,new_learn,2,493,B,60.98647103048473,48.9159542756494,3.0493235515242367,0.768370012978572,A,604,Correct
1,new_learn,2,494,B,52.45151897785521,25.686864733807568,2.6225759488927607,0.403488327707423,B,904,Correct
1,new_learn,2,495,B,47.35412194164343,33.70958385695548,2.3677060970821713,0.5295089050029022,B,631,Incorrect
1,new_learn,2,496,A,50.25391250298849,67.72510028161469,2.5126956251494246,1.0638233875417635,A,880,Incorrect
1,new_learn,2,497,B,81.85442022675687,51.49534022916019,4.092721011337844,0.8088869127901829,A,625,Incorrect
1,new_learn,2,498,B,53.48223208291546,41.613662779740125,2.674111604145773,0.6536658863889729,A,592,Correct
1,new_learn,2,499,A,37.69008153730619,52.92274043527659,1.8845040768653094,0.8313084627965222,A,569,Correct
1,new_learn,2,500,A,59.19318089674741,85.619564545427,2.9596590448373705,1.344908974897353,A,1540,Correct
1,new_learn,2,501,A,62.93356081492547,86.32710757828376,3.146678040746274,1.35602303486796,A,631,Incorrect
1,new_learn,2,502,A,32.603837865823046,52.52254594471641,1.630191893291152,0.8250222224387673,A,1803,Correct
1,new_learn,2,503,A,27.46867060074941,55.911089937602604,1.3734335300374705,0.8782493470108528,A,1402,Incorrect
1,new_learn,2,504,A,54.812663455891226,82.14366945865032,2.740633172794561,1.2903097425510204,A,1711,Incorrect
1,new_learn,2,505,A,19.87622686181033,36.904959120226806,0.9938113430905164,0.5797017422656807,A,1338,Incorrect
1,new_learn,2,506,A,41.534870747463096,54.89691663884124,2.076743537373155,0.8623187500865745,A,1070,Correct
1,new_learn,2,507,B,42.90281319867286,19.614145075095525,2.145140659933643,0.30809827037182264,B,763,Incorrect
1,new_learn,2,508,B,39.32671287051613,16.322363149130663,1.9663356435258066,0.25639108079266826,B,578,Incorrect
1,new_learn,2,509,B,81.81107030795316,65.53805905537376,4.090553515397658,1.029469424294481,B,782,Correct
1,new_learn,2,510,B,45.40192182232097,37.05491500436839,2.2700960911160486,0.5820572437855898,A,730,Incorrect
1,new_learn,2,511,A,68.14098106291544,88.68511280030557,3.407049053145772,1.3930624942811105,B,817,Incorrect
1,new_learn,2,512,A,40.68525480089024,72.62009604230931,2.0342627400445124,1.1407138011475206,A,485,Correct
1,new_learn,2,513,A,55.08385992995428,66.07328554312173,2.754192996497714,1.0378767423040596,A,541,Incorrect
1,new_learn,2,514,A,59.89144431118422,78.08222838080377,2.994572215559211,1.2265127752852678,A,485,Incorrect
1,new_learn,2,515,B,49.89499299463452,24.038169140175572,2.494749649731726,0.37759067788262224,B,580,Correct
1,new_learn,2,516,A,20.685470390341738,46.8691936935339,1.034273519517087,0.7362195729364157,B,976,Correct
1,new_learn,2,517,B,62.83652495931669,46.160401844922305,3.1418262479658345,0.7250858966138034,B,1262,Incorrect
1,new_learn,2,518,A,15.507940146233938,33.01367357486717,0.7753970073116969,0.5185775718540708,B,664,Correct
1,new_learn,2,519,B,49.20701948623606,29.79259266825337,2.460350974311803,0.4679809512898896,A,1106,Incorrect
1,new_learn,2,520,B,74.21984412966077,51.387563785929956,3.7109922064830387,0.8071939643787723,A,1067,Incorrect
1,new_learn,2,521,A,45.54435899648031,55.63483451886421,2.2772179498240153,0.8739099370407382,B,1159,Incorrect
1,new_learn,2,522,B,42.31350437479878,18.83018550929453,2.115675218739939,0.2957838623086634,B,1222,Correct
1,new_learn,2,523,A,52.4511096175096,81.29536422596142,2.62255548087548,1.2769845951159347,B,580,Correct
1,new_learn,2,524,A,35.614279273820834,54.072834526248165,1.7807139636910418,0.8493740985321888,B,567,Incorrect
1,new_learn,2,525,B,80.77877609641578,65.49040816316004,4.038938804820789,1.0287209258299028,B,1009,Correct
1,new_learn,2,526,B,54.59916783220488,34.58516414846126,2.7299583916102437,0.5432624880600149,B,805,Correct
1,new_learn,2,527,B,50.31260653432832,21.903738367787216,2.515630326716416,0.344063117711966,B,818,Correct
1,new_learn,2,528,B,78.90007156404212,62.175640892426046,3.9450035782021065,0.9766526832994139,B,537,Correct
1,new_learn,2,529,B,35.35933397555657,17.4437564123948,1.7679666987778284,0.2740058849809468,B,918,Incorrect
1,new_learn,2,530,B,57.96027226347156,30.487784194508237,2.8980136131735783,0.4789009942484904,B,540,Correct
1,new_learn,2,531,A,64.63307477596486,78.25579349656991,3.231653738798243,1.2292391297483196,B,602,Incorrect
1,new_learn,2,532,A,26.158622525811623,42.81528183741254,1.307931126290581,0.6725408744089587,A,514,Correct
1,new_learn,2,533,A,47.03849902924097,77.79167554037454,2.351924951462048,1.2219487819404071,B,786,Incorrect
1,new_learn,2,534,B,60.82397767719854,39.04616223077077,3.0411988838599266,0.6133356820753234,B,563,Incorrect
1,new_learn,2,535,A,42.49294096565113,56.306997642784886,2.1246470482825566,0.884468250701354,A,483,Correct
1,new_learn,2,536,A,28.19685616772088,55.415604014566505,1.4098428083860441,0.8704662723320159,A,468,Incorrect
1,new_learn,2,537,A,33.24871815098742,62.83779116464565,1.662435907549371,0.9870537154533019,A,483,Correct
1,new_learn,2,538,A,57.1976184424294,69.50836680383546,2.8598809221214703,1.0918348725697706,A,671,Incorrect
1,new_learn,2,539,B,87.53635835406567,61.17765838177402,4.376817917703283,0.9609764106800367,A,983,Correct
1,new_learn,2,540,B,76.21227406482248,51.109234101946825,3.8106137032411245,0.8028219719263853,A,763,Incorrect
1,new_learn,2,541,B,70.30601093215489,41.261199863639135,3.5153005466077447,0.6481294118495443,B,827,Incorrect
1,new_learn,2,542,B,57.463167762627265,36.26669264689942,2.8731583881313636,0.5696758759474909,A,770,Correct
1,new_learn,2,543,A,50.0153545538741,75.40882610136306,2.5007677276937046,1.1845190704793622,A,523,Incorrect
1,new_learn,2,544,A,41.493289005807505,63.79261004428696,2.074664450290375,1.0020519753422519,A,719,Incorrect
1,new_learn,2,545,A,35.01007255810259,62.69266551766168,1.7505036279051296,0.9847740871212404,A,623,Incorrect
1,new_learn,2,546,B,64.383875926063,45.47902830561302,3.2191937963031503,0.7143829060865806,A,619,Correct
1,new_learn,2,547,B,72.48212212936933,46.967990358916694,3.6241061064684663,0.7377714673272445,A,1349,Correct
1,new_learn,2,548,B,55.45501709384037,27.763199087479535,2.7727508546920183,0.4361033114668828,A,861,Incorrect
1,new_learn,2,549,B,73.58394325051496,43.49220206080304,3.679197162525748,0.6831739124133084,A,745,Correct
1,new_learn,2,550,A,31.989343362650235,59.234030048313755,1.5994671681325119,0.9304459682114978,A,1000,Correct
1,new_learn,2,551,B,57.22777171673039,26.764171415101654,2.8613885858365196,0.4204106214855065,B,1133,Incorrect
1,new_learn,2,552,A,55.051404971537615,71.87695140660676,2.752570248576881,1.1290405125071317,A,605,Incorrect
1,new_learn,2,553,A,34.57167619480267,60.36750374888753,1.7285838097401336,0.9482505314652968,A,597,Incorrect
1,new_learn,2,554,B,49.371037800715925,21.14471731322699,2.4685518900357963,0.33214044286733413,A,591,Incorrect
1,new_learn,2,555,A,54.3729597699529,79.04803161252127,2.718647988497645,1.2416835769731527,B,591,Incorrect
1,new_learn,2,556,B,76.64290337163246,64.73660179651853,3.8321451685816226,1.016880163111552,A,665,Incorrect
1,new_learn,2,557,A,56.254574966931614,77.30012574814727,2.8127287483465806,1.2142275358597334,A,366,Correct
1,new_learn,2,558,B,70.4741943861149,47.32314597247951,3.523709719305745,0.7433502386594951,A,1981,Incorrect
1,new_learn,2,559,A,19.27513900979866,39.59166751926472,0.963756950489933,0.6219044591094584,A,664,Correct
1,new_learn,2,560,A,17.641102804925257,32.14931420473228,0.8820551402462629,0.5050002466176845,A,653,Correct
1,new_learn,2,561,B,64.69217473071338,47.89993983721375,3.2346087365356686,0.7524104954999189,A,1188,Incorrect
1,new_learn,2,562,A,48.508390806367274,55.439006988210906,2.425419540318364,0.8708338853823829,B,7844,Incorrect
1,new_learn,2,563,B,66.09218031850975,42.93333915756129,3.3046090159254873,0.6743953144573678,B,6391,Incorrect
1,new_learn,2,564,A,46.13226914557118,56.88160520436223,2.306613457278559,0.8934941651720967,A,6441,Correct
1,new_learn,2,565,B,81.02806764909141,63.24843358285479,4.051403382454571,0.9935040714747927,B,3022,Incorrect
1,new_learn,2,566,B,77.61692554328344,45.723381480897885,3.8808462771641725,0.7182211967883619,A,1410,Correct
1,new_learn,2,567,B,57.117386245050746,43.6470629758111,2.8558693122525374,0.6856064619778961,B,6380,Correct
1,new_learn,2,568,B,75.30063295912375,61.16537050027621,3.765031647956187,0.9607833930888281,A,7574,Correct
1,new_learn,2,569,B,73.56136113762936,54.13457868986133,3.678068056881468,0.8503439735862345,A,8103,Correct
1,new_learn,2,570,A,53.27133013241091,67.52124225223362,2.663566506620546,1.0606211931043694,A,5723,Correct
1,new_learn,2,571,A,29.371041641946434,60.941986353666024,1.4685520820973215,0.957274483119233,A,6453,Incorrect
1,new_learn,2,572,B,64.20738141570321,48.57685612500561,3.2103690707851604,0.7630434716840299,B,994,Incorrect
1,new_learn,2,573,B,65.11167117989575,42.493464780350656,3.255583558994788,0.6674857838976312,A,778,Correct
1,new_learn,2,574,A,24.355892609089466,37.680807725332414,1.2177946304544733,0.5918887436561692,B,2618,Incorrect
1,new_learn,2,575,B,57.5267508480364,38.80714382614355,2.87633754240182,0.6095811897550754,B,1209,Incorrect
1,new_learn,2,576,B,55.88206363164117,29.696114045484805,2.794103181582058,0.4664654686272987,B,744,Incorrect
1,new_learn,2,577,A,49.487263256854135,59.994917918053325,2.4743631628427067,0.9423979669203948,A,316,Incorrect
1,new_learn,2,578,B,57.599475854459975,41.536046306258,2.879973792722999,0.652446689674528,A,348,Incorrect
1,new_learn,2,579,B,41.09638087977693,27.740173086032435,2.0548190439888465,0.43574161988194393,A,267,Incorrect
1,new_learn,2,580,B,61.247386378890035,48.02836452685119,3.0623693189445014,0.7544277858074415,A,290,Incorrect
1,new_learn,2,581,A,44.1043677770119,53.13086228704076,2.205218388850595,0.8345776331992911,A,277,Correct
1,new_learn,2,582,B,45.23992843599175,35.86112468538066,2.2619964217995876,0.5633052293052973,A,355,Correct
1,new_learn,2,583,A,35.9375109291106,67.91488276149472,1.7968755464555302,1.0668044837646196,B,587,Correct
1,new_learn,2,584,B,69.0102005405949,43.34297704944791,3.4505100270297446,0.6808298914162828,A,600,Correct
1,new_learn,2,585,B,31.3864366809603,12.741601870360903,1.5693218340480148,0.20014461415445892,B,720,Incorrect
1,new_learn,2,586,A,50.927718749557215,62.7684088515434,2.5463859374778606,0.9859638606276464,A,474,Incorrect
1,new_learn,2,587,B,55.99858060651688,47.16241554915297,2.799929030325844,0.7408254910738399,A,404,Correct
1,new_learn,2,588,B,60.517767832130446,43.67731497623597,3.0258883916065225,0.6860816592893519,A,486,Correct
1,new_learn,2,589,A,46.07136132827744,63.11804551557877,2.303568066413872,0.9914559405034421,B,991,Correct
1,new_learn,2,590,A,63.30947161212476,80.45623705821768,3.165473580606238,1.2638036163878776,A,659,Correct
1,new_learn,2,591,B,70.43009153169504,47.721045466276586,3.521504576584752,0.7496004292923951,A,463,Correct
1,new_learn,2,592,B,64.7771429463035,41.52345068654483,3.238857147315175,0.6522488381427364,A,476,Incorrect
1,new_learn,2,593,A,23.845278310849125,51.40650607058463,1.1922639155424561,0.8074915090903388,A,416,Correct
1,new_learn,2,594,A,49.77973388505175,81.0582348714353,2.488986694252587,1.2732597759252857,B,314,Correct
1,new_learn,2,595,A,17.273641193648437,45.92251763348517,0.863682059682422,0.7213492201585238,B,469,Incorrect
1,new_learn,2,596,A,45.44778592973108,57.914701937179444,2.272389296486554,0.9097220107034275,B,383,Incorrect
1,new_learn,2,597,A,40.37093781762441,47.35468376040404,2.01854689088122,0.7438456330737662,A,143,Incorrect
1,new_learn,2,598,A,31.575646479386307,44.237758379782775,1.5787823239693153,0.6948850836860294,B,517,Correct
1,new_learn,2,599,A,46.20115578070748,55.30149070679662,2.3100577890353744,0.8686737846851824,A,552,Incorrect
1,new_learn,2,600,A,47.38016394128046,68.03395889675295,2.369008197064023,1.0686749273233451,B,372,Incorrect
1,new_learn,2,601,A,65.815053470138,45.804682877138056,3.2907526735068995,0.7194982761341356,A,993,Correct
1,new_learn,2,602,B,29.696114045484805,44.11793636835883,1.4848057022742405,0.6930029239318903,A,1164,Incorrect
1,new_learn,2,603,A,77.83477929379436,51.9190184954221,3.8917389646897176,0.8155420354340533,A,620,Correct
1,new_learn,2,604,A,72.13397516021598,54.6539788075527,3.606698758010799,0.858502691556299,A,590,Correct
1,new_learn,2,605,B,47.16241554915297,44.00141939348312,2.3581207774576485,0.6911726795704501,B,1396,Correct
1,new_learn,2,606,B,32.2881375070179,54.71842509367588,1.6144068753508949,0.8595150114514779,B,678,Correct
1,new_learn,2,607,A,84.57572493695517,42.761462950226736,4.228786246847759,0.6716954893059223,B,1136,Incorrect
1,new_learn,2,608,A,57.86462776146414,62.63094955945303,2.8932313880732075,0.9838046551166526,107,864,Incorrect
1,new_learn,2,609,B,25.73929923233925,45.86556754842237,1.2869649616169625,0.7204546503142506,A,1314,Incorrect
1,new_learn,2,610,A,54.89691663884124,58.465129252536904,2.744845831942062,0.9183681027547382,A,656,Correct
1,new_learn,2,611,B,39.58883285655258,41.17295982592605,1.979441642827629,0.6467433405783849,A,1014,Incorrect
1,new_learn,2,612,B,53.284266659164246,23.692042397754975,2.6642133329582123,0.3721537317266247,A,702,Incorrect
1,new_learn,2,613,B,56.51170722961283,35.789371644405264,2.8255853614806417,0.5621781351732922,A,422,Incorrect
1,new_learn,2,614,B,43.61019802784818,46.097121158830035,2.180509901392409,0.7240918859210952,A,1470,Incorrect
1,new_learn,2,615,A,44.608842989091144,63.705829402855855,2.230442149454557,1.000688828214283,A,499,Correct
1,new_learn,2,616,B,25.218625639483072,60.416722071472655,1.2609312819741536,0.9490236510685739,A,889,Incorrect
1,new_learn,2,617,B,30.247202944778984,40.339954661002345,1.5123601472389492,0.6336585260457515,A,1788,Incorrect
1,new_learn,2,618,B,39.85749336714872,47.61847065810772,1.992874668357436,0.7479891879734617,A,834,Incorrect
1,new_learn,2,619,B,16.322363149130666,60.67328712948387,0.8161181574565333,0.9530537655756532,B,270,Correct
1,new_learn,2,620,A,40.666935594319106,81.23898468913468,2.0333467797159552,1.276098987422396,B,1349,Incorrect
1,new_learn,2,621,B,21.14471731322699,50.628962199284075,1.0572358656613496,0.795277878520731,B,677,Correct
1,new_learn,2,622,B,21.291671071820836,56.52597241503111,1.064583553591042,0.8879078983804053,B,462,Correct
1,new_learn,2,623,B,18.747978772253127,67.07095323534355,0.9373989386126564,1.0535480697670994,B,534,Correct
1,new_learn,2,624,B,22.19290911566936,63.95260286991404,1.1096454557834678,1.0045651367703372,B,649,Correct
1,new_learn,2,625,B,38.44601645983486,31.869965798715327,1.9223008229917429,0.5006122521170102,A,996,Incorrect
1,new_learn,2,626,A,48.884331365700646,70.71094641514449,2.4442165682850323,1.1107249489309972,A,927,Correct
1,new_learn,2,627,A,68.15693675629099,52.810828606819435,3.4078468378145494,0.8295505559058681,A,650,Correct
1,new_learn,2,628,B,16.351040499694925,55.80364405268982,0.8175520249847463,0.8765615909973505,B,725,Correct
1,new_learn,2,629,A,51.9826490292668,62.759170143787145,2.59913245146334,0.985818739345568,A,1523,Correct
1,new_learn,2,630,A,53.78551965242983,62.38183307626991,2.689275982621491,0.9798915425493715,A,446,Correct
1,new_learn,2,631,A,81.43474082574747,37.4445558341083,4.071737041287373,0.5881777076268372,A,489,Correct
1,new_learn,2,632,A,51.890827776083114,72.40469953159348,2.594541388804156,1.137330360669152,A,654,Correct
1,new_learn,2,633,A,77.30012574814727,43.745425033068386,3.865006287407363,0.6871515295602534,A,557,Correct
1,new_learn,2,634,A,64.85332606101305,46.91651415098893,3.2426663030506524,0.7369628809439419,A,824,Correct
1,new_learn,2,635,B,46.160401844922305,37.16347504068331,2.3080200922461156,0.5837625008483917,A,587,Incorrect
1,new_learn,2,636,A,47.939546266605355,66.98831167291888,2.3969773133302676,1.0522499391401268,A,1659,Correct
1,new_learn,2,637,A,78.61127050131014,48.99591413277398,3.9305635250655073,0.7696260194771953,A,598,Correct
1,new_learn,2,638,B,24.075342920037833,63.85338913805256,1.2037671460018915,1.0030066911145812,B,569,Correct
1,new_learn,2,639,A,64.05314276562427,52.971941675924135,3.2026571382812135,0.8320813140773513,A,508,Correct
1,new_learn,2,640,B,51.109234101946825,23.78772593517752,2.555461705097341,0.37365672521780546,A,432,Incorrect
1,new_learn,2,641,B,45.23763253254957,39.60020286334182,2.2618816266274786,0.6220385319807009,A,503,Incorrect
1,new_learn,2,642,B,42.493464780350656,34.88832882010425,2.124673239017533,0.5480245875863228,A,418,Incorrect
1,new_learn,2,643,A,57.5749936072962,52.62338365641033,2.87874968036481,0.8266061775100795,A,380,Correct
1,new_learn,2,644,A,73.36270159776433,43.29582169754261,3.6681350798882164,0.6800891768806671,A,493,Correct
1,new_learn,2,645,A,62.9098664016211,58.00726024292597,3.145493320081055,0.9111759131702376,A,767,Correct
1,new_learn,2,646,A,57.914701937179444,54.55221407026892,2.895735096858972,0.856904174801073,A,413,Correct
1,new_learn,2,647,B,17.87304957268492,54.55079847972302,0.893652478634246,0.8568819387567754,B,698,Correct
1,new_learn,2,648,A,72.83362949075342,58.140881687804786,3.641681474537671,0.9132748339182042,A,567,Correct
1,new_learn,2,649,A,57.27316915682978,54.840014364416405,2.863658457841489,0.8614249312500465,A,480,Correct
1,new_learn,2,650,B,19.842183729959995,60.575256937433366,0.9921091864979998,0.9515139109197741,B,536,Correct
1,new_learn,2,651,B,13.622268015196525,64.47766935400163,0.6811134007598263,1.0128128618156162,B,502,Correct
1,new_learn,2,652,B,26.93215956319261,53.940214498868386,1.3466079781596303,0.8472909080135129,B,644,Correct
1,new_learn,2,653,B,45.341158197064274,22.805071205982458,2.2670579098532135,0.35822122082653307,A,585,Incorrect
1,new_learn,2,654,A,73.97834538102636,39.75732012536599,3.698917269051318,0.6245065241613372,A,366,Correct
1,new_learn,2,655,B,31.349218209162668,52.40437546297774,1.5674609104581334,0.8231660048522605,B,1055,Correct
1,new_learn,2,656,A,72.14169913999038,60.50904410447874,3.6070849569995187,0.9504738421718559,A,507,Correct
1,new_learn,2,657,A,44.90764417165647,67.62527356531257,2.2453822085828237,1.0622553131489298,A,515,Correct
1,new_learn,2,658,B,54.13457868986133,26.438638862370638,2.706728934493066,0.4152971681046861,A,409,Incorrect
1,new_learn,2,659,B,28.589799559940353,55.077417815289465,1.4294899779970178,0.8651540559360448,B,776,Correct
1,new_learn,2,660,A,39.62779669603728,80.25939982441297,1.981389834801864,1.2607117043495084,B,803,Incorrect
1,new_learn,2,661,A,71.3824482102069,52.29337913088692,3.5691224105103454,0.8214224785449008,A,419,Correct
1,new_learn,2,662,A,68.52614213420193,51.2538149437589,3.4263071067100963,0.8050930424788185,A,336,Correct
1,new_learn,2,663,A,80.1921791433817,36.43639605970159,4.0096089571690845,0.572341570922233,A,411,Correct
1,new_learn,2,664,B,36.22658881891026,33.56746131795701,1.811329440945513,0.5272764493807666,A,579,Incorrect
1,new_learn,2,665,A,34.56999047601187,83.48993686056724,1.7284995238005934,1.3114568614491688,A,1094,Correct
1,new_learn,2,666,A,49.381387099175306,80.79113650274562,2.4690693549587652,1.2690642045609788,A,1334,Correct
1,new_learn,2,667,B,45.124694610276016,29.551909386163672,2.2562347305138006,0.46420030713561516,B,1288,Correct
1,new_learn,2,668,B,29.131387957675933,49.13395083219049,1.4565693978837968,0.7717942948812588,B,675,Correct
1,new_learn,2,669,A,59.337811700997655,53.286215054455134,2.966890585049883,0.8370179087634104,A,555,Correct
1,new_learn,2,670,A,51.69868333487829,56.01449422802139,2.5849341667439143,0.8798736178064993,A,329,Correct
1,new_learn,2,671,B,51.971408767938236,21.462109427445384,2.5985704383969117,0.3371260265390133,A,323,Incorrect
1,new_learn,2,672,A,48.02865434913815,79.28905237658327,2.4014327174569075,1.2454695222818517,A,431,Correct
1,new_learn,2,673,A,36.902493404155365,86.47196231203482,1.8451246702077682,1.3582984077049103,B,755,Incorrect
1,new_learn,2,674,B,39.24353584512558,48.956453157056615,1.9621767922562787,0.7690061679201093,A,478,Incorrect
1,new_learn,2,675,A,75.21251626950811,41.878773656908635,3.760625813475406,0.6578302383094697,A,542,Correct
1,new_learn,2,676,A,60.26379569864091,72.01433320017424,3.0131897849320457,1.1311985006741745,A,970,Correct
1,new_learn,2,677,A,46.36328438729889,64.37568319709945,2.3181642193649448,1.0112108670091577,A,685,Correct
1,new_learn,2,678,A,44.542351502578406,64.01892200439664,2.2271175751289203,1.0056068752987521,A,489,Correct
1,new_learn,2,679,B,34.97537878172381,33.132953616009544,1.7487689390861905,0.5204512183589348,A,855,Incorrect
1,new_learn,2,680,B,40.49934627692974,31.84845803863331,2.024967313846487,0.500274409011666,A,530,Incorrect
1,new_learn,2,681,A,81.50871154121282,43.61072944083117,4.075435577060642,0.6850357361450365,A,445,Correct
1,new_learn,2,682,A,68.51348682850846,52.84723646740793,3.425674341425423,0.8301224492426569,A,430,Correct
1,new_learn,2,683,B,34.512880748981225,37.326314074991586,1.7256440374490611,0.5863203704178942,B,867,Correct
1,new_learn,2,684,B,59.60425308002074,31.517643390576097,2.9802126540010367,0.49507798467148384,A,500,Incorrect
1,new_learn,2,685,A,63.71238663646907,67.34514677791401,3.1856193318234536,1.057855091862105,A,443,Correct
1,new_learn,2,686,B,36.32862559754103,43.60430218802339,1.8164312798770512,0.6849347770940181,B,750,Correct
1,new_learn,2,687,A,59.163253663774356,50.98370526859808,2.958162683188718,0.8008501696230748,A,454,Correct
1,new_learn,2,688,A,55.63483451886421,54.45564100351969,2.7817417259432102,0.8553872086159029,A,424,Correct
1,new_learn,2,689,B,39.49854388949326,31.281982082660008,1.974927194474663,0.4913762255030611,A,391,Incorrect
1,new_learn,2,690,A,72.63400336150129,55.715004419693,3.6317001680750645,0.875169242898152,A,366,Correct
1,new_learn,2,691,B,27.763199087479535,44.54498290615963,1.3881599543739767,0.69971095526137,B,536,Correct
1,new_learn,2,692,A,53.13086228704076,55.8956322229881,2.656543114352038,0.8780065377974815,A,469,Correct
1,new_learn,2,693,A,56.60516782637273,69.80637476932782,2.8302583913186363,1.0965159707452807,A,527,Correct
1,new_learn,2,694,B,50.53348396158987,31.693186237334473,2.5266741980794936,0.49783540526031556,A,466,Incorrect
1,new_learn,2,695,B,57.40930405095695,22.352596656921165,2.8704652025478476,0.3511137672301965,A,369,Incorrect
1,new_learn,2,696,A,69.2751831351021,46.415411744455156,3.463759156755105,0.7290915827486286,A,377,Correct
1,new_learn,2,697,A,71.74265557217956,60.49692334771272,3.5871327786089777,0.9502834497697955,A,351,Correct
1,new_learn,2,698,B,48.38130288119109,37.093803684762726,2.4190651440595543,0.5826681057487628,B,1270,Correct
1,new_learn,2,699,B,53.30293718695679,39.09524880667381,2.665146859347839,0.6141067322065578,B,573,Correct
1,new_learn,2,700,B,57.103629207580624,35.116161364991,2.8551814603790313,0.5516033728326473,B,625,Correct
1,new_learn,2,701,B,36.676966885278844,44.45851724384384,1.8338483442639422,0.6983527558137748,B,686,Correct
1,new_learn,2,702,B,50.78095296230039,42.46010427295367,2.5390476481150195,0.6669617582728391,A,1146,Incorrect
1,new_learn,2,703,B,52.5222950533244,25.204781325847605,2.62611475266622,0.39591577924310023,A,851,Incorrect
1,new_learn,2,704,A,82.50970602833638,38.98809432694311,4.125485301416819,0.6124235535749519,B,410,Incorrect
1,new_learn,2,705,B,36.61758518325698,45.98851331338774,1.8308792591628489,0.7223858778742767,B,622,Correct
1,new_learn,2,706,A,41.245065186678914,71.18649672143329,2.0622532593339455,1.1181948756742435,B,781,Incorrect
1,new_learn,2,707,B,53.39598489987438,39.45655938840815,2.6697992449937193,0.6197821855527621,A,820,Incorrect
1,new_learn,2,708,A,78.08222838080377,40.10855568881578,3.9041114190401887,0.6300237194904037,A,848,Correct
1,new_learn,2,709,B,46.53815885283504,34.14956886480334,2.326907942641752,0.5364201733446247,A,1093,Incorrect
1,new_learn,2,710,A,77.79167554037454,52.96150097075903,3.8895837770187267,0.8319173118641264,A,437,Correct
1,new_learn,2,711,A,60.36750374888753,65.42832380519732,3.0183751874443767,1.0277457070155105,A,511,Correct
1,new_learn,2,712,B,31.16047445555732,40.81074407280531,1.5580237227778662,0.6410536688332918,B,557,Correct
1,new_learn,2,713,B,49.87570702874879,21.371464780354017,2.4937853514374395,0.33570218375206595,A,575,Incorrect
1,new_learn,2,714,B,43.020776601158516,44.2448883909565,2.1510388300579257,0.6949970816396462,B,556,Correct
1,new_learn,2,715,B,46.631500060623154,24.782676523529446,2.3315750030311575,0.3892853725130617,A,1167,Incorrect
1,new_learn,2,716,A,58.008062056932516,51.483306842139825,2.900403102846626,0.8086978927888779,B,1188,Incorrect
1,new_learn,2,717,A,46.503915676510005,61.11927186939279,2.3251957838255004,0.9600592774882085,B,1175,Incorrect
1,new_learn,2,718,B,26.813228053082646,59.26684008265409,1.3406614026541321,0.930961347025736,B,599,Correct
1,new_learn,2,719,A,51.424667043192436,62.765829978356905,2.571233352159622,0.9859233517823601,A,1402,Correct
1,new_learn,2,720,A,77.85561937115232,46.83191449429581,3.892780968557616,0.7356339926441254,A,1073,Correct
1,new_learn,2,721,B,53.097675245886926,34.83646688576317,2.654883762294346,0.5472099422266885,A,513,Incorrect
1,new_learn,2,722,A,38.96780485459607,80.35891478717606,1.9483902427298034,1.2622748817292027,B,809,Incorrect
1,new_learn,2,723,A,73.93941112733103,44.16504132917368,3.6969705563665514,0.6937428469261082,A,586,Correct
1,new_learn,2,724,A,62.18824670235639,61.46973919028481,3.1094123351178196,0.9655644052913968,A,467,Correct
1,new_learn,2,725,B,13.74539217442171,64.03171407262296,0.6872696087210854,1.0058078126365722,B,537,Correct
1,new_learn,2,726,B,14.007175521759294,66.80710445871316,0.7003587760879647,1.0494035428754958,B,357,Correct
1,new_learn,2,727,B,46.79624127117519,44.00662768323665,2.3398120635587594,0.6912544911945875,A,522,Incorrect
1,new_learn,2,728,B,37.83519120425029,38.285259979825746,1.8917595602125146,0.6013834574669794,B,656,Correct
1,new_learn,2,729,A,57.635429366675865,72.98855473017753,2.881771468333793,1.1465015366823113,A,651,Correct
1,new_learn,2,730,B,31.999528991948708,40.660467106175886,1.5999764495974353,0.638693123761458,B,742,Correct
1,new_learn,2,731,A,76.01969881251517,45.30808612819711,3.8009849406257588,0.7116977526427882,A,620,Correct
1,new_learn,2,732,A,36.55318062155931,76.28912392907121,1.8276590310779652,1.198346756421857,B,588,Incorrect
1,new_learn,2,733,B,34.03733950827843,57.070728004129805,1.7018669754139213,0.8964648991639774,B,798,Correct
1,new_learn,2,734,B,38.494916475243,45.60023652869676,1.9247458237621502,0.7162868404025532,B,546,Correct
1,new_learn,2,735,B,39.660750015078285,48.898442877373,1.9830375007539143,0.7680949445776758,B,442,Correct
1,new_learn,2,736,B,50.682128055224126,24.252968531874345,2.534106402761206,0.38096473883740434,A,526,Incorrect
1,new_learn,2,737,A,62.81433134786822,59.967924863594874,3.140716567393411,0.9419739610124719,A,585,Correct
1,new_learn,2,738,A,51.808920753818654,65.37904169563957,2.5904460376909326,1.0269715854488104,A,470,Correct
1,new_learn,2,739,B,36.505094926597046,31.395725004871295,1.8252547463298523,0.4931628951471452,B,845,Correct
1,new_learn,2,740,B,35.53064098153692,55.894512984757824,1.776532049076846,0.8779889568444724,B,403,Correct
1,new_learn,2,741,B,50.59422803320841,42.393233537564626,2.5297114016604207,0.6659113552176473,A,498,Incorrect
1,new_learn,2,742,A,40.241152178474145,74.1717326342877,2.0120576089237074,1.1650868517395228,A,359,Correct
1,new_learn,2,743,A,57.439197835401856,65.11315891517899,2.871959891770093,1.022795108499755,A,442,Correct
1,new_learn,2,744,B,41.62944071806836,46.126453229904335,2.0814720359034182,0.7245526330161032,A,398,Incorrect
1,new_learn,2,745,A,58.47891532014126,52.673553478585966,2.9239457660070634,0.8273942432339737,A,1027,Correct
1,new_learn,2,746,A,75.46879124131124,51.779122111110055,3.773439562065562,0.8133445481679609,A,542,Correct
1,new_learn,2,747,B,22.390992006466764,51.865363613963,1.119549600323338,0.8146992265269476,B,487,Correct
1,new_learn,2,748,A,44.269828501331496,71.05297974717129,2.2134914250665747,1.1160975959468884,A,519,Correct
1,new_learn,2,749,B,27.262363154739493,40.93173160193297,1.3631181577369746,0.642954136496709,A,448,Incorrect
1,new_learn,2,750,A,84.91033824653127,36.95514152144493,4.245516912326564,0.5804900055807126,A,455,Correct
1,new_learn,2,751,A,75.27426500695195,45.31488684875918,3.763713250347598,0.7118045781115728,A,441,Correct
1,new_learn,2,752,A,33.49602474797453,79.5800612659552,1.6748012373987264,1.2500406792267524,B,466,Incorrect
1,new_learn,2,753,B,43.49220206080304,26.416056749485037,2.174610103040152,0.4149424491049663,A,510,Incorrect
1,new_learn,2,754,A,60.99010445931438,67.84973643877322,3.0495052229657187,1.0657811677202682,A,568,Correct
1,new_learn,2,755,A,68.37289905956132,48.16617051108071,3.418644952978066,0.7565924371458225,A,458,Correct
1,new_learn,2,756,A,86.27321203261182,41.40425321269704,4.313660601630591,0.6503764886019031,A,409,Correct
1,new_learn,2,757,A,60.95550235297152,48.190116408642126,3.047775117648576,0.7569685784251353,A,345,Correct
1,new_learn,2,758,A,84.52521079889542,44.80480035906598,4.226260539944771,0.7037921582679951,A,406,Correct
1,new_learn,2,759,A,67.15853379630913,42.0063501134304,3.3579266898154567,0.6598342046023686,A,375,Correct
1,new_learn,2,760,B,52.52284226335816,35.537694141824346,2.6261421131679077,0.5582247942073819,A,456,Incorrect
1,new_learn,2,761,B,56.53133543657843,16.183824422317443,2.826566771828922,0.25421491956069775,A,601,Incorrect
1,new_learn,2,762,B,23.974120677208635,65.01928765412407,1.1987060338604316,1.0213205821791884,B,453,Correct
1,new_learn,2,763,A,52.18383427613246,78.8239863696864,2.609191713806623,1.2381642825283437,A,473,Correct
1,new_learn,2,764,A,46.46996886701452,71.75439339665542,2.323498443350726,1.1271153757886232,A,442,Correct
1,new_learn,2,765,A,35.71549755812982,74.36006989432664,1.7857748779064908,1.1680452465022009,A,401,Correct
1,new_learn,2,766,B,19.614145075095525,57.09718680132714,0.9807072537547762,0.8968805129784672,B,623,Correct
1,new_learn,2,767,B,26.764171415101654,42.77222828326961,1.3382085707550826,0.671864590761927,B,922,Correct
1,new_learn,2,768,B,21.933989844458477,63.53981998289932,1.0966994922229238,0.9980811583434721,B,399,Correct
1,new_learn,2,769,B,55.39488329403031,31.94288550787931,2.7697441647015153,0.5017576722300675,A,473,Incorrect
1,new_learn,2,770,A,69.77756827133899,46.543019689406336,3.4888784135669493,0.7310960436606201,A,429,Correct
1,new_learn,2,771,A,52.562789558387806,63.75865928145416,2.6281394779193903,1.0015186780067553,A,429,Correct
1,new_learn,2,772,B,35.49844053433584,52.33012670055261,1.774922026716792,0.8219997080193958,A,348,Incorrect
1,new_learn,2,773,B,25.686864733807568,47.54848102214479,1.2843432366903784,0.746889793342619,B,497,Correct
1,new_learn,2,774,A,63.11804551557877,53.92863867172256,3.1559022757789386,0.8471090753459101,A,531,Correct
1,new_learn,2,775,A,39.987948049451234,73.75038920039805,1.9993974024725616,1.1584684045567928,B,894,Incorrect
1,new_learn,2,776,A,42.81528183741254,73.84137747418838,2.1407640918706274,1.1598976450193053,B,876,Incorrect
1,new_learn,2,777,A,80.35430219648255,38.95770948331416,4.0177151098241275,0.6119462695673259,A,337,Correct
1,new_learn,2,778,A,80.13679518203291,45.25796969260081,4.006839759101646,0.710910525513321,A,353,Correct
1,new_learn,2,779,A,81.79169456114737,39.72330451817338,4.0895847280573685,0.6239722082530185,A,390,Correct
1,new_learn,2,780,B,52.00599487636681,19.8066211126515,2.6002997438183404,0.31112167689971226,A,817,Incorrect
1,new_learn,2,781,B,38.80714382614355,42.4732491519636,1.9403571913071775,0.6671682375494888,B,530,Correct
1,new_learn,2,782,B,63.01516082313138,18.032525880980202,3.1507580411565694,0.2832542541667761,A,588,Incorrect
1,new_learn,2,783,A,54.71679107065563,74.28720984540725,2.7358395535327817,1.1669007635300737,B,800,Incorrect
1,new_learn,2,784,B,53.100287882623306,22.07947720259284,2.6550143941311655,0.34682361687384494,A,1172,Incorrect
1,new_learn,2,785,B,47.89993983721375,35.307825269286624,2.3949969918606877,0.5546140224011146,A,774,Incorrect
1,new_learn,2,786,B,44.21239368292713,34.64489664731353,2.210619684146357,0.5442007639578892,A,742,Incorrect
1,new_learn,2,787,B,33.451317814623955,45.87451040248865,1.6725658907311978,0.7205951243374346,B,593,Correct
1,new_learn,2,788,B,38.413724846431336,43.7456609340326,1.9206862423215667,0.6871552350839342,B,622,Correct
1,new_learn,2,789,B,60.071020255352195,17.830826742259774,3.00355101276761,0.28008597150457865,A,1106,Incorrect
1,new_learn,2,790,B,22.82647889819527,65.32832116809809,1.1413239449097634,1.0261748692652577,B,1058,Correct
1,new_learn,2,791,A,32.72803003219172,88.73966207317093,1.636401501609586,1.3939193522555728,B,540,Incorrect
1,new_learn,2,792,B,31.494045769413198,47.61272445652807,1.5747022884706599,0.7478989268501183,B,464,Correct
1,new_learn,2,793,B,34.9348566197357,36.141054306062436,1.7467428309867847,0.5677023535045775,B,720,Correct
1,new_learn,2,794,B,15.016344062181368,63.2427290668806,0.7508172031090683,0.9934144651474087,B,464,Correct
1,new_learn,2,795,A,51.00432747513116,66.72891481779389,2.550216373756558,1.0481753428680018,A,769,Correct
1,new_learn,2,796,B,47.684326018706926,25.50979992312503,2.3842163009353463,0.40070700016517535,A,805,Incorrect
1,new_learn,2,797,B,26.639297698921318,46.79888965069357,1.331964884946066,0.7351152396138916,B,625,Correct
1,new_learn,2,798,A,52.5144519466531,77.20937011221824,2.6257225973326546,1.2128019496642009,B,575,Incorrect
1,new_learn,2,799,A,49.77339526631301,72.33053989775264,2.4886697633156505,1.1361654638648158,B,818,Incorrect
1,new_learn,2,800,B,40.16976573120954,28.334661909327025,2.008488286560477,0.4450798284814616,B,577,Correct
1,new_learn,2,801,B,51.387563785929956,25.78015587033923,2.569378189296498,0.4049537414532875,B,537,Correct
1,new_learn,2,802,A,61.63000598067225,70.3406379416229,3.0815002990336127,1.10490815703111,B,539,Incorrect
1,new_learn,2,803,B,16.716515981388667,66.297016549265,0.8358257990694333,1.0413911007304593,B,683,Correct
1,new_learn,2,804,A,66.26608220483433,66.62917061773692,3.3133041102417167,1.046608564637316,A,1463,Correct
1,new_learn,2,805,A,34.01142880188142,77.86393599692732,1.7005714400940712,1.2230838465376637,B,798,Incorrect
1,new_learn,2,806,B,30.487784194508237,42.03972773652844,1.524389209725412,0.6603584990799641,A,809,Incorrect
1,new_learn,2,807,B,55.28432875752088,18.37478129173742,2.764216437876044,0.2886303895872072,A,678,Incorrect
1,new_learn,2,808,B,34.24028498799207,35.91296101096725,1.7120142493996036,0.5641194724035569,A,585,Incorrect
1,new_learn,2,809,B,30.689813859575057,57.424647691020866,1.534490692978753,0.902024256605466,A,490,Incorrect
1,new_learn,2,810,B,33.04924970128345,55.68639982316701,1.6524624850641727,0.874719922946627,B,1467,Correct
1,new_learn,2,811,A,69.70505109229504,51.93508431456357,3.485252554614752,0.815794396730997,A,1036,Correct
1,new_learn,2,812,A,71.41390571361015,38.23807329461845,3.570695285680507,0.6006422507490069,A,592,Correct
1,new_learn,2,813,B,53.38889970672876,17.69530152571184,2.669444985336438,0.27795714638116287,A,677,Incorrect
1,new_learn,2,814,A,62.7684088515434,49.072281250442785,3.13842044257717,0.770825591356416,A,656,Correct
1,new_learn,2,815,A,35.40491980466042,89.48178162740433,1.7702459902330212,1.405576538953898,B,1408,Incorrect
1,new_learn,2,816,A,83.93275816530007,37.28639568297412,4.196637908265004,0.5856933337823683,A,743,Correct
1,new_learn,2,817,B,36.29275928170521,36.88918320317015,1.8146379640852603,0.5794539347400367,B,1201,Correct
1,new_learn,2,818,B,62.82681128930261,21.706817265135655,3.1413405644651307,0.34096988826483127,A,615,Incorrect
1,new_learn,2,819,A,80.8018755608967,33.72594292043782,4.040093778044835,0.5297658725711807,A,535,Correct
1,new_learn,2,820,B,59.814886704524355,21.66640133813027,2.990744335226218,0.3403350363679906,A,631,Incorrect
1,new_learn,2,821,B,34.80773733087751,54.30674207216539,1.7403868665438753,0.8530483096715527,B,696,Correct
1,new_learn,2,822,A,77.9769900423937,44.97721195076676,3.8988495021196847,0.7065003932173994,A,566,Correct
1,new_learn,2,823,B,26.785050225463323,52.31445045269814,1.3392525112731661,0.8217534660939184,B,502,Correct
1,new_learn,2,824,B,45.534854731751835,47.070892855215945,2.276742736587592,0.7393878559592935,A,546,Incorrect
1,new_learn,2,825,B,55.68999573843453,26.455629872894207,2.7844997869217263,0.4155640622738756,A,532,Incorrect
1,new_learn,2,826,B,33.12823228138643,46.865534393170016,1.6564116140693215,0.7361620927807135,B,596,Correct
1,new_learn,2,827,A,81.0582348714353,50.22026611494825,4.052911743571765,0.7888580954402291,A,460,Correct
1,new_learn,2,828,A,51.81654881979011,78.79499326987231,2.5908274409895053,1.23770885998144,A,454,Correct
1,new_learn,2,829,A,68.46662144987327,48.58827976036323,3.4233310724936636,0.7632229137286137,A,406,Correct
1,new_learn,2,830,A,74.74739569160855,43.49639590415828,3.737369784580427,0.6832397891506841,A,428,Correct
1,new_learn,2,831,B,47.94140751280431,40.24669371497764,2.3970703756402156,0.6321935865312612,A,658,Incorrect
1,new_learn,2,832,B,28.91467755536405,51.65084009864847,1.4457338777682025,0.8113294990282758,B,544,Correct
1,new_learn,2,833,B,13.47293841101962,68.74085451183194,0.6736469205509809,1.07977881767928,B,499,Correct
1,new_learn,2,834,B,21.153273530765023,63.554366780496665,1.0576636765382512,0.9983096589057976,B,667,Correct
1,new_learn,2,835,B,61.16537050027621,24.699367040876254,3.05826852501381,0.3879767502196735,A,674,Incorrect
1,new_learn,2,836,B,46.99625552485794,44.27154665247536,2.349812776242897,0.695415828632372,A,769,Incorrect
1,new_learn,2,837,A,59.874093788773436,66.45755759603917,2.993704689438672,1.043912873596186,A,451,Correct
1,new_learn,2,838,B,26.781806441357233,55.149321186731335,1.3390903220678616,0.8662835114534954,B,955,Correct
1,new_learn,2,839,A,41.56148734295198,79.49888728407929,2.078074367147599,1.2487656013011326,A,563,Correct
1,new_learn,2,840,B,49.22303355849398,33.632095126999076,2.4611516779246987,0.5282917148790669,B,1016,Correct
1,new_learn,2,841,A,68.7665148681032,56.293619250232105,3.43832574340516,0.8842581034025506,A,611,Correct
1,new_learn,2,842,B,35.36600342265528,40.20493799886494,1.7683001711327642,0.631537689276336,B,578,Correct
1,new_learn,2,843,B,44.439932264530455,27.732140400076403,2.2219966132265228,0.43561544274600367,A,1008,Incorrect
1,new_learn,2,844,A,44.00486024229704,78.24192126650556,2.200243012114852,1.2290212252680242,A,988,Correct
1,new_learn,2,845,B,14.769161290665238,69.43786310753015,0.7384580645332619,1.0907274030979521,B,530,Correct
1,new_learn,2,846,A,54.07079188269161,58.69286713974939,2.7035395941345803,0.9219454011217922,A,887,Correct
1,new_learn,2,847,A,55.745832558011934,57.73148936315611,2.7872916279005966,0.9068441143204424,A,619,Correct
1,new_learn,2,848,B,60.08109844080903,29.20827566395991,3.004054922040451,0.45880252124960996,A,517,Incorrect
1,new_learn,2,849,A,67.72510028161469,49.74608749701151,3.386255014080734,0.781409715127232,A,490,Correct
1,new_learn,2,850,A,54.66191086368695,75.04388754024363,2.7330955431843473,1.17878662896624,A,460,Correct
1,new_learn,2,851,B,30.57968462715696,58.60888536242503,1.5289842313578481,0.920626218448404,A,747,Incorrect
1,new_learn,2,852,A,85.70697207527077,40.54374466539588,4.285348603763539,0.6368596519491403,A,503,Correct
1,new_learn,2,853,A,59.390530933886694,68.66151300772188,2.9695265466943344,1.0785325242470956,A,386,Correct
1,new_learn,2,854,B,32.61720156014747,45.128830395476996,1.6308600780073734,0.7088820101776515,A,356,Incorrect
1,new_learn,2,855,B,12.741601870360903,68.6135633190397,0.6370800935180452,1.0777793322985663,B,501,Correct
1,new_learn,2,856,A,57.903856339732556,72.52493509855302,2.895192816986628,1.1392190165384535,A,533,Correct
1,new_learn,2,857,A,64.53339792802676,45.406760936801774,3.2266698964013383,0.7132477329118223,A,393,Correct
1,new_learn,2,858,A,68.84105085493816,44.88808903353041,3.4420525427469078,0.7051004537071186,A,388,Correct
1,new_learn,2,859,A,65.29738474601035,60.75266396303272,3.264869237300518,0.9543006139613646,A,345,Correct
1,new_learn,2,860,A,45.92251763348517,82.72635880635156,2.2961258816742585,1.2994626054213367,A,339,Correct
1,new_learn,2,861,A,37.71310136434179,80.95374899568566,1.8856550682170894,1.2716185156269908,A,446,Correct
1,new_learn,2,862,B,42.86093732837317,44.965446577076136,2.143046866418658,0.7063155831596335,A,790,Incorrect
1,new_learn,2,863,A,66.98952382822947,44.2622539004174,3.3494761914114735,0.6952698584243873,A,486,Correct
1,new_learn,2,864,A,71.87695140660676,44.948595028462385,3.593847570330338,0.7060508796530006,A,415,Correct
1,new_learn,2,865,A,71.82657117312422,54.161758417982114,3.591328558656211,0.8507709117571888,A,366,Correct
1,new_learn,2,866,A,44.10574190213438,77.43903735058592,2.205287095106719,1.2164095542083315,A,562,Correct
1,new_learn,2,867,B,34.58516414846126,45.40083216779512,1.7292582074230631,0.7131546040260416,A,417,Incorrect
1,new_learn,2,868,B,30.752273194942262,51.03180846866543,1.537613659747113,0.8016057729228034,B,774,Correct
1,new_learn,2,869,A,72.41262634296902,53.891777047120655,3.620631317148451,0.8465300543006664,A,493,Correct
1,new_learn,2,870,A,70.63501926438414,55.710158500488255,3.5317509632192072,0.8750931233772843,A,375,Correct
1,new_learn,2,871,A,79.53659001067518,34.925252110728565,3.9768295005337593,0.5486045772791814,A,455,Correct
1,new_learn,2,872,A,42.45263084875167,84.21626917957312,2.122631542437583,1.322866062836437,B,804,Incorrect
1,new_learn,2,873,A,47.22858312958778,70.77535655406038,2.3614291564793892,1.1117367010271715,A,567,Correct
1,new_learn,2,874,B,43.51829062067728,31.270303756309488,2.1759145310338637,0.4911927827817159,A,602,Incorrect
1,new_learn,2,875,B,25.258688964048154,48.542163601311,1.2629344482024079,0.7624985227961625,B,613,Correct
1,new_learn,2,876,B,51.82672773171152,30.958998836222136,2.591336386585576,0.48630281653185203,A,485,Incorrect
1,new_learn,2,877,B,18.250215655679565,54.83759725009445,0.9125107827839782,0.8613869633070628,B,543,Correct
1,new_learn,2,878,B,42.94585134720814,39.229689567844176,2.147292567360407,0.6162185227447371,A,548,Incorrect
1,new_learn,2,879,B,52.755800347697594,30.208522239497924,2.6377900173848796,0.4745143577170528,A,514,Incorrect
1,new_learn,2,880,A,80.38178466350317,34.210462018970716,4.019089233175158,0.5373766807735553,A,334,Correct
1,new_learn,2,881,A,64.30383894571615,67.09976828897332,3.215191947285808,1.05400069557108,A,420,Correct
1,new_learn,2,882,A,48.54982066869037,81.26751629413971,2.4274910334345186,1.2765471608257906,A,385,Correct
1,new_learn,2,883,A,51.69693199179484,67.72415591328561,2.584846599589742,1.0638085534387391,A,325,Correct
1,new_learn,2,884,A,83.87197325056793,34.18573197172479,4.193598662528396,0.5369882220998016,A,570,Correct
1,new_learn,2,885,A,49.84010391191178,78.64148134475487,2.4920051955955893,1.2352975003005033,B,689,Incorrect
1,new_learn,2,886,A,71.5039203589674,57.27240376833895,3.5751960179483704,0.8996328146602101,A,733,Correct
1,new_learn,2,887,A,76.2823640132967,45.03786681319616,3.814118200664835,0.707453157568463,A,371,Correct
1,new_learn,2,888,B,52.40536009784458,27.4142095995294,2.6202680048922287,0.43062139740926175,A,465,Incorrect
1,new_learn,2,889,A,32.416534914068734,81.83759764685031,1.6208267457034367,1.2855019777739114,B,692,Incorrect
1,new_learn,2,890,B,29.87809681750833,58.806679893825816,1.4939048408754163,0.9237331676822488,B,723,Correct
1,new_learn,2,891,B,63.24843358285479,18.971932350908588,3.162421679142739,0.29801041649008475,A,446,Incorrect
1,new_learn,2,892,B,57.97033893672015,17.442262885565242,2.8985169468360072,0.27398242471636836,A,483,Incorrect
1,new_learn,2,893,B,61.17765838177402,12.46364164593433,3.058882919088701,0.19577842515921545,A,397,Incorrect
1,new_learn,2,894,A,59.994917918053325,50.512736743145865,2.9997458959026666,0.7934522133249113,A,417,Correct
1,new_learn,2,895,B,14.755706539415371,57.71268241246749,0.7377853269707686,0.9065486954298436,B,571,Correct
1,new_learn,2,896,B,50.905278244384654,22.816879293266567,2.5452639122192324,0.35840670182785667,A,460,Incorrect
1,new_learn,2,897,A,79.35801618959681,43.478601045820284,3.9679008094798407,0.6829602681695526,A,532,Correct
1,new_learn,2,898,B,31.053256433335168,43.540181020994666,1.5526628216667584,0.6839275641576329,A,621,Incorrect
