experiment,condition,subject,trial,cat,x,y,xt,yt,resp,rt,fb
2,new_learn,44,0,A,49.51481121857789,56.351573498274846,2.4757405609288945,0.8851684466020276,A,3628,Correct
2,new_learn,44,1,B,38.655434929959014,29.385737448334588,1.9327717464979508,0.461590084440032,A,1434,Incorrect
2,new_learn,44,2,B,47.10491118203367,35.59521454726522,2.3552455591016837,0.5591283226232048,A,4064,Incorrect
2,new_learn,44,3,A,60.9655363209106,70.97049435356094,3.04827681604553,1.1148019184139146,A,3706,Correct
2,new_learn,44,4,A,43.05303190007846,66.23564148082617,2.1526515950039227,1.0404270234098543,B,1674,Incorrect
2,new_learn,44,5,A,29.482436832655637,58.059270850415984,1.474121841632782,0.9119928938822344,B,12694,Incorrect
2,new_learn,44,6,B,85.75478837771264,67.94322081619885,4.287739418885632,1.0672496168869972,A,774,Incorrect
2,new_learn,44,7,A,65.45103111781273,80.36323305805847,3.272551555890636,1.2623427129696043,A,3617,Correct
2,new_learn,44,8,B,62.33206130531719,54.151445566235736,3.1166030652658594,0.8506089178607689,A,849,Incorrect
2,new_learn,44,9,B,66.84447569336375,44.32923754678739,3.342223784668187,0.6963220350811204,A,15427,Incorrect
2,new_learn,44,10,B,71.04786299917184,39.31480306260632,3.552393149958592,0.6175554823940677,B,7731,Correct
2,new_learn,44,11,B,68.18492805221626,55.418948728649184,3.409246402610813,0.8705188109779686,B,1178,Correct
2,new_learn,44,12,B,84.58238453068603,61.4407085585898,4.229119226534301,0.9651083931950861,A,3432,Incorrect
2,new_learn,44,13,B,59.230607204574525,49.64029331430924,2.9615303602287266,0.7797479039913822,A,1167,Incorrect
2,new_learn,44,14,A,21.52244667719076,45.035878658889644,1.076122333859538,0.7074219277136452,A,1053,Correct
2,new_learn,44,15,B,43.42245670321931,23.181698876896107,2.1711228351609657,0.36413727444693783,B,934,Correct
2,new_learn,44,16,A,40.72054861727081,56.71789948970224,2.0360274308635407,0.8909226818194641,A,4925,Correct
2,new_learn,44,17,A,49.183824101097976,72.20934649270943,2.4591912050548985,1.134261762310079,A,893,Correct
2,new_learn,44,18,B,62.27059445857524,33.607262771454515,3.113529722928762,0.5279016491503162,A,719,Incorrect
2,new_learn,44,19,A,34.80845073454056,65.9013408600876,1.7404225367270276,1.0351758415388403,A,711,Correct
2,new_learn,44,20,A,16.016247010577704,33.08501741642648,0.8008123505288851,0.5196982382966789,A,770,Correct
2,new_learn,44,21,B,73.77981488033234,43.859790317391926,3.6889907440166168,0.688947975245536,B,868,Correct
2,new_learn,44,22,B,77.81360634263982,58.9019849739595,3.8906803171319906,0.9252302163802377,B,834,Correct
2,new_learn,44,23,A,22.078568590133152,35.538872352646905,1.1039284295066576,0.5582433014997047,A,728,Correct
2,new_learn,44,24,A,21.34266124246944,48.62972142040298,1.0671330621234718,0.7638738778022811,A,675,Correct
2,new_learn,44,25,A,37.02940830651964,63.90408589758678,1.8514704153259822,1.0038030339511488,A,733,Correct
2,new_learn,44,26,A,16.328325044540378,36.84555224252968,0.8164162522270189,0.5787685812129508,A,661,Correct
2,new_learn,44,27,B,76.50758855474687,45.555877464213424,3.8253794277373436,0.7155900498470485,B,814,Correct
2,new_learn,44,28,A,41.029021351236246,51.0068108034786,2.0514510675618123,0.8012131105162644,A,3124,Correct
2,new_learn,44,29,A,48.51706068304816,67.69015371617627,2.425853034152408,1.063274448175516,A,2292,Correct
2,new_learn,44,30,A,50.10557649598205,62.98522308042427,2.5052788247991025,0.9893695705708759,B,723,Incorrect
2,new_learn,44,31,B,39.62704743533643,18.370893077183567,1.9813523717668216,0.2885693136558174,A,1641,Incorrect
2,new_learn,44,32,B,52.250897931574,43.10941487645586,2.6125448965787,0.6771611053821414,B,1775,Correct
2,new_learn,44,33,A,21.190846430606165,44.967141282365205,1.0595423215303084,0.7063422035280642,A,594,Correct
2,new_learn,44,34,A,56.61681725840599,82.37596123634381,2.8308408629202995,1.2939585732624765,B,669,Incorrect
2,new_learn,44,35,B,41.891008154864835,18.29168412952419,2.0945504077432417,0.287325102415491,A,4020,Incorrect
2,new_learn,44,36,B,85.25843835149928,66.86440795404391,4.262921917574964,1.0503036640752763,B,1029,Correct
2,new_learn,44,37,A,12.372908323263509,33.559384729851445,0.6186454161631755,0.5271495826314739,A,606,Correct
2,new_learn,44,38,A,38.20873600961132,68.59417293650758,1.910436800480566,1.077474748882,A,1418,Correct
2,new_learn,44,39,A,56.881158914244764,77.21458427289885,2.8440579457122386,1.212883853508645,B,909,Incorrect
2,new_learn,44,40,B,59.86872121183298,33.43403505015038,2.9934360605916486,0.5251805944670803,B,1014,Correct
2,new_learn,44,41,B,80.08550444893194,55.387731786275275,4.004275222446597,0.8700284563938213,B,721,Correct
2,new_learn,44,42,B,54.59121493885925,35.69564375185705,2.729560746942963,0.5607058608799624,B,781,Correct
2,new_learn,44,43,A,46.29898490115821,70.34810452971347,2.3149492450579103,1.1050254419225733,A,1511,Correct
2,new_learn,44,44,B,58.03291315947369,35.63871313118221,2.9016456579736842,0.5598115967815805,A,1175,Incorrect
2,new_learn,44,45,A,66.0154943759742,83.45128371549683,3.30077471879871,1.310849699266212,B,719,Incorrect
2,new_learn,44,46,A,31.377322951287496,62.04459288266848,1.568866147564375,0.9745941859758044,A,875,Correct
2,new_learn,44,47,A,42.73237604422974,73.10085372606619,2.136618802211487,1.148265525184758,A,973,Correct
2,new_learn,44,48,A,62.759097847309356,83.46272774727024,3.1379548923654674,1.3110294616969458,B,652,Incorrect
2,new_learn,44,49,B,40.08439126570735,30.57299489763382,2.0042195632853677,0.4802394808432232,A,1942,Incorrect
2,new_learn,44,50,A,48.54679170314637,65.13454619144859,2.4273395851573185,1.0231310590497995,A,6925,Correct
2,new_learn,44,51,A,55.37587085939466,81.42205761338035,2.7687935429697332,1.2789746901918029,B,1292,Incorrect
2,new_learn,44,52,A,28.551046191809142,58.60637857242588,1.4275523095904572,0.9205868418831772,A,2833,Correct
2,new_learn,44,53,B,63.231777189405626,47.09777858722896,3.1615888594702812,0.7398101760501857,B,955,Correct
2,new_learn,44,54,B,57.153838111176164,48.6399466482957,2.857691905558808,0.7640344953064262,B,5466,Correct
2,new_learn,44,55,B,42.378599708315406,26.261964254373787,2.11892998541577,0.41252196985189216,A,791,Incorrect
2,new_learn,44,56,B,33.970080804887914,22.978070406759468,1.6985040402443956,0.3609386859177229,A,1038,Incorrect
2,new_learn,44,57,B,48.465758484416256,23.882354275323802,2.423287924220813,0.37514314370893026,A,6970,Incorrect
2,new_learn,44,58,B,73.39279106883569,42.79807173069223,3.6696395534417845,0.6722705386847585,B,2276,Correct
2,new_learn,44,59,A,35.205636956526135,66.65599411771225,1.7602818478263067,1.0470299071896465,B,3777,Incorrect
2,new_learn,44,60,B,85.30771521792965,62.78343796667902,4.265385760896482,0.9861999374161466,B,1013,Correct
2,new_learn,44,61,B,58.98452946295158,37.32109689269186,2.9492264731475792,0.586238419109968,B,1960,Correct
2,new_learn,44,62,B,71.48261663953409,47.71217237311684,3.5741308319767042,0.7494610510709688,B,894,Correct
2,new_learn,44,63,B,62.50823500918496,49.37133399490987,3.125411750459248,0.7755231008816842,B,764,Correct
2,new_learn,44,64,B,46.320052304858436,32.14836137189197,2.316002615242922,0.5049852795544285,B,1916,Correct
2,new_learn,44,65,B,54.24275246392371,44.70499715949312,2.712137623196185,0.7022244532750807,B,838,Correct
2,new_learn,44,66,B,38.92574399422619,28.102798145059737,1.9462871997113096,0.44143772098918266,B,1460,Correct
2,new_learn,44,67,A,25.879382625146892,56.53318362432159,1.2939691312573447,0.8880211717910574,A,948,Correct
2,new_learn,44,68,B,70.87342443802277,53.570807843863015,3.543671221901138,0.8414882818457526,B,1034,Correct
2,new_learn,44,69,A,40.40519108825568,66.97758258334373,2.0202595544127835,1.0520814069951818,B,2270,Incorrect
2,new_learn,44,70,B,56.06464585016485,24.819086351310364,2.803232292508243,0.3898572967504367,B,1654,Correct
2,new_learn,44,71,B,58.195277548467836,46.99474217814111,2.9097638774233916,0.7381916839209726,B,3500,Correct
2,new_learn,44,72,A,27.856326046105856,60.90158890638932,1.3928163023052929,0.9566399215012918,A,1093,Correct
2,new_learn,44,73,A,41.35685885349277,64.87377953449419,2.0678429426746385,1.019034945980854,B,1278,Incorrect
2,new_learn,44,74,B,59.38719514634167,51.12389858607512,2.9693597573170836,0.8030523211044159,B,606,Correct
2,new_learn,44,75,B,73.01382664302605,55.93710155687697,3.6506913321513026,0.8786579365709544,B,900,Correct
2,new_learn,44,76,A,16.22735424048189,43.932978728409935,0.8113677120240945,0.6900976161174465,A,1337,Correct
2,new_learn,44,77,B,54.91999116618284,42.85290520660547,2.7459995583091423,0.6731318609102578,A,1526,Incorrect
2,new_learn,44,78,A,49.84856656577698,65.16806605860607,2.492428328288849,1.023657587891856,B,1441,Incorrect
2,new_learn,44,79,B,48.06133717500472,31.390843582019855,2.4030668587502357,0.4930862179362994,A,1961,Incorrect
2,new_learn,44,80,A,34.060373997616395,44.30826838378975,1.7030186998808199,0.6959926522389939,A,1482,Correct
2,new_learn,44,81,B,74.44289774004484,47.12745427740263,3.722144887002242,0.7402763207013849,B,1186,Correct
2,new_learn,44,82,B,65.60190733952447,44.740516923430185,3.280095366976224,0.7027823964222903,B,849,Correct
2,new_learn,44,83,A,21.938988428410312,45.26880827419232,1.0969494214205155,0.7110807775548371,A,1194,Correct
2,new_learn,44,84,A,27.413328007332346,48.61919955025356,1.3706664003666174,0.7637086006524637,B,898,Incorrect
2,new_learn,44,85,A,65.3927926300693,86.2419676809644,3.2696396315034644,1.3546856604882305,B,1172,Incorrect
2,new_learn,44,86,B,60.27530657836488,50.24858694329829,3.0137653289182436,0.7893029579716696,B,6056,Correct
2,new_learn,44,87,B,75.46799041529152,54.4751529001667,3.7733995207645763,0.855693700771722,B,1058,Correct
2,new_learn,44,88,A,21.10587578745129,45.210114618864175,1.0552937893725645,0.7101588197728811,B,984,Incorrect
2,new_learn,44,89,A,27.141546590605177,38.373315179230886,1.357077329530259,0.6027666253047872,B,1208,Incorrect
2,new_learn,44,90,B,69.90200091514518,51.48973934210249,3.495100045757259,0.8087989342620128,B,1103,Correct
2,new_learn,44,91,A,56.16457290066591,74.04131147101286,2.8082286450332954,1.1630382008974383,B,1476,Incorrect
2,new_learn,44,92,A,13.828308540594133,40.89498553412223,0.6914154270297067,0.6423769306132964,A,1337,Correct
2,new_learn,44,93,A,36.12617782137311,50.25039097756161,1.8063088910686558,0.789331295675612,B,7255,Incorrect
2,new_learn,44,94,A,36.312864693895705,44.59337607489414,1.8156432346947853,0.7004711133782714,A,3179,Correct
2,new_learn,44,95,A,45.33242401951477,54.920640811914765,2.2666212009757385,0.862691408525776,B,886,Incorrect
2,new_learn,44,96,B,75.98657215444044,54.888591189436504,3.7993286077220216,0.8621879742331358,B,2620,Correct
2,new_learn,44,97,B,53.172155916534564,42.76503259320117,2.658607795826728,0.6717515611266444,B,754,Correct
2,new_learn,44,98,B,83.90290998512214,66.82638909674785,4.195145499256107,1.0497064652613806,B,609,Correct
2,new_learn,44,99,B,62.145127080048766,30.185271581036716,3.1072563540024385,0.47414913722798857,B,1281,Correct
2,new_learn,44,100,B,78.11969818744392,56.00640112856502,3.905984909372196,0.8797464916975147,B,564,Correct
2,new_learn,44,101,A,27.4812673339871,40.25986452802758,1.374063366699355,0.6324004731788588,A,924,Correct
2,new_learn,44,102,B,43.46397373259314,28.476372400958134,2.173198686629657,0.4473058116786861,B,3209,Correct
2,new_learn,44,103,A,42.62992148853075,67.08892427402739,2.1314960744265377,1.053830358182632,B,1036,Incorrect
2,new_learn,44,104,B,59.57019051477985,44.054395795873894,2.978509525738992,0.6920048309532725,B,820,Correct
2,new_learn,44,105,A,46.16129107247252,75.82331628883354,2.308064553623626,1.1910298671190738,B,6051,Incorrect
2,new_learn,44,106,A,39.547422951116346,66.7269665365027,1.9773711475558173,1.0481447393370442,A,6279,Correct
2,new_learn,44,107,B,79.77305774326919,56.27767928555468,3.9886528871634597,0.8840077190229054,B,545,Correct
2,new_learn,44,108,A,25.845306193267383,56.381617632473954,1.2922653096633692,0.8856403787584445,A,1959,Correct
2,new_learn,44,109,A,63.32278020891969,88.48426866123671,3.1661390104459843,1.389907641922034,B,2285,Incorrect
2,new_learn,44,110,A,55.325410660249176,82.13080247567828,2.766270533012459,1.2901076284551263,B,5511,Incorrect
2,new_learn,44,111,A,32.409429259199456,56.69403468312952,1.6204714629599726,0.8905478143144233,A,6616,Correct
2,new_learn,44,112,B,71.53283042599122,52.42407422495601,3.5766415212995613,0.8234754322818391,B,1125,Correct
2,new_learn,44,113,A,12.239733090627414,34.07008908936021,0.6119866545313707,0.535171707951419,A,1590,Correct
2,new_learn,44,114,A,61.34369749133987,77.753104521181,3.067184874566993,1.2213429097877078,B,498,Incorrect
2,new_learn,44,115,B,45.83733092293369,17.544225918049428,2.2918665461466845,0.2755840562853186,B,4698,Correct
2,new_learn,44,116,A,21.734761889615204,42.89733736963602,1.08673809448076,0.6738297996950571,A,1944,Correct
2,new_learn,44,117,B,54.039984921694575,28.718600437445296,2.701999246084729,0.4511107207782938,B,2044,Correct
2,new_learn,44,118,B,80.8918772125507,57.11451399894336,4.0445938606275345,0.8971526879621594,B,825,Correct
2,new_learn,44,119,B,39.26912332301218,27.126258496337122,1.9634561661506091,0.42609827205735207,B,1877,Correct
2,new_learn,44,120,B,83.21286417329976,63.86564753102391,4.160643208664988,1.0031992455010992,B,689,Correct
2,new_learn,44,121,B,71.20733092072734,39.890712775486556,3.5603665460363674,0.6266018510096454,B,603,Correct
2,new_learn,44,122,A,50.45061944288466,78.57513459484458,2.522530972144233,1.2342553279899646,B,1042,Incorrect
2,new_learn,44,123,A,18.093670136763482,32.722028772555404,0.904683506838174,0.5139964260120694,A,1819,Correct
2,new_learn,44,124,B,66.28614237932219,35.072765325838965,3.3143071189661093,0.5509217094436726,B,781,Correct
2,new_learn,44,125,A,23.18391790992773,55.09152278095402,1.1591958954963864,0.8653756162185995,A,1009,Correct
2,new_learn,44,126,A,35.000948054550875,44.13276984207497,1.7500474027275437,0.6932359275921596,A,1356,Correct
2,new_learn,44,127,B,52.99387738533797,22.49621885820081,2.649693869266898,0.35336977949235915,B,1118,Correct
2,new_learn,44,128,A,23.18360304079225,41.675211821817726,1.1591801520396126,0.6546326964811053,A,659,Correct
2,new_learn,44,129,A,26.80975887413649,55.798258822641536,1.3404879437068247,0.8764770000015625,A,1170,Correct
2,new_learn,44,130,B,59.56065283779058,41.91611978821363,2.978032641889529,0.6584168699682085,B,785,Correct
2,new_learn,44,131,A,26.681083870413914,46.94012313275597,1.3340541935206958,0.7373337299623322,A,694,Correct
2,new_learn,44,132,B,52.29158165663411,35.91534984470172,2.614579082831705,0.5641569961161113,B,1105,Correct
2,new_learn,44,133,B,39.50307022634966,24.424683922042313,1.9751535113174827,0.3836620378787044,B,709,Correct
2,new_learn,44,134,A,14.681163051130483,34.9555574370613,0.7340581525565242,0.5490806122320392,A,643,Correct
2,new_learn,44,135,A,50.92079504735187,77.11094291564103,2.5460397523675935,1.2112558588757987,B,755,Incorrect
2,new_learn,44,136,A,50.7790188223878,75.23170348916895,2.53895094111939,1.181736834993094,B,4654,Incorrect
2,new_learn,44,137,A,24.18690155249128,37.75498908881847,1.209345077624564,0.5930539817889746,A,2939,Correct
2,new_learn,44,138,A,66.22134381783479,85.39729286051808,3.3110671908917397,1.3414175394352983,B,686,Incorrect
2,new_learn,44,139,A,61.767637555657565,77.77301019984026,3.088381877782878,1.221655587456911,B,1304,Incorrect
2,new_learn,44,140,A,22.096868912159014,54.22752122520029,1.1048434456079506,0.8518039115173691,A,1261,Correct
2,new_learn,44,141,A,29.74743298468167,44.07308371491974,1.4873716492340836,0.6922983800991991,A,1656,Correct
2,new_learn,44,142,A,34.27286911625734,67.63109910680105,1.713643455812867,1.062346820540647,A,1770,Correct
2,new_learn,44,143,B,45.14820619498563,26.52592317803282,2.2574103097492815,0.41666822692897565,A,1303,Incorrect
2,new_learn,44,144,B,51.92267536556491,31.537677795019746,2.596133768278246,0.49539268436057987,B,869,Correct
2,new_learn,44,145,B,78.42077162936857,59.99490866326816,3.9210385814684288,0.9423978215465695,B,755,Correct
2,new_learn,44,146,A,26.653616307971316,50.95795921242155,1.3326808153985659,0.8004457515183593,A,1042,Correct
2,new_learn,44,147,A,54.066693755992425,70.49346120378624,2.703334687799621,1.10730869921966,B,1919,Incorrect
2,new_learn,44,148,A,43.99839147933344,61.25655478043179,2.199919573966672,0.9622157124121262,A,6219,Correct
2,new_learn,44,149,A,36.365635348378106,56.133225722209424,1.8182817674189053,0.8817386477559538,A,1701,Correct
2,new_learn,44,150,B,41.727725405954956,21.37434935454667,2.086386270297748,0.3357474945375278,A,744,Incorrect
2,new_learn,44,151,B,64.35922172795976,32.968092965066965,3.217961086397988,0.5178615933095986,B,769,Correct
2,new_learn,44,152,B,50.1127126115409,40.22937264547797,2.505635630577045,0.6319215078077989,B,1742,Correct
2,new_learn,44,153,A,43.15468824332349,69.85264314319328,2.1577344121661746,1.0972427526624273,B,1996,Incorrect
2,new_learn,44,154,B,65.03526081634296,52.52376013395167,3.2517630408171474,0.8250412948786751,B,7063,Correct
2,new_learn,44,155,B,82.13841695405819,63.64061273313354,4.106920847702909,0.9996644071618268,B,779,Correct
2,new_learn,44,156,A,53.40329589066321,65.17026929897696,2.6701647945331604,1.0236921963106722,B,1328,Incorrect
2,new_learn,44,157,A,43.66076456820819,51.54409860088163,2.183038228410409,0.8096528075021884,A,907,Correct
2,new_learn,44,158,A,47.1967618205239,55.488477128306165,2.3598380910261954,0.8716109605258595,A,885,Correct
2,new_learn,44,159,B,63.20613959758335,41.93526389659335,3.160306979879168,0.6587175849194348,B,638,Correct
2,new_learn,44,160,B,59.25978165587133,33.89505869631978,2.962989082793566,0.5324223369667652,B,625,Correct
2,new_learn,44,161,A,18.376155769212396,33.25209350052291,0.9188077884606198,0.5223226632886184,A,591,Correct
2,new_learn,44,162,B,41.281619944477725,14.03260650103784,2.0640809972238863,0.22042366747188424,A,1021,Incorrect
2,new_learn,44,163,A,21.39342314036306,39.77216595219792,1.069671157018153,0.6247397218638955,A,1459,Correct
2,new_learn,44,164,B,80.9386999150559,63.48434203964519,4.046934995752795,0.9972097128486551,B,598,Correct
2,new_learn,44,165,B,33.19598323163798,13.770987587251135,1.659799161581899,0.216314167183922,A,1808,Incorrect
2,new_learn,44,166,B,55.25072773700609,43.93971895395335,2.762536386850304,0.6902034913327003,B,2026,Correct
2,new_learn,44,167,A,38.398259146414844,52.206005226908985,1.919912957320742,0.8200500124706381,A,1112,Correct
2,new_learn,44,168,B,82.33119719747373,55.70496629835486,4.1165598598736866,0.8750115644568933,B,1002,Correct
2,new_learn,44,169,A,23.449825378628073,51.773104526615,1.1724912689314038,0.8132500241717507,A,871,Correct
2,new_learn,44,170,B,56.51898412206315,26.51215488577003,2.8259492061031573,0.4164519550998494,B,1291,Correct
2,new_learn,44,171,A,12.172072680998564,39.32450577103502,0.6086036340499282,0.6177078921816652,A,686,Correct
2,new_learn,44,172,B,82.18956638316226,59.40026949341613,4.1094783191581135,0.9330572513088501,B,643,Correct
2,new_learn,44,173,A,16.54372977051172,31.442333468525664,0.827186488525586,0.4938950191822035,A,569,Correct
2,new_learn,44,174,B,33.92510908455144,19.91195293804638,1.6962554542275716,0.31277622534396105,A,1229,Incorrect
2,new_learn,44,175,B,46.22759065498157,26.46008820717367,2.3113795327490783,0.41563409362497356,B,1901,Correct
2,new_learn,44,176,A,53.7206965266722,71.50543469104176,2.6860348263336102,1.1232047415856077,B,2249,Incorrect
2,new_learn,44,177,A,51.837558090373705,75.47059768451501,2.591877904518685,1.185489376238516,A,1881,Correct
2,new_learn,44,178,B,50.3891779828936,28.20574005827772,2.5194588991446802,0.44305472878074315,B,1369,Correct
2,new_learn,44,179,A,19.555837479415917,50.78916543403167,0.9777918739707958,0.7977943450475528,A,1040,Correct
2,new_learn,44,180,B,88.66331124322289,66.24047393307637,4.433165562161145,1.0405029313922947,B,960,Correct
2,new_learn,44,181,A,59.98843122087098,81.83916124910154,2.9994215610435493,1.2855265387806394,B,2378,Incorrect
2,new_learn,44,182,B,62.595853008952126,48.99891291701174,3.129792650447606,0.7696731242698505,B,1090,Correct
2,new_learn,44,183,A,37.865571657417824,65.29331783116014,1.8932785828708913,1.0256250381343808,A,1308,Correct
2,new_learn,44,184,A,27.261195709969726,47.59498812245817,1.3630597854984865,0.7476203251660402,A,1091,Correct
2,new_learn,44,185,B,65.15038968875427,45.54359412493196,3.2575194844377138,0.7153971036048076,A,942,Incorrect
2,new_learn,44,186,B,50.88424058202743,43.07400506282298,2.5442120291013715,0.6766048893302711,B,9801,Correct
2,new_learn,44,187,A,33.779367208450275,48.25743117489672,1.6889683604225139,0.7580259563008531,A,1714,Correct
2,new_learn,44,188,B,58.47017250607121,30.374824685189537,2.9235086253035605,0.4771266304253468,B,5627,Correct
2,new_learn,44,189,A,56.75571681836098,64.471469196582,2.8377858409180488,1.0127154699706133,B,1876,Incorrect
2,new_learn,44,190,A,26.351145380259787,55.4003580825694,1.3175572690129895,0.8702267897922197,A,1240,Correct
2,new_learn,44,191,B,49.52052909649417,23.078697172412134,2.4760264548247086,0.3625193274563675,B,1346,Correct
2,new_learn,44,192,B,40.10597369919248,30.83199840739369,2.005298684959624,0.4843078984608011,A,875,Incorrect
2,new_learn,44,193,A,57.33364245438971,74.25321703988443,2.8666821227194856,1.1663668057895469,B,620,Incorrect
2,new_learn,44,194,A,24.943728374740907,36.339413639635445,1.2471864187370454,0.5708181746301972,A,2238,Correct
2,new_learn,44,195,B,82.8801846554629,56.35114297174178,4.144009232773145,0.8851616839070604,B,922,Correct
2,new_learn,44,196,B,48.90555703560255,42.06316704025519,2.4452778517801277,0.6607266828019301,A,1660,Incorrect
2,new_learn,44,197,B,36.229290487143686,15.57417222637731,1.8114645243571843,0.24463852526064575,A,1560,Incorrect
2,new_learn,44,198,B,75.50546828942737,49.276238300519125,3.7752734144713687,0.7740293412072543,B,580,Correct
2,new_learn,44,199,A,53.67907503687575,76.65784259979269,2.6839537518437875,1.204138575757757,B,968,Incorrect
2,new_learn,44,200,A,57.72196415341938,71.69518498523658,2.886098207670969,1.1261853322369024,B,1392,Incorrect
2,new_learn,44,201,A,56.6658454735763,73.09443358463662,2.8332922736788144,1.1481646778390073,B,1242,Incorrect
2,new_learn,44,202,B,54.55883391960935,28.841070273235488,2.7279416959804674,0.4530344724603179,A,1296,Incorrect
2,new_learn,44,203,A,14.297329801853316,36.09240494421187,0.7148664900926659,0.5669381711156197,A,725,Correct
2,new_learn,44,204,A,67.16589526649207,83.74225831050788,3.3582947633246034,1.3154203175165518,B,645,Incorrect
2,new_learn,44,205,A,59.96890923937511,75.56128968353784,2.998445461968755,1.1869139628278635,B,5451,Incorrect
2,new_learn,44,206,B,35.671473244065744,16.84036903642678,1.7835736622032872,0.26452789824289696,B,1269,Correct
2,new_learn,44,207,A,56.49732051525984,67.48413444058667,2.824866025762992,1.0600383049620652,B,4039,Incorrect
2,new_learn,44,208,B,60.92964942444829,29.029751151097983,3.0464824712224146,0.45599826475914634,B,1800,Correct
2,new_learn,44,209,B,86.09522673050049,63.93340923399639,4.304761336525024,1.0042636438423644,A,1915,Incorrect
2,new_learn,44,210,B,86.66141740047766,68.23300882654908,4.333070870023883,1.0718015963090706,B,2962,Correct
2,new_learn,44,211,A,50.27627250088041,76.59761475785925,2.5138136250440204,1.2031925190289585,B,2968,Incorrect
2,new_learn,44,212,B,53.30526187169499,46.15310307500138,2.665263093584749,0.7249712478039841,B,925,Correct
2,new_learn,44,213,A,33.50130211624772,63.18732341745322,1.6750651058123862,0.9925441552413667,A,898,Correct
2,new_learn,44,214,A,32.02200572631527,46.1883110079428,1.6011002863157637,0.7255242927213684,A,2278,Correct
2,new_learn,44,215,A,44.705693647395876,72.45073577332673,2.235284682369794,1.1380534962632924,A,4286,Correct
2,new_learn,44,216,A,24.64017363780189,36.53711639212608,1.2320086818900946,0.5739236822042925,A,912,Correct
2,new_learn,44,217,B,61.15962688441386,28.147996604335155,3.057981344220693,0.44214769672724885,B,608,Correct
2,new_learn,44,218,A,47.02629875061349,77.3822236910686,2.3513149375306743,1.2155171273315157,A,870,Correct
2,new_learn,44,219,A,52.637176542649634,61.522959020519025,2.631858827132482,0.9664003804298423,A,1783,Correct
2,new_learn,44,220,B,81.61879936802531,56.6129639122351,4.080939968401265,0.8892743576231094,B,719,Correct
2,new_learn,44,221,A,27.326285484316337,44.3813554026138,1.366314274215817,0.6971407004460459,A,643,Correct
2,new_learn,44,222,B,46.966276477103406,20.55023894812939,2.3483138238551704,0.3228023985447906,A,892,Incorrect
2,new_learn,44,223,B,44.812161302029324,24.74321590993389,2.2406080651014664,0.388665526644172,B,1478,Correct
2,new_learn,44,224,B,69.72009440172073,37.18273470676409,3.486004720086037,0.5840650309757415,B,1208,Correct
2,new_learn,44,225,B,33.71036527310005,14.922017992074394,1.6855182636550026,0.23439451050317822,A,1996,Incorrect
2,new_learn,44,226,B,37.9947676264742,23.61668295317047,1.8997383813237099,0.3709699883391983,B,2195,Correct
2,new_learn,44,227,B,57.76414490272735,46.11973231064259,2.8882072451363676,0.7244470610632129,B,679,Correct
2,new_learn,44,228,A,19.8954960524057,35.966049821189955,0.9947748026202851,0.5649533894844743,A,758,Correct
2,new_learn,44,229,A,51.07714615591382,63.09612828107444,2.553857307795691,0.9911116653889132,B,807,Incorrect
2,new_learn,44,230,B,83.68097706669953,67.66895572175895,4.184048853334977,1.0629414708578544,B,689,Correct
2,new_learn,44,231,A,25.47948775045606,57.39955517539326,1.273974387522803,0.9016301042916873,A,708,Correct
2,new_learn,44,232,B,73.30398286825083,48.690313122229874,3.6651991434125417,0.7648256500289204,B,799,Correct
2,new_learn,44,233,B,54.71582448805212,42.976867959256005,2.735791224402606,0.6750790632754862,B,1323,Correct
2,new_learn,44,234,A,43.61922257965547,61.4551894209192,2.1809611289827733,0.9653358580486445,B,673,Incorrect
2,new_learn,44,235,A,31.085418680683674,63.08504355673588,1.5542709340341838,0.9909375469461679,A,1164,Correct
2,new_learn,44,236,B,62.4428122410797,35.093195867598155,3.1221406120539847,0.5512426316431702,B,698,Correct
2,new_learn,44,237,B,54.64895720045549,40.271923677860265,2.732447860022775,0.6325898978614732,B,729,Correct
2,new_learn,44,238,A,30.605811868628727,51.32688671283322,1.5302905934314364,0.806240851143362,B,1104,Incorrect
2,new_learn,44,239,A,34.67875598535795,43.89649293144579,1.7339377992678977,0.6895244985589319,A,1643,Correct
2,new_learn,44,240,B,55.62189503102026,40.50736552237656,2.781094751551013,0.6362882097068734,B,610,Correct
2,new_learn,44,241,B,30.81004483282742,15.63189630680743,1.540502241641371,0.24554525299571822,A,1710,Incorrect
2,new_learn,44,242,A,24.56241139641149,56.199922179596804,1.2281205698205746,0.8827863132586969,A,2538,Correct
2,new_learn,44,243,A,59.363254105990194,70.56920828948138,2.96816270529951,1.1084985316594131,B,602,Incorrect
2,new_learn,44,244,A,44.74114733483722,70.68580602046947,2.237057366741861,1.1103300445349003,B,1574,Incorrect
2,new_learn,44,245,A,23.064444836139074,49.87323411079146,1.1532222418069538,0.7834069294661316,A,926,Correct
2,new_learn,44,246,B,54.677190405844584,46.086632735956826,2.7338595202922296,0.7239271341598642,B,550,Correct
2,new_learn,44,247,B,41.13431060314004,30.031555796109743,2.0567155301570015,0.4717345753246517,B,737,Correct
2,new_learn,44,248,B,65.74338093469551,51.91790526622952,3.287169046734775,0.8155245488707874,B,794,Correct
2,new_learn,44,249,A,15.035506038647807,38.753392192969145,0.7517753019323904,0.6087368610755794,A,563,Correct
2,new_learn,44,250,A,63.686443479854205,84.260836299772,3.1843221739927103,1.3235661215234793,B,662,Incorrect
2,new_learn,44,251,B,68.06374057775507,38.2361616725584,3.4031870288877535,0.6006122230599056,B,1106,Correct
2,new_learn,44,252,B,87.86906958474088,60.892792960429134,4.393453479237044,0.956501755105242,B,912,Correct
2,new_learn,44,253,A,27.35376666719138,49.249477932654884,1.367688333359569,0.773608990331806,B,1010,Incorrect
2,new_learn,44,254,A,20.677864717591543,35.389879734419154,1.0338932358795772,0.5559029309253876,A,1222,Correct
2,new_learn,44,255,B,79.04774998516505,51.33707215455206,3.952387499258253,0.8064008436877494,B,676,Correct
2,new_learn,44,256,B,48.05397460413707,19.481865016046424,2.402698730206853,0.3060204200631972,B,1141,Correct
2,new_learn,44,257,B,62.2915491892323,35.17294837223493,3.1145774594616147,0.5524953810565316,B,2154,Correct
2,new_learn,44,258,B,74.17488709614192,43.65435592368608,3.7087443548070955,0.6857210193352314,B,974,Correct
2,new_learn,44,259,A,55.75462868818188,74.35537852388381,2.787731434409094,1.1679715546276084,A,1361,Correct
2,new_learn,44,260,A,16.570326972200455,35.54107541794652,0.8285163486100228,0.5582779071685079,A,732,Correct
2,new_learn,44,261,A,42.409426316595635,65.9303099158119,2.1204713158297817,1.035630886402065,A,1263,Correct
2,new_learn,44,262,B,70.11313300174379,37.69826215265306,3.5056566500871895,0.592162917159385,B,623,Correct
2,new_learn,44,263,B,77.30124860835785,57.76110009343846,3.865062430417893,0.907309238584055,B,553,Correct
2,new_learn,44,264,B,30.577373422411014,14.4799653668493,1.5288686711205508,0.22745076410364196,A,936,Incorrect
2,new_learn,44,265,A,30.757422156276988,58.48067162725451,1.5378711078138494,0.9186122418058991,B,2584,Incorrect
2,new_learn,44,266,A,19.95588309144261,40.98281482044948,0.9977941545721306,0.6437565498167749,A,651,Correct
2,new_learn,44,267,A,32.63580478628396,48.001702290933224,1.631790239314198,0.7540089763850008,A,1111,Correct
2,new_learn,44,268,A,60.50729272987728,80.9197343545748,3.025364636493864,1.271084214893849,B,599,Incorrect
2,new_learn,44,269,A,48.43852210689695,60.08693459630959,2.4219261053448475,0.943843361522483,B,1634,Incorrect
2,new_learn,44,270,B,35.205528533071586,19.549199309476464,1.760276426653579,0.30707810467106955,A,1291,Incorrect
2,new_learn,44,271,B,41.23883329358969,19.00128885166744,2.061941664679485,0.2984715473256803,B,2001,Correct
2,new_learn,44,272,B,61.45241525691735,53.48422762875514,3.072620762845867,0.840128283007107,B,779,Correct
2,new_learn,44,273,A,49.780940684725,74.63944437936247,2.48904703423625,1.1724336506511455,B,1061,Incorrect
2,new_learn,44,274,A,24.163931047052483,35.58845846183,1.2081965523526241,0.5590221982813532,A,767,Correct
2,new_learn,44,275,A,21.79138438406951,34.055134764839494,1.0895692192034756,0.5349368059711506,A,644,Correct
2,new_learn,44,276,B,44.02557841621668,21.837524434201477,2.201278920810834,0.34302303167537485,A,1821,Incorrect
2,new_learn,44,277,A,22.685467886695584,44.69233216716326,1.1342733943347794,0.7020255120407745,A,683,Correct
2,new_learn,44,278,A,61.95257857675447,88.3224712442584,3.0976289288377234,1.3873661340392898,B,1039,Incorrect
2,new_learn,44,279,A,44.19135878995938,57.25241490440972,2.209567939497969,0.8993188303198418,B,888,Incorrect
2,new_learn,44,280,A,23.1109621735876,41.1914442836686,1.15554810867938,0.6470336937616329,A,747,Correct
2,new_learn,44,281,A,15.303103830657044,39.90653395187561,0.7651551915328523,0.6268503694672204,A,595,Correct
2,new_learn,44,282,A,58.87467533993425,72.41208265514537,2.9437337669967127,1.137446334502708,B,898,Incorrect
2,new_learn,44,283,B,85.17195193851023,56.894310869027066,4.258597596925512,0.8936937452859469,B,931,Correct
2,new_learn,44,284,B,84.82104293175375,55.13783096819441,4.241052146587688,0.8661030235227767,B,1114,Correct
2,new_learn,44,285,A,28.344238857682946,51.17394879418322,1.4172119428841472,0.8038385079349313,A,853,Correct
2,new_learn,44,286,B,32.7914428905585,15.245474044896646,1.639572144527925,0.23947534629970588,A,1622,Incorrect
2,new_learn,44,287,B,77.02881419476817,62.58714196425966,3.8514407097384087,0.9831165270204979,B,1202,Correct
2,new_learn,44,288,A,50.12203417682067,57.86409259476783,2.5061017088410336,0.9089270410118109,B,1057,Incorrect
2,new_learn,44,289,A,51.906700049716946,75.94417047232825,2.5953350024858475,1.1929282401941868,B,1562,Incorrect
2,new_learn,44,290,A,49.82281576826588,70.37090573560891,2.4911407884132943,1.1053836024272439,B,733,Incorrect
2,new_learn,44,291,B,79.0413597553025,54.417055058894405,3.952067987765125,0.8547811020150697,B,605,Correct
2,new_learn,44,292,B,52.9708681957215,37.51251987153674,2.6485434097860754,0.5892452842303048,B,833,Correct
2,new_learn,44,293,A,64.27510992312315,83.13128984248183,3.213755496156158,1.3058232472629236,B,1012,Incorrect
2,new_learn,44,294,A,47.081966636991396,60.38853738807541,2.35409833184957,0.9485809270970514,B,866,Incorrect
2,new_learn,44,295,A,38.16017150476932,61.436713361577176,1.9080085752384661,0.9650456367871636,B,1814,Incorrect
2,new_learn,44,296,A,67.40279879875446,79.90620863105282,3.370139939937723,1.2551637900576444,B,696,Incorrect
2,new_learn,44,297,B,50.02046090033325,33.44318535541042,2.5010230450166624,0.5253243271259956,A,867,Incorrect
2,new_learn,44,298,A,32.12161084728204,51.47258324394761,1.6060805423641022,0.8085294469023745,A,1196,Correct
2,new_learn,44,299,A,65.44289938566087,81.82448294325641,3.2721449692830435,1.2852959724915884,B,2405,Incorrect
2,new_learn,44,300,B,54.99877360669569,27.108491061135414,2.7499386803347847,0.4258191818378379,B,8572,Incorrect
2,new_learn,44,301,B,32.87134100279117,18.33169678833499,1.6435670501395583,0.28795361979034406,A,928,Incorrect
2,new_learn,44,302,B,82.35391489825636,57.97705387660021,4.117695744912818,0.9107014326775342,B,1358,Correct
2,new_learn,44,303,B,67.27639374605081,36.56618537135188,3.3638196873025406,0.5743802966622081,B,893,Correct
2,new_learn,44,304,A,48.046556978059705,67.73542456384334,2.4023278489029853,1.0639855609877793,A,1569,Correct
2,new_learn,44,305,A,44.04505966530297,70.83203131604196,2.2022529832651485,1.112626946106598,A,1277,Incorrect
2,new_learn,44,306,B,71.26289247466809,53.26222133418203,3.563144623733405,0.8366410162866991,B,851,Correct
2,new_learn,44,307,A,45.82635477043817,73.84883030162733,2.291317738521909,1.1600147137589585,A,2489,Incorrect
2,new_learn,44,308,B,83.2668967580307,67.26620599116669,4.163344837901535,1.0566150928835352,B,705,Incorrect
2,new_learn,44,309,A,51.43435076324098,62.626412937817584,2.571717538162049,0.9837333940306424,A,991,Correct
2,new_learn,44,310,B,39.63192020132041,27.677881967503573,1.9815960100660206,0.4347631532801731,A,746,Correct
2,new_learn,44,311,A,20.92998706411223,38.564004527353575,1.0464993532056115,0.6057619665806875,A,785,Incorrect
2,new_learn,44,312,B,66.7066209429109,52.21919616076238,3.335331047145545,0.820257215175077,B,2742,Incorrect
2,new_learn,44,313,A,54.73090642060172,81.97008441419129,2.736545321030086,1.2875830750487927,B,2960,Incorrect
2,new_learn,44,314,A,31.794712876116833,40.797102208786924,1.5897356438058414,0.6408393829343846,A,779,Correct
2,new_learn,44,315,B,53.28142271093643,30.68192678460172,2.6640711355468216,0.4819505789224233,A,2030,Incorrect
2,new_learn,44,316,B,79.58686473604125,54.57347848920256,3.9793432368020625,0.8572381955125967,B,1308,Incorrect
2,new_learn,44,317,B,41.82450807605474,29.38315737130064,2.091225403802737,0.46154955668475434,A,1610,Correct
2,new_learn,44,318,B,82.87877265194703,66.6969951178192,4.143938632597352,1.0476739493932754,A,2303,Incorrect
2,new_learn,44,319,B,40.03264767411608,16.14566575229355,2.001632383705804,0.2536155245736087,B,2085,Incorrect
2,new_learn,44,320,B,64.3149338423623,47.376501778686645,3.2157466921181146,0.7441883497035285,B,2314,Incorrect
2,new_learn,44,321,B,62.55645279077765,54.98636233222972,3.1278226395388824,0.8637237597527971,B,3142,Incorrect
2,new_learn,44,322,B,47.471829867074945,23.71821316159919,2.3735914933537474,0.37256482112378375,B,1078,Incorrect
2,new_learn,44,323,A,22.091500518565184,39.40685882502232,1.1045750259282592,0.6190014909287012,A,1593,Incorrect
2,new_learn,44,324,B,51.2636148353002,24.850404685122122,2.56318074176501,0.3903492439875651,B,2067,Correct
2,new_learn,44,325,A,23.055927076297493,41.12651473592456,1.1527963538148747,0.6460137828106648,A,1204,Incorrect
2,new_learn,44,326,B,62.87898558742082,37.27126311443357,3.143949279371041,0.5854556319515838,B,834,Correct
2,new_learn,44,327,B,36.95038183077,21.24780737124653,1.8475190915385,0.3337597777119958,B,2262,Incorrect
2,new_learn,44,328,A,53.029604132632954,70.87212341868856,2.6514802066316476,1.1132567113823058,B,1009,Incorrect
2,new_learn,44,329,A,16.19768594014049,31.74247184770866,0.8098842970070246,0.4986095818177118,A,903,Correct
2,new_learn,44,330,B,37.36507114967846,16.455941659262034,1.8682535574839227,0.2584893271231992,B,1892,Incorrect
2,new_learn,44,331,B,54.16079858488584,43.56322707394139,2.7080399292442916,0.6842895707107912,B,960,Incorrect
2,new_learn,44,332,B,67.9787762070324,58.773927468563876,3.39893881035162,0.9232186937892979,B,807,Correct
2,new_learn,44,333,A,34.16380779467305,49.08227820430149,1.7081903897336526,0.7709826231404198,B,1404,Incorrect
2,new_learn,44,334,B,69.52308051429048,39.94961605144078,3.476154025714524,0.6275271015046961,B,976,Correct
2,new_learn,44,335,B,41.85360626665599,28.13047213965708,2.0926803133327994,0.44187242307979513,B,1232,Correct
2,new_learn,44,336,B,55.32909136782401,23.029440124082388,2.7664545683912007,0.3617455995505163,B,746,Correct
2,new_learn,44,337,B,56.94900264206767,35.808879676925244,2.8474501321033836,0.5624845666315459,B,635,Incorrect
2,new_learn,44,338,B,69.673329172007,38.84197677898807,3.48366645860035,0.6101283444988713,B,2784,Incorrect
2,new_learn,44,339,A,18.42675651967091,37.964846900636445,0.9213378259835454,0.5963504205885034,A,791,Incorrect
2,new_learn,44,340,B,53.559008062612826,45.09315540330395,2.6779504031306414,0.708321628711013,B,4528,Incorrect
2,new_learn,44,341,B,37.78738306955775,20.18429692863922,1.8893691534778874,0.31705419474444,A,765,Incorrect
2,new_learn,44,342,B,44.434394688040186,25.30414274113769,2.221719734402009,0.3974765447047283,B,5271,Correct
2,new_learn,44,343,B,59.693226763736604,45.52028245474873,2.9846613381868305,0.7150309247458547,B,728,Correct
2,new_learn,44,344,A,64.60591507970786,78.39637038744375,3.230295753985393,1.2314473063864886,B,675,Incorrect
2,new_learn,44,345,A,13.400922858419335,41.610390226861284,0.6700461429209668,0.6536144812485596,A,840,Correct
2,new_learn,44,346,A,36.88700406674495,45.17206483154122,1.8443502033372476,0.7095611351112587,B,866,Correct
2,new_learn,44,347,A,35.949934327744515,50.99446650193063,1.797496716387226,0.8010192066809805,B,792,Correct
2,new_learn,44,348,A,26.45722764373904,37.08308864158723,1.322861382186952,0.5824997942441478,A,1292,Correct
2,new_learn,44,349,A,27.847237372896856,48.98397448710616,1.392361868644843,0.7694384719616127,A,801,Incorrect
2,new_learn,44,350,A,60.67418544209548,82.67157953339213,3.033709272104774,1.2986021346138452,B,560,Correct
2,new_learn,44,351,A,22.243531940052765,39.71579222322444,1.1121765970026383,0.6238542053999027,A,1176,Correct
2,new_learn,44,352,B,71.8064454283364,39.57699046619328,3.59032227141682,0.6216739124989306,B,1720,Correct
2,new_learn,44,353,A,54.665547017148924,65.93114504752646,2.7332773508574464,1.035644004620361,B,795,Correct
2,new_learn,44,354,A,68.13074584150692,85.94320798542962,3.4065372920753463,1.3499927541648267,B,522,Incorrect
2,new_learn,44,355,A,67.33407578970458,82.61342904168255,3.366703789485229,1.2976887088260578,A,673,Correct
2,new_learn,44,356,B,65.94380993829684,54.40470161339875,3.2971904969148422,0.8545870545469915,B,938,Correct
2,new_learn,44,357,B,82.18507365257783,64.58020554492133,4.109253682628892,1.0144234965362184,B,544,Correct
2,new_learn,44,358,B,50.77285448167293,28.05409824107639,2.5386427240836467,0.4406727446862595,A,1789,Incorrect
2,new_learn,44,359,A,29.519255000234246,61.62473772276335,1.4759627500117123,0.9679991165461557,A,1157,Incorrect
2,new_learn,44,360,A,26.431558040804013,49.65577330009543,1.3215779020402008,0.7799910630394999,A,2564,Correct
2,new_learn,44,361,B,34.799634084341584,20.75661689372202,1.7399817042170793,0.3260441757334744,A,1109,Incorrect
2,new_learn,44,362,A,28.20716212876021,55.66943253468526,1.4103581064380106,0.8744534014023991,A,1176,Correct
2,new_learn,44,363,A,35.75249750703025,67.8514654989773,1.7876248753515125,1.0658083277344421,A,875,Correct
2,new_learn,44,364,B,54.72506654064816,35.108305249903914,2.7362533270324083,0.5514799692654305,B,871,Correct
2,new_learn,44,365,B,38.44567038946336,27.340678601426692,1.922283519473168,0.42946637519200875,A,1458,Correct
2,new_learn,44,366,A,13.366566102713822,39.2363847545448,0.6683283051356911,0.6163236904915025,A,966,Incorrect
2,new_learn,44,367,A,65.7701612499821,87.04614010336266,3.2885080624991048,1.36731757136036,A,1698,Correct
2,new_learn,44,368,B,71.78403290111866,41.81766939793557,3.589201645055933,0.6568704148540053,B,1065,Incorrect
2,new_learn,44,369,B,42.1254753558989,26.953916918000445,2.1062737677949452,0.42339113687529917,A,1278,Incorrect
2,new_learn,44,370,A,30.394771997258047,63.24741755178107,1.5197385998629023,0.9934881116960077,A,1129,Correct
2,new_learn,44,371,B,81.70430488255468,57.26196246753664,4.085215244127734,0.8994688030907381,B,1214,Correct
2,new_learn,44,372,A,38.05317640223761,62.0025719964888,1.9026588201118806,0.9739341234392072,A,1429,Correct
2,new_learn,44,373,A,62.051156136936264,74.3668524769513,3.1025578068468134,1.1681517870609306,A,1675,Incorrect
2,new_learn,44,374,A,32.49835205120685,40.866474303918096,1.6249176025603425,0.6419290772565256,A,1055,Correct
2,new_learn,44,375,A,60.19132672331854,81.0749659741407,3.0095663361659266,1.2735225874720144,A,1353,Correct
2,new_learn,44,376,A,41.37185724804712,51.13149299690896,2.068592862402356,0.8031716138308356,A,3380,Correct
2,new_learn,44,377,B,86.82814294021907,63.071928300147675,4.341407147010954,0.9907315329774307,B,1082,Correct
2,new_learn,44,378,A,53.51567927739912,82.24829689289751,2.6757839638699563,1.2919532264449953,A,1407,Incorrect
2,new_learn,44,379,A,30.13128714371348,46.37165555945572,1.506564357185674,0.7284042622019118,A,1607,Correct
2,new_learn,44,380,B,59.53787998979059,36.448747758126004,2.9768939994895294,0.5725355909473805,B,1226,Incorrect
2,new_learn,44,381,A,45.45716252673647,71.00949506966104,2.272858126336823,1.1154145402298388,A,3672,Correct
2,new_learn,44,382,B,47.44489180346167,36.35148087528036,2.3722445901730835,0.5710077263244532,A,1229,Correct
2,new_learn,44,383,A,53.364810353378076,75.17918527953248,2.6682405176689037,1.1809118808852255,A,1168,Incorrect
2,new_learn,44,384,B,80.13106592412628,50.14675993163601,4.006553296206314,0.7877034630127935,A,2269,Incorrect
2,new_learn,44,385,A,46.59124841422067,53.91283023830475,2.3295624207110337,0.8468607570544593,A,2081,Incorrect
2,new_learn,44,386,A,18.773047060950557,47.18786107343759,0.9386523530475279,0.7412251884346364,A,1626,Correct
2,new_learn,44,387,B,70.97594690525656,55.02103171207939,3.5487973452628285,0.8642683450979983,B,912,Incorrect
2,new_learn,44,388,A,38.75235711776422,52.98059959908947,1.9376178558882111,0.8322173124164092,A,1451,Correct
2,new_learn,44,389,B,59.934643876391696,51.022754383481484,2.9967321938195846,0.8014635516853094,A,1224,Correct
2,new_learn,44,390,A,16.92191717377864,33.55654002631365,0.8460958586889319,0.5271048981327939,A,1208,Incorrect
2,new_learn,44,391,A,53.22537251607492,64.60172296546004,2.6612686258037463,1.0147614913876615,A,1471,Incorrect
2,new_learn,44,392,B,64.15364299181144,42.37633284995533,3.207682149590572,0.6656458798374775,B,1058,Correct
2,new_learn,44,393,B,41.719759477067825,20.889200636415723,2.0859879738533915,0.3281267962936343,A,2653,Correct
2,new_learn,44,394,A,43.26865731448289,56.65883219904131,2.163432865724144,0.8899948549874251,A,639,Incorrect
2,new_learn,44,395,B,62.02623661386841,28.903753283298798,3.1013118306934206,0.4540190948799169,B,548,Correct
2,new_learn,44,396,A,49.35624483726982,74.71078126106777,2.467812241863491,1.1735542077686223,B,942,Incorrect
2,new_learn,44,397,A,25.745102339910833,47.26433297698329,1.2872551169955417,0.7424264062865625,A,834,Incorrect
2,new_learn,44,398,B,86.86728559091709,62.274742495469,4.343364279545855,0.9782093676398075,B,733,Correct
2,new_learn,44,399,B,54.347767900212894,47.24926988704076,2.7173883950106448,0.7421897958230435,B,833,Correct
2,new_learn,44,400,B,46.24940926195893,16.74565509108251,2.3124704630979465,0.26304013506846674,B,652,Correct
2,new_learn,44,401,A,67.5138436421556,85.19271763808712,3.3756921821077803,1.3382040793558203,B,717,Incorrect
2,new_learn,44,402,B,86.09864346053061,69.89387608180687,4.304932173026531,1.097890438147599,B,1094,Correct
2,new_learn,44,403,A,52.48864815802261,79.14521093514921,2.6244324079011307,1.2432100662033965,A,977,Correct
2,new_learn,44,404,A,35.07287254243605,45.3819708134745,1.7536436271218026,0.7128583305651897,A,667,Correct
2,new_learn,44,405,B,79.2118141552778,51.70721790024709,3.9605907077638904,0.8122150794649146,B,630,Correct
2,new_learn,44,406,A,44.254433172514055,67.9555781312134,2.2127216586257026,1.067443725137336,A,1409,Correct
2,new_learn,44,407,B,78.07305160928632,59.31960226046624,3.9036525804643163,0.9317901333767461,B,609,Correct
2,new_learn,44,408,B,79.10382424954008,60.342450750234214,3.955191212477004,0.9478569998826986,B,753,Correct
2,new_learn,44,409,A,18.43883805417882,34.682173046323314,0.9219419027089409,0.5447863002642963,A,851,Correct
2,new_learn,44,410,B,31.299801847261392,12.596450546807944,1.5649900923630695,0.19786458249579486,B,728,Correct
2,new_learn,44,411,A,51.493665710873245,78.07357784058149,2.5746832855436623,1.2263768929172083,B,699,Correct
2,new_learn,44,412,B,49.03581205652481,19.96007310063963,2.4517906028262404,0.3135320950904235,B,576,Incorrect
2,new_learn,44,413,B,79.638324802941,48.02346080465488,3.98191624014705,0.7543507583193058,B,690,Incorrect
2,new_learn,44,414,A,28.851820818788376,57.1715786411067,1.442591040939419,0.8980490572651598,A,764,Incorrect
2,new_learn,44,415,B,39.926271813919826,30.50089268343149,1.9963135906959912,0.47910690191099525,A,936,Correct
2,new_learn,44,416,A,63.148695214378264,77.0726767131746,3.1574347607189135,1.210654774773052,B,1153,Incorrect
2,new_learn,44,417,A,19.585936549440568,45.62863008257162,0.9792968274720283,0.716732845303866,A,962,Correct
2,new_learn,44,418,B,36.5148902424571,20.419842029637895,1.825744512122855,0.32075412853887253,A,1059,Incorrect
2,new_learn,44,419,A,62.110687750289685,79.3176034299034,3.105534387514484,1.2459180011786657,B,749,Incorrect
2,new_learn,44,420,A,51.987777879130945,73.6046290736275,2.5993888939565473,1.1561788098395493,A,1009,Incorrect
2,new_learn,44,421,B,38.10174825796061,18.420646181263475,1.9050874128980302,0.28935083358717106,B,1236,Correct
2,new_learn,44,422,B,83.98327247788617,57.479017464686606,4.199163623894309,0.9028782950130942,B,626,Correct
2,new_learn,44,423,B,73.76512578646789,54.11595614178396,3.6882562893233946,0.8500514512850798,B,674,Correct
2,new_learn,44,424,B,38.44546269858034,17.734777021215862,1.9222731349290172,0.2785772260145241,A,942,Incorrect
2,new_learn,44,425,B,75.83970920458395,46.958781713755926,3.791985460229198,0.7376268182673117,A,2333,Incorrect
2,new_learn,44,426,B,46.12682487196004,38.00172074596589,2.306341243598002,0.5969296335964864,A,1644,Correct
2,new_learn,44,427,A,24.527406650490946,54.07576054697337,1.2263703325245472,0.8494200603582616,A,845,Correct
2,new_learn,44,428,B,50.59733276571757,32.96132595269653,2.5298666382858785,0.51775529732785,A,936,Incorrect
2,new_learn,44,429,A,36.21419143902601,44.22982464524574,1.8107095719513007,0.694760460875344,A,1321,Correct
2,new_learn,44,430,A,56.4517793186953,65.39858691158358,2.8225889659347647,1.0272786009829227,A,1310,Incorrect
2,new_learn,44,431,B,32.0170062282717,14.897521586495206,1.6008503114135848,0.23400972186414348,B,933,Correct
2,new_learn,44,432,B,66.02211140698293,50.465955491650675,3.3011055703491468,0.7927173751447962,A,1193,Correct
2,new_learn,44,433,B,64.49335473020437,49.29226000282808,3.2246677365102188,0.7742810095186136,B,1213,Incorrect
2,new_learn,44,434,A,54.96347538578887,66.21728840337536,2.7481737692894432,1.0401387339434032,A,685,Correct
2,new_learn,44,435,B,76.94893843333026,58.623897070701474,3.8474469216665126,0.9208620218105996,A,818,Incorrect
2,new_learn,44,436,A,63.28665055187598,72.72599277677999,3.1643325275937992,1.142377223162782,B,842,Incorrect
2,new_learn,44,437,A,41.10783683552658,49.79959504102801,2.055391841776329,0.7822502096632017,A,684,Correct
2,new_learn,44,438,B,60.954139742082326,49.18178224586538,3.0477069871041165,0.772545628970318,A,575,Correct
2,new_learn,44,439,B,75.21251375432436,45.60715275690516,3.7606256877162183,0.7163954802612036,A,601,Incorrect
2,new_learn,44,440,B,56.6986551240831,48.24762340855386,2.834932756204155,0.7578718962673986,A,1547,Incorrect
2,new_learn,44,441,B,56.72190255537421,30.724280911408975,2.8360951277687105,0.48261587599055766,A,981,Incorrect
2,new_learn,44,442,B,71.33187943585745,51.140077576127084,3.566593971792872,0.8033064600858648,B,597,Correct
2,new_learn,44,443,B,41.61401718782527,16.369826235429908,2.0807008593912633,0.2571366292088403,A,1003,Correct
2,new_learn,44,444,B,73.42153586751662,42.21497888022425,3.6710767933758315,0.6631113376078038,B,663,Incorrect
2,new_learn,44,445,B,34.14720566364224,10.959784984298103,1.707360283182112,0.17215589995797326,A,653,Incorrect
2,new_learn,44,446,A,32.34716915487933,51.05169735181598,1.6173584577439666,0.801918186768773,A,872,Correct
2,new_learn,44,447,A,59.79961027599272,74.76248528873366,2.9899805137996363,1.1743663727360032,A,707,Incorrect
2,new_learn,44,448,A,33.702666958438,62.24472600625583,1.6851333479219,0.9777378697298144,A,558,Correct
2,new_learn,44,449,B,76.16644493585686,64.2467404475006,3.808322246792843,1.0091854390347907,A,1009,Incorrect
2,new_learn,44,450,A,37.05164073592869,64.59957754247648,1.8525820367964345,1.0147277911622414,B,790,Incorrect
2,new_learn,44,451,B,88.48631938325421,62.62247985911159,4.424315969162711,0.9836716133747987,A,958,Incorrect
2,new_learn,44,452,B,89.33720238956259,67.50192857034831,4.46686011947813,1.0603178144987462,B,1094,Correct
2,new_learn,44,453,B,51.76381868450535,34.36741722436418,2.5881909342252674,0.5398421273745891,A,3969,Correct
2,new_learn,44,454,A,67.88354148690794,80.51850309054824,3.394177074345397,1.2647816889365668,A,1082,Correct
2,new_learn,44,455,A,64.59414543702157,85.03388202176122,3.229707271851078,1.335709095328931,A,528,Correct
2,new_learn,44,456,A,47.86399444574464,78.99428688083825,2.393199722287232,1.24083935670203,A,610,Correct
2,new_learn,44,457,B,59.56426368772217,39.70089837682721,2.9782131843861084,0.6236202534077765,A,589,Incorrect
2,new_learn,44,458,B,57.23278982080519,50.07553697911996,2.8616394910402594,0.7865846954908365,B,795,Correct
2,new_learn,44,459,A,52.98499313746703,72.64302101950672,2.6492496568733515,1.141073905847256,B,771,Incorrect
2,new_learn,44,460,A,58.535408131990025,68.19424442199438,2.9267704065995015,1.0711926864662213,A,1158,Incorrect
2,new_learn,44,461,A,41.470912093891144,52.67358701484752,2.0735456046945573,0.8273947700203386,B,653,Correct
2,new_learn,44,462,A,54.419383963642986,80.81991049368878,2.720969198182149,1.2695161853537866,B,580,Correct
2,new_learn,44,463,B,43.782023281450094,15.328784352618225,2.189101164072505,0.2407839815532379,B,575,Incorrect
2,new_learn,44,464,B,38.41884497630801,29.32465273502258,1.9209422488154004,0.4606305680070939,A,521,Correct
2,new_learn,44,465,A,21.830044113539444,36.28635605966703,1.091502205676972,0.5699847481129671,A,484,Incorrect
2,new_learn,44,466,A,41.701876202073386,68.77132348022619,2.085093810103669,1.0802574231156292,B,521,Correct
2,new_learn,44,467,B,48.35801556533043,31.168562880980556,2.417900778266522,0.4895946408492001,B,909,Incorrect
2,new_learn,44,468,B,86.51859687567688,64.98670342462555,4.325929843783843,1.0208087502991114,B,900,Correct
2,new_learn,44,469,B,75.54429994610447,53.946430939850174,3.777214997305224,0.8473885556401121,B,567,Correct
2,new_learn,44,470,B,37.80308083534811,20.03355650388846,1.8901540417674056,0.31468636968946,A,951,Incorrect
2,new_learn,44,471,B,75.52676670244274,42.91858000759223,3.776338335122137,0.6741634782717877,B,1106,Incorrect
2,new_learn,44,472,B,44.15501649037645,32.13805575861824,2.2077508245188224,0.504823399359671,A,775,Incorrect
2,new_learn,44,473,A,42.675923485624324,51.82544212131218,2.133796174281216,0.814072141186787,A,2552,Correct
2,new_learn,44,474,B,76.72148024660953,49.890981184194985,3.8360740123304766,0.7836856998432676,B,694,Correct
2,new_learn,44,475,A,20.07312933611426,41.52717666372409,1.003656466805713,0.6523073656554055,A,1286,Correct
2,new_learn,44,476,A,40.934150139065665,55.90169891475563,2.046707506953283,0.8781018331689239,A,632,Incorrect
2,new_learn,44,477,B,34.71551706563568,19.209927187619215,1.735775853281784,0.3017488306430968,A,720,Incorrect
2,new_learn,44,478,B,49.0884312085425,25.40015939133555,2.454421560427125,0.39898477071914784,A,861,Incorrect
2,new_learn,44,479,B,68.10351655356308,46.69639305645214,3.405175827678154,0.7335052268764573,B,620,Correct
2,new_learn,44,480,B,79.9813103238832,66.74644714162528,3.9990655161941606,1.0484507399667473,B,777,Incorrect
2,new_learn,44,481,A,34.223168960589135,59.065126558797786,1.7111584480294568,0.9277928384023525,A,890,Correct
2,new_learn,44,482,A,54.580101564045606,83.41578397239702,2.72900507820228,1.3102920706055785,A,745,Incorrect
2,new_learn,44,483,A,37.220138411782045,62.52125921485273,1.8610069205891022,0.9820816432128225,A,656,Correct
2,new_learn,44,484,B,63.64831720396015,55.16718804283051,3.1824158601980073,0.866564163372815,B,1558,Correct
2,new_learn,44,485,A,34.1836740659042,45.83084023438011,1.70918370329521,0.7199091549408804,B,1510,Correct
2,new_learn,44,486,B,55.76570852305838,43.96482342212314,2.788285426152919,0.6905978313965726,B,2665,Correct
2,new_learn,44,487,A,28.638277510564276,57.485989891885595,1.4319138755282137,0.9029878176434244,B,848,Incorrect
2,new_learn,44,488,A,49.06277932640554,56.98923856356312,2.453138966320277,0.8951848660248303,A,1411,Correct
2,new_learn,44,489,B,77.68808387914461,46.462396729943144,3.884404193957231,0.7298296211748192,A,854,Incorrect
2,new_learn,44,490,B,51.945541282558366,33.19414542829425,2.597277064127918,0.5214124170986021,B,7192,Incorrect
2,new_learn,44,491,A,24.360699219672522,45.384032604266366,1.218034960983626,0.7128907170992143,A,654,Correct
2,new_learn,44,492,B,42.30639892544714,31.778393176702757,2.115319946272357,0.49917383273408694,B,462,Correct
2,new_learn,44,493,A,18.175401402193675,32.5841511813351,0.9087700701096837,0.5118306498737077,A,1867,Incorrect
2,new_learn,44,494,A,50.317372257628186,74.57379828856853,2.5158686128814094,1.17140248426827,B,466,Correct
2,new_learn,44,495,A,63.531766708399715,83.63080594704047,3.1765883354199853,1.3136696278850795,B,621,Correct
2,new_learn,44,496,B,58.18302291490162,38.41930302269242,2.909151145745081,0.6034890006606533,B,408,Correct
2,new_learn,44,497,A,44.39361617121681,67.38449089297175,2.219680808560841,1.058473107776242,B,376,Correct
2,new_learn,44,498,A,35.26134966721048,68.14622514678298,1.763067483360524,1.0704384014550472,B,490,Incorrect
2,new_learn,44,499,A,14.285463043316692,40.65569232008569,0.7142731521658346,0.6386181215969409,A,524,Incorrect
2,new_learn,44,500,A,28.545609694387352,48.74654795474556,1.4272804847193674,0.7657089847124561,A,728,Correct
2,new_learn,44,501,B,38.69382551560146,19.577214392599444,1.9346912757800732,0.30751816456771386,B,839,Correct
2,new_learn,44,502,A,58.26384352764845,86.70332130074243,2.913192176382422,1.3619325862012392,B,688,Correct
2,new_learn,44,503,B,62.75564254047561,41.53084765256172,3.137782127023781,0.652365029413224,B,466,Incorrect
2,new_learn,44,504,B,54.29860901713378,40.55092686755813,2.7149304508566887,0.6369724697168879,A,756,Incorrect
2,new_learn,44,505,A,17.764235023428956,42.11861761841898,0.8882117511714478,0.6615976984469135,A,578,Correct
2,new_learn,44,506,A,29.691027280780183,60.12136578306468,1.4845513640390093,0.9443842053393038,A,618,Correct
2,new_learn,44,507,B,62.709291436001905,51.43797470467259,3.135464571800095,0.8079858172386851,A,441,Incorrect
2,new_learn,44,508,A,21.058651764287607,38.45566112530038,1.0529325882143803,0.6040601124009114,A,503,Correct
2,new_learn,44,509,B,53.156477048268734,25.5995440236404,2.6578238524134368,0.4021166971995858,A,481,Incorrect
2,new_learn,44,510,B,34.01363406101784,20.560026233886326,1.700681703050892,0.3229561368699535,A,672,Incorrect
2,new_learn,44,511,A,38.98315017639857,67.17639096599318,1.9491575088199284,1.0552042817671996,B,616,Incorrect
2,new_learn,44,512,A,58.09552558398586,80.32784169656573,2.904776279199293,1.261786786763274,B,797,Incorrect
2,new_learn,44,513,A,36.418320819097154,43.98846508106827,1.8209160409548577,0.690969193706876,A,4462,Correct
2,new_learn,44,514,B,58.463570389025186,32.16358873715068,2.9231785194512594,0.50522447044858,A,732,Correct
2,new_learn,44,515,A,31.75855900356433,42.59965981118851,1.5879279501782164,0.6691538915412708,A,581,Correct
2,new_learn,44,516,B,80.48114542550601,59.05696692967574,4.024057271275301,0.9276646672478231,B,2011,Correct
2,new_learn,44,517,B,76.50097192906703,54.43631752781207,3.8250485964533514,0.8550836761692786,B,813,Correct
2,new_learn,44,518,A,30.719431587090277,56.594426660739245,1.5359715793545137,0.8889831751575236,B,722,Incorrect
2,new_learn,44,519,B,74.38735680397026,54.073260796285645,3.719367840198513,0.8493807943662799,B,1059,Incorrect
2,new_learn,44,520,A,63.547373857420276,75.15078219662058,3.177368692871014,1.1804657263021492,B,752,Incorrect
2,new_learn,44,521,B,79.35917918900513,48.53580951512797,3.967958959450257,0.762398713043798,B,1018,Correct
2,new_learn,44,522,B,31.869709644713303,12.880441171080761,1.5934854822356652,0.20232549679031417,A,1062,Incorrect
2,new_learn,44,523,A,39.967522469838535,53.500222963343255,1.9983761234919268,0.8403795371352757,B,650,Incorrect
2,new_learn,44,524,B,40.985780885550525,29.81276391431831,2.0492890442775265,0.46829780048214636,A,854,Incorrect
2,new_learn,44,525,B,55.67308297010168,46.473051234787086,2.783654148505084,0.729996981745546,B,1518,Incorrect
2,new_learn,44,526,B,76.89502231967919,51.609683625506676,3.8447511159839594,0.8106830146599262,B,950,Incorrect
2,new_learn,44,527,B,67.73657180157332,57.46024622053682,3.386828590078666,0.9025834369994956,B,646,Correct
2,new_learn,44,528,B,74.94742565307544,51.596269639364905,3.747371282653772,0.8104723082583344,B,882,Correct
2,new_learn,44,529,B,71.62503826070271,50.77302809145887,3.5812519130351355,0.7975408602631767,B,680,Correct
2,new_learn,44,530,A,53.531801769449075,67.54481196589435,2.676590088472454,1.0609914253007882,B,667,Correct
2,new_learn,44,531,A,46.60741129425577,77.8584204015263,2.3303705647127884,1.2229972077677034,B,484,Correct
2,new_learn,44,532,B,33.31214485759222,15.894673382822212,1.6656072428796111,0.24967294565341744,A,1047,Correct
2,new_learn,44,533,A,53.44779755897747,75.24273899611495,2.6723898779488735,1.181910180330845,B,789,Incorrect
2,new_learn,44,534,B,85.60149880718117,59.11675482950637,4.280074940359059,0.9286038133822305,A,4300,Correct
2,new_learn,44,535,B,76.03589821970512,50.51297228287741,3.8017949109852562,0.7934559131743626,A,567,Incorrect
2,new_learn,44,536,B,48.00503096792792,37.977562562257546,2.400251548396396,0.5965501577341754,A,1107,Incorrect
2,new_learn,44,537,B,74.22193710634042,53.15441664449392,3.711096855317021,0.8349476241809657,A,22240,Incorrect
2,new_learn,44,538,B,57.83885494027486,36.8780703495695,2.891942747013743,0.5792793744438757,A,1588,Incorrect
2,new_learn,44,539,B,68.94218251950674,48.80908400799058,3.447109125975337,0.7666912987397511,B,720,Correct
2,new_learn,44,540,A,31.507076066664816,62.10752263082035,1.5753538033332406,0.9755826841482352,B,678,Incorrect
2,new_learn,44,541,A,35.50448245279139,64.92292327182415,1.7752241226395697,1.0198068940016827,B,639,Incorrect
2,new_learn,44,542,A,41.02536174484793,54.80106633081572,2.0512680872423967,0.8608131369688882,A,1033,Incorrect
2,new_learn,44,543,B,73.69830791524052,53.974105510013004,3.6849153957620264,0.8478232667716861,B,670,Correct
2,new_learn,44,544,A,40.65002168400074,50.53571273515251,2.032501084200037,0.7938131193633963,B,2725,Correct
2,new_learn,44,545,B,39.292052503108025,25.339486399899684,1.9646026251554014,0.39803172159831657,A,742,Incorrect
2,new_learn,44,546,B,63.081928586604064,47.176252299797014,3.1540964293302034,0.7410428382447043,B,590,Correct
2,new_learn,44,547,B,46.56935523917425,17.481615757603837,2.3284677619587124,0.2746005781848389,B,645,Correct
2,new_learn,44,548,A,37.19745759658469,62.2643608083504,1.8598728798292345,0.9780462924798894,B,497,Incorrect
2,new_learn,44,549,A,48.022035956224144,60.68932899204437,2.4011017978112075,0.9533057505635033,B,568,Correct
2,new_learn,44,550,A,42.79855855231214,70.08370983845322,2.1399279276156067,1.1008723398240168,B,749,Correct
2,new_learn,44,551,A,35.344980882822085,59.37422970937827,1.7672490441411042,0.932648219337678,B,779,Incorrect
2,new_learn,44,552,B,42.236475754378816,26.205465312064845,2.111823787718941,0.4116344865414253,B,818,Correct
2,new_learn,44,553,A,62.6397190540374,87.26672557088781,3.13198595270187,1.3707825197816885,A,838,Correct
2,new_learn,44,554,B,35.798719616909736,13.904708606168196,1.7899359808454869,0.21841465203722388,B,744,Correct
2,new_learn,44,555,A,29.714194125144054,43.53454822753407,1.4857097062572027,0.6838390844448579,B,1201,Correct
2,new_learn,44,556,A,58.398077354873536,77.70453056285372,2.9199038677436766,1.2205799118345237,B,608,Incorrect
2,new_learn,44,557,A,42.09631707335074,62.53923180870929,2.104815853667537,0.9823639560569511,B,492,Correct
2,new_learn,44,558,B,69.66853087671215,53.08981601118565,3.483426543835608,0.833932879805873,B,552,Incorrect
2,new_learn,44,559,B,35.76411788996276,24.226440312970325,1.788205894498138,0.3805480345492959,A,895,Incorrect
2,new_learn,44,560,A,60.33968730893095,83.5691817743874,3.016984365446547,1.3127016376446274,B,9535,Correct
2,new_learn,44,561,B,74.88697541131148,63.83749736756742,3.744348770565574,1.0027570637675376,B,1567,Incorrect
2,new_learn,44,562,A,37.621061408848355,49.412926290438165,1.8810530704424178,0.7761764311320722,B,981,Correct
2,new_learn,44,563,B,35.26839149447757,21.47545141085651,1.7634195747238783,0.3373356019243569,B,1392,Correct
2,new_learn,44,564,B,72.3182030843685,56.25154540520225,3.6159101542184255,0.8835972089902803,A,867,Correct
2,new_learn,44,565,B,62.41945990806959,29.29288461661441,3.1209729954034793,0.4601315555700464,B,1070,Incorrect
2,new_learn,44,566,B,55.4035156341205,36.88069875826756,2.7701757817060253,0.5793206613911579,B,754,Incorrect
2,new_learn,44,567,B,35.56822530074194,13.456092468444108,1.7784112650370971,0.2113678062244448,B,2884,Correct
2,new_learn,44,568,B,47.0476755946652,33.441351249171575,2.3523837797332603,0.5252955170525664,A,1158,Incorrect
2,new_learn,44,569,A,57.44324251367439,74.46393179349879,2.8721621256837193,1.169676705399336,A,1587,Correct
2,new_learn,44,570,B,32.60112243596237,10.217682768161222,1.6300561217981184,0.1604989856058316,B,929,Incorrect
2,new_learn,44,571,A,55.54643086072458,75.7052633311649,2.777321543036229,1.1891754955963418,B,9300,Correct
2,new_learn,44,572,B,52.34117598009469,36.349151032754264,2.6170587990047345,0.5709711292436332,B,782,Correct
2,new_learn,44,573,B,37.42305803974639,25.772693342554028,1.8711529019873194,0.40483652034095147,A,867,Incorrect
2,new_learn,44,574,A,38.97876496947422,65.49995800561881,1.948938248473711,1.02887093440446,B,683,Incorrect
2,new_learn,44,575,A,58.30466023928754,76.02323457590447,2.9152330119643772,1.1941701762289751,B,3145,Correct
2,new_learn,44,576,B,47.26063017421157,31.921950624386263,2.3630315087105784,0.50142882784914,B,866,Incorrect
2,new_learn,44,577,A,51.91208208126034,63.145329516258805,2.5956041040630167,0.991884516583927,B,660,Incorrect
2,new_learn,44,578,A,55.05170688840586,67.77969521992495,2.752585344420293,1.064680962827357,B,741,Correct
2,new_learn,44,579,A,34.04713289003476,59.04111635819582,1.702356644501738,0.9274156870532408,B,468,Incorrect
2,new_learn,44,580,B,49.70231758548382,24.304274952654723,2.485115879274191,0.38177065821043255,B,559,Correct
2,new_learn,44,581,B,42.05183563848496,17.13394969651605,2.102591781924248,0.26913945246775944,B,672,Incorrect
2,new_learn,44,582,B,80.51924813972786,60.385794717619625,4.025962406986394,0.9485378453302757,B,1491,Correct
2,new_learn,44,583,A,52.41928090830493,79.46728598043916,2.6209640454152465,1.2482692091843341,B,988,Correct
2,new_learn,44,584,A,55.17521561409127,84.0594929078361,2.7587607807045633,1.320403426918706,B,888,Incorrect
2,new_learn,44,585,A,68.56635292627487,81.72653480171655,3.4283176463137437,1.2837574066821165,B,729,Incorrect
2,new_learn,44,586,B,58.59870675007787,42.923715507375235,2.9299353375038937,0.6742441465137416,B,581,Incorrect
2,new_learn,44,587,B,49.55926177707556,20.06713593127918,2.477963088853778,0.31521383410147225,A,824,Incorrect
2,new_learn,44,588,A,48.759122253600765,58.25193746919281,2.4379561126800384,0.9150192940529406,A,756,Incorrect
2,new_learn,44,589,A,44.90013476572423,56.66368241081749,2.245006738286212,0.8900710419358471,B,419,Incorrect
2,new_learn,44,590,B,34.08428741692642,22.95244689163298,1.704214370846321,0.36053619268332027,B,584,Correct
2,new_learn,44,591,A,33.049558398135375,46.23977833595079,1.652477919906769,0.7263327396192172,B,511,Correct
2,new_learn,44,592,A,45.079267154979085,52.915482402223546,2.253963357748954,0.8311944538799272,B,597,Incorrect
2,new_learn,44,593,A,56.858720124653104,69.09079593201972,2.8429360062326556,1.0852756846535234,B,551,Correct
2,new_learn,44,594,A,44.50927518774473,55.50514860406775,2.225463759387236,0.871872835454745,B,633,Incorrect
2,new_learn,44,595,A,34.39477376506085,66.75820030747563,1.7197386882530423,1.0486353582642067,B,482,Incorrect
2,new_learn,44,596,A,52.08643517032223,59.21996396477607,2.604321758516112,0.9302250186879639,A,525,Incorrect
2,new_learn,44,597,A,42.873905165611745,55.26196682172893,2.1436952582805873,0.8680529449503327,B,722,Correct
2,new_learn,44,598,B,83.54967760299722,69.2125996527443,4.177483880149861,1.0871889730245647,B,448,Correct
2,new_learn,44,599,A,44.238211354229186,66.22855970451404,2.211910567711459,1.0403157831276715,B,631,Correct
2,new_learn,44,600,B,13.9047086061682,64.20128038309026,0.69523543030841,1.0084713540128745,B,416,Correct
2,new_learn,44,601,B,28.20574005827772,49.6108220171064,1.4102870029138859,0.7792849699374612,A,1835,Incorrect
2,new_learn,44,602,B,52.42407422495601,28.46716957400878,2.6212037112478,0.44716125401100426,B,1624,Correct
2,new_learn,44,603,B,24.57951562275782,47.1913774383037,1.2289757811378912,0.74128042336479,B,1114,Correct
2,new_learn,44,604,B,58.773927468563876,32.021223792967604,2.938696373428194,0.5029882071347086,B,606,Correct
2,new_learn,44,605,B,63.86564753102391,16.787135826700236,3.1932823765511955,0.2636917129398774,A,1165,Incorrect
2,new_learn,44,606,B,33.44318535541042,49.97953909966675,1.6721592677705213,0.7850767643265846,B,661,Correct
2,new_learn,44,607,A,67.69015371617627,51.48293931695184,3.3845076858088134,0.8086921197167253,B,590,Incorrect
2,new_learn,44,608,B,50.24858694329829,39.72469342163512,2.5124293471649146,0.6239940250975784,B,920,Correct
2,new_learn,44,609,A,81.72653480171655,31.433647073725126,4.086326740085827,0.49375857361174574,B,416,Incorrect
2,new_learn,44,610,A,81.0749659741407,39.80867327668146,4.053748298707035,0.6253131775758939,B,850,Incorrect
2,new_learn,44,611,A,64.67322596197694,52.74488118236815,3.2336612980988466,0.8285146561849714,B,16868,Incorrect
2,new_learn,44,612,A,51.82544212131218,57.324076514375676,2.5912721060656088,0.900444488256909,A,5018,Correct
2,new_learn,44,613,B,45.54359412493196,34.849610311245726,2.277179706246598,0.5474163986713834,A,770,Incorrect
2,new_learn,44,614,A,65.2478239162021,57.10064214963612,3.2623911958101046,0.8969347894627826,A,1122,Correct
2,new_learn,44,615,A,66.46431991102095,44.766680703647964,3.323215995551047,0.7031933761209019,A,876,Correct
2,new_learn,44,616,A,47.26433297698329,74.25489766008917,2.3632166488491646,1.16639320490999,A,700,Correct
2,new_learn,44,617,B,49.890981184194985,23.27851975339047,2.4945490592097492,0.3656581332184819,A,634,Incorrect
2,new_learn,44,618,B,49.8738869978105,42.95614115108096,2.493694349890525,0.6747534873340107,B,593,Correct
2,new_learn,44,619,B,58.29067974321225,13.201958885853173,2.9145339871606124,0.20737588524395412,B,681,Correct
2,new_learn,44,620,B,27.340678601426692,61.55432961053664,1.3670339300713346,0.9668931485055329,B,572,Correct
2,new_learn,44,621,A,56.98923856356312,50.93722067359446,2.849461928178156,0.8001199913122325,B,458,Incorrect
2,new_learn,44,622,B,33.607262771454515,37.72940554142476,1.6803631385727258,0.5926521163662503,B,1004,Correct
2,new_learn,44,623,B,38.2361616725584,31.93625942224493,1.9118080836279203,0.5016535899203124,B,506,Correct
2,new_learn,44,624,A,67.73542456384334,51.953443021940295,3.3867712281921674,0.8160827746321176,B,642,Incorrect
2,new_learn,44,625,A,72.54612280477659,55.163651290866696,3.6273061402388294,0.8665086082028797,B,2249,Incorrect
2,new_learn,44,626,B,35.093195867598155,37.5571877589203,1.7546597933799077,0.5899469257645826,B,3584,Correct
2,new_learn,44,627,A,67.34863120255243,46.225721938018886,3.3674315601276215,0.7261119422368234,A,1090,Correct
2,new_learn,44,628,B,62.62247985911159,11.513680616745788,3.1311239929555796,0.18085647220673884,A,2716,Incorrect
2,new_learn,44,629,B,19.209927187619215,65.28448293436432,0.9604963593809608,1.025486259900036,B,777,Correct
2,new_learn,44,630,B,23.71821316159919,52.528170132925055,1.1859106580799597,0.8251105669805606,B,1678,Correct
2,new_learn,44,631,B,66.82638909674785,16.097090014877864,3.341319454837392,0.25285249867456955,A,1123,Incorrect
2,new_learn,44,632,A,83.63080594704047,36.468233291600285,4.181540297352024,0.572841668991451,A,1404,Correct
2,new_learn,44,633,A,66.7269665365027,60.452577048883654,3.336348326825135,0.9495868597367191,B,2934,Incorrect
2,new_learn,44,634,A,34.055134764839494,78.20861561593048,1.7027567382419746,1.2284980613321759,B,829,Incorrect
2,new_learn,44,635,B,39.94961605144078,30.476919485709516,1.997480802572039,0.4787303318017631,B,3272,Correct
2,new_learn,44,636,A,72.64302101950672,47.01500686253297,3.632151050975336,0.7385100008390364,B,470,Incorrect
2,new_learn,44,637,A,64.471469196582,43.24428318163902,3.2235734598291,0.679279611765969,A,977,Correct
2,new_learn,44,638,A,73.10085372606619,57.26762395577026,3.6550426863033096,0.8995577335399534,A,654,Correct
2,new_learn,44,639,B,35.4491266901006,35.199829081374986,1.77245633450503,0.5529176222483201,A,809,Incorrect
2,new_learn,44,640,A,55.50514860406775,55.49072481225527,2.7752574302033874,0.87164626706277,A,807,Correct
2,new_learn,44,641,B,23.508968436814722,46.65080801389576,1.1754484218407362,0.732789178702414,A,672,Incorrect
2,new_learn,44,642,A,65.86249060547779,50.98163107464675,3.2931245302738894,0.8008175882606767,B,2517,Incorrect
2,new_learn,44,643,A,67.9555781312134,55.745566827485945,3.3977789065606703,0.8756493160771435,A,464,Correct
2,new_learn,44,644,A,79.90620863105282,32.59720120124554,3.995310431552641,0.5120356391071068,A,474,Correct
2,new_learn,44,645,A,41.610390226861284,86.59907714158066,2.080519511343064,1.360295122778228,B,1690,Incorrect
2,new_learn,44,646,B,20.03355650388846,62.19691916465189,1.001677825194423,0.976986921617943,B,1487,Correct
2,new_learn,44,647,A,71.69518498523658,42.27803584658062,3.5847592492618285,0.664101834119118,A,788,Correct
2,new_learn,44,648,B,44.061258289289114,39.29028917665697,2.203062914464456,0.6171704191740205,B,975,Correct
2,new_learn,44,649,B,38.6266559911827,39.16989569784065,1.9313327995591352,0.6152792828310731,B,661,Correct
2,new_learn,44,650,A,33.55654002631365,83.07808282622136,1.6778270013156824,1.3049874734059068,B,882,Incorrect
2,new_learn,44,651,B,28.718600437445296,45.960015078305425,1.4359300218722648,0.7219382286444022,A,803,Incorrect
2,new_learn,44,652,A,85.39729286051808,33.77865618216521,4.269864643025904,0.5305938905501283,B,810,Incorrect
2,new_learn,44,653,A,49.87323411079146,76.93555516386093,2.493661705539573,1.2085008745131887,A,12867,Correct
2,new_learn,44,654,B,56.99256015885484,28.034291263226223,2.8496280079427425,0.44036161740574015,A,2838,Incorrect
2,new_learn,44,655,B,56.25154540520225,27.681796915631494,2.8125772702601126,0.4348246491415625,B,1545,Correct
2,new_learn,44,656,B,54.27440009171375,30.117958834617014,2.7137200045856877,0.47309179107976307,B,783,Correct
2,new_learn,44,657,A,36.387181068826656,81.06982703631846,1.8193590534413329,1.2734418652254664,A,1259,Correct
2,new_learn,44,658,B,23.078697172412134,50.47947090350583,1.1539348586206066,0.7929296747377682,B,588,Correct
2,new_learn,44,659,A,36.339413639635445,75.05627162525909,1.8169706819817721,1.1789811577187699,A,418,Correct
2,new_learn,44,660,A,31.442333468525664,83.45627022948828,1.5721166734262833,1.3109280272448247,A,4420,Correct
2,new_learn,44,661,B,23.029440124082388,44.67090863217599,1.1514720062041193,0.7016889919401248,B,577,Correct
2,new_learn,44,662,B,66.74644714162528,20.018689676116793,3.337322357081264,0.3144528421049117,B,828,Correct
2,new_learn,44,663,A,56.71789948970224,59.27945138272919,2.8358949744851123,0.9311594448640768,A,926,Correct
2,new_learn,44,664,B,46.33250758021828,31.36647876744908,2.316625379010914,0.49270349632399135,B,516,Correct
2,new_learn,44,665,A,41.675211821817726,76.81639695920775,2.0837605910908863,1.206629141811422,A,486,Correct
2,new_learn,44,666,B,30.57299489763382,59.91560873429265,1.528649744881691,0.941152181175071,B,967,Correct
2,new_learn,44,667,A,69.4882012169724,49.96064921246434,3.47441006084862,0.7847800426722732,B,822,Incorrect
2,new_learn,44,668,B,52.52376013395167,34.964739183657045,2.6261880066975833,0.5492248387703007,B,1086,Correct
2,new_learn,44,669,A,75.94482604182646,54.73890842079954,3.7972413020913227,0.8598367628015414,B,825,Incorrect
2,new_learn,44,670,B,27.686471098434925,44.871244625915125,1.3843235549217463,0.7048358623710272,B,998,Correct
2,new_learn,44,671,A,36.53711639212608,75.3598263621981,1.826855819606304,1.18374938437642,A,742,Correct
2,new_learn,44,672,B,32.14836137189197,53.679947695141564,1.6074180685945987,0.8432026466207054,B,884,Correct
2,new_learn,44,673,A,70.63277935377819,58.017418886636584,3.5316389676889095,0.911335484772496,B,1162,Incorrect
2,new_learn,44,674,B,46.11973231064259,42.23585509727265,2.305986615532129,0.6634392604583739,B,1277,Correct
2,new_learn,44,675,B,14.922017992074394,66.28963472689995,0.7461008996037196,1.0412751473358988,A,777,Incorrect
2,new_learn,44,676,A,65.17026929897696,46.59670410933679,3.258513464948848,0.7319393165569489,B,520,Incorrect
2,new_learn,44,677,A,78.99428688083825,52.13600555425536,3.949714344041912,0.8189504601838264,B,1334,Incorrect
2,new_learn,44,678,B,19.24449883784296,57.66309587241389,0.9622249418921481,0.905769791880097,A,1811,Incorrect
2,new_learn,44,679,B,63.48434203964519,19.061300084944094,3.1742171019822596,0.29941420157365434,B,791,Correct
2,new_learn,44,680,A,48.98397448710616,72.15276262710314,2.449198724355308,1.1333729450275771,A,1794,Correct
2,new_learn,44,681,B,45.555877464213424,23.492411445253126,2.2777938732106713,0.3690179360575799,B,795,Correct
2,new_learn,44,682,B,33.8099857159125,38.12208510147182,1.6904992857956247,0.5988203124715439,B,1053,Correct
2,new_learn,44,683,B,43.07400506282298,49.11575941797257,2.1537002531411487,0.7715085448149315,A,785,Incorrect
2,new_learn,44,684,B,56.894310869027066,14.828048061489767,2.8447155434513536,0.23291843428526313,B,577,Correct
2,new_learn,44,685,A,48.18423941457743,58.94348545830959,2.4092119707288715,0.9258821044640109,A,952,Correct
2,new_learn,44,686,B,49.35100155396365,21.769323748702377,2.4675500776981822,0.34195173781270605,B,606,Correct
2,new_learn,44,687,B,64.58020554492133,17.814926347422173,3.2290102772460667,0.2798362086865237,B,463,Correct
2,new_learn,44,688,A,74.46393179349879,42.55675748632561,3.7231965896749393,0.6684799833982148,B,695,Incorrect
2,new_learn,44,689,B,44.740516923430185,34.39809266047553,2.2370258461715093,0.5403239759982544,B,1390,Correct
2,new_learn,44,690,A,63.197107803212376,50.767109195515715,3.159855390160619,0.797447886463115,B,944,Incorrect
2,new_learn,44,691,B,54.151445566235736,37.66793869468281,2.707572278311787,0.5916865973954312,B,689,Correct
2,new_learn,44,692,B,59.75162285316479,21.583555447388818,2.9875811426582395,0.3390336961593234,B,689,Correct
2,new_learn,44,693,A,45.83084023438011,65.8163259340958,2.2915420117190055,1.0338404302041337,A,1782,Correct
2,new_learn,44,694,B,30.50089268343149,60.073728186080174,1.5250446341715747,0.9436359157156979,A,1267,Incorrect
2,new_learn,44,695,A,51.47258324394761,67.87838915271796,2.5736291621973804,1.0662312434984391,A,3032,Correct
2,new_learn,44,696,B,46.99474217814111,41.804722451532164,2.3497371089070556,0.6566670446954687,B,2141,Correct
2,new_learn,44,697,A,35.54107541794652,83.42967302779954,1.7770537708973262,1.3105102393776678,A,1370,Correct
2,new_learn,44,698,A,83.41578397239702,45.419898435954394,4.170789198619851,0.7134540962659444,A,1148,Correct
2,new_learn,44,699,A,83.5691817743874,39.66031269106905,4.17845908871937,0.6229827349466829,A,669,Correct
2,new_learn,44,700,B,36.56618537135188,32.723606253949185,1.828309268567594,0.5140212050318589,A,573,Incorrect
2,new_learn,44,701,B,56.617038336323404,33.59244484320635,2.83085191681617,0.527668889677687,B,1316,Correct
2,new_learn,44,702,B,58.71599546062946,24.336197327145427,2.935799773031473,0.38227209369635823,A,946,Incorrect
2,new_learn,44,703,B,13.448238404168862,63.356361156342814,0.6724119202084431,0.9951993938347415,A,861,Incorrect
2,new_learn,44,704,B,51.12389858607512,40.61280485365833,2.556194929303756,0.6379444468496446,B,15515,Correct
2,new_learn,44,705,A,74.25321703988443,42.66635754561029,3.7126608519942215,0.6702015771036236,B,816,Incorrect
2,new_learn,44,706,A,85.94320798542962,31.869254158493078,4.2971603992714815,0.5006010736985391,B,571,Incorrect
2,new_learn,44,707,B,31.778393176702757,57.69360107455286,1.588919658835138,0.9062489664747773,A,842,Incorrect
2,new_learn,44,708,A,43.53454822753407,70.28580587485595,2.1767274113767034,1.104046856940429,B,13387,Incorrect
2,new_learn,44,709,B,19.577214392599444,61.30617448439854,0.9788607196299722,0.9629951368994024,A,633,Incorrect
2,new_learn,44,710,A,34.682173046323314,81.56116194582118,1.7341086523161657,1.2811597359361961,B,1058,Incorrect
2,new_learn,44,711,A,60.38853738807541,52.918033363008604,3.019426869403771,0.8312345242782371,A,720,Correct
2,new_learn,44,712,A,70.34810452971347,53.70101509884179,3.517405226485673,0.8435335726241795,A,495,Correct
2,new_learn,44,713,A,67.8514654989773,64.24750249296974,3.392573274948865,1.0091974092170284,A,588,Correct
2,new_learn,44,714,A,44.3813554026138,72.67371451568366,2.21906777013069,1.1415560381577683,A,819,Correct
2,new_learn,44,715,A,33.08501741642648,83.9837529894223,1.654250870821324,1.3192137070623446,A,688,Correct
2,new_learn,44,716,A,43.932978728409935,83.77264575951811,2.1966489364204964,1.315897642449411,A,588,Correct
2,new_learn,44,717,B,21.37434935454667,58.272274594045044,1.0687174677273334,0.9153387488630952,A,915,Incorrect
2,new_learn,44,718,A,70.87212341868856,46.970395867367046,3.543606170934428,0.7378092529656234,A,765,Correct
2,new_learn,44,719,A,53.30834321704629,67.5980254263321,2.6654171608523147,1.0618273003827048,A,505,Correct
2,new_learn,44,720,B,44.70499715949312,45.75724753607629,2.2352498579746563,0.7187531635391348,A,514,Incorrect
2,new_learn,44,721,B,57.46024622053682,32.26342819842668,2.873012311026841,0.5067927450389951,B,548,Correct
2,new_learn,44,722,B,35.27127320895828,34.904175976451995,1.763563660447914,0.5482735141361347,B,535,Correct
2,new_learn,44,723,A,52.1498391085732,74.82717476673548,2.60749195542866,1.1753825126802786,B,494,Incorrect
2,new_learn,44,724,B,37.53726653528306,49.749232705419686,1.876863326764153,0.7814591199453778,B,876,Correct
2,new_learn,44,725,B,42.06316704025519,51.09444296439745,2.1031583520127595,0.8025896332810686,B,645,Correct
2,new_learn,44,726,A,44.07308371491974,70.25256701531833,2.203654185745987,1.1035247421557435,B,771,Incorrect
2,new_learn,44,727,B,13.634877501294483,67.29493066343188,0.6817438750647241,1.0570662989803605,A,761,Incorrect
2,new_learn,44,728,A,81.97008441419129,45.26909357939828,4.0985042207095645,0.7110852591185325,B,493,Incorrect
2,new_learn,44,729,A,61.444025638341714,63.47586169865957,3.072201281917086,0.9970765039639531,B,731,Incorrect
2,new_learn,44,730,B,12.880441171080761,68.13029035528669,0.644022058554038,1.070188098335541,A,728,Incorrect
2,new_learn,44,731,B,18.33169678833499,67.12865899720883,0.9165848394167496,1.0544545097548281,B,749,Correct
2,new_learn,44,732,B,29.16443755970898,51.2907420208548,1.4582218779854488,0.8056730916494336,B,606,Correct
2,new_learn,44,733,A,52.915482402223546,54.920732845020915,2.6457741201111777,0.8626928541784268,B,4340,Incorrect
2,new_learn,44,734,B,13.218361277643808,64.3252059407619,0.6609180638821904,1.0104179721207405,B,1913,Correct
2,new_learn,44,735,B,35.91534984470172,47.70841834336589,1.7957674922350861,0.7494020829095341,B,1365,Correct
2,new_learn,44,736,A,39.14913025348851,81.0324946873889,1.9574565126744254,1.2728554500597744,B,1441,Incorrect
2,new_learn,44,737,B,58.61828509528968,28.25301561803775,2.930914254764484,0.44379733153692547,B,604,Correct
2,new_learn,44,738,A,78.57513459484458,49.54938055711534,3.9287567297422292,0.7783198497407925,B,487,Incorrect
2,new_learn,44,739,A,55.20009077951733,73.93071101083046,2.760004538975867,1.161300892931475,B,510,Incorrect
2,new_learn,44,740,B,20.75661689372202,65.20036591565841,1.037830844686101,1.024164952859994,B,1192,Correct
2,new_learn,44,741,A,82.61342904168255,32.665924210295415,4.130671452084127,0.5131151376089252,B,546,Incorrect
2,new_learn,44,742,A,57.25241490440972,55.80864121004062,2.862620745220486,0.8766400861614608,B,609,Incorrect
2,new_learn,44,743,A,81.42205761338035,44.62412914060534,4.0711028806690175,0.7009541814048398,B,553,Incorrect
2,new_learn,44,744,A,56.65883219904131,56.73134268551711,2.8329416099520652,0.891133847045528,B,640,Incorrect
2,new_learn,44,745,B,47.24926988704076,45.652232099787106,2.362463494352038,0.7171035849233366,B,563,Correct
2,new_learn,44,746,A,63.298904428089884,59.602844075284665,3.164945221404494,0.9362392853998611,B,477,Incorrect
2,new_learn,44,747,B,48.24762340855386,43.3013448759169,2.4123811704276927,0.6801759347636928,B,694,Correct
2,new_learn,44,748,A,55.66943253468526,71.79283787123978,2.7834716267342627,1.12771926018325,B,722,Incorrect
2,new_learn,44,749,B,51.609683625506676,23.104977680320815,2.580484181275334,0.3629321407092601,B,497,Correct
2,new_learn,44,750,A,38.753392192969145,84.96449396135219,1.9376696096484574,1.334619150224792,B,494,Incorrect
2,new_learn,44,751,A,58.059270850415984,70.51756316734436,2.9029635425207996,1.1076872919779162,B,412,Incorrect
2,new_learn,44,752,B,31.537677795019746,48.07732463443509,1.5768838897509874,0.7551968493789643,A,549,Incorrect
2,new_learn,44,753,B,19.918950149309268,61.041631048797015,0.9959475074654633,0.9588396983301967,B,470,Correct
2,new_learn,44,754,B,30.724280911408975,43.27809744462579,1.536214045570449,0.679810764966898,B,499,Correct
2,new_learn,44,755,A,56.351573498274846,50.48518878142211,2.817578674913742,0.7930194909540477,B,547,Incorrect
2,new_learn,44,756,B,53.570807843863015,29.126575561977234,2.6785403921931508,0.4575191790486784,B,554,Correct
2,new_learn,44,757,A,31.74247184770866,83.80231405985951,1.5871235923854332,1.3163636710213962,B,859,Incorrect
2,new_learn,44,758,A,74.76248528873366,40.20038972400728,3.738124264436683,0.6314662451419395,A,616,Correct
2,new_learn,44,759,A,45.33441583451933,73.71457078978769,2.266720791725967,1.1579057702786089,B,909,Incorrect
2,new_learn,44,760,A,74.63944437936247,50.219059315275,3.731972218968124,0.78883913907529,A,548,Correct
2,new_learn,44,761,B,49.926974002108,22.491519180963905,2.4963487001054,0.3532959571349506,A,686,Incorrect
2,new_learn,44,762,A,70.56920828948138,40.636745894009806,3.5284604144740688,0.6383205118320819,A,981,Correct
2,new_learn,44,763,B,21.47545141085651,64.73160850552243,1.0737725705428256,1.016801728679999,A,1581,Incorrect
2,new_learn,44,764,A,51.773104526615,76.55017462137192,2.58865522633075,1.2024473311075892,A,1843,Correct
2,new_learn,44,765,A,86.2419676809644,34.607207369930705,4.31209838404822,0.5436087421731642,A,880,Correct
2,new_learn,44,766,A,38.45566112530038,78.9413482357124,1.922783056265019,1.2400077984089384,A,1701,Correct
2,new_learn,44,767,A,80.9197343545748,39.49270727012272,4.0459867177287405,0.6203499951509488,A,681,Correct
2,new_learn,44,768,A,47.66824391908792,82.26322706233418,2.383412195954396,1.2921877489980906,A,490,Correct
2,new_learn,44,769,B,28.476372400958134,56.53602626740686,1.4238186200479066,0.8880658239242248,B,918,Correct
2,new_learn,44,770,A,46.1883110079428,67.97799427368473,2.30941555039714,1.0677958370798848,A,537,Correct
2,new_learn,44,771,B,67.26620599116669,16.733103241969303,3.363310299558334,0.2628429710836515,A,892,Incorrect
2,new_learn,44,772,B,28.05409824107639,49.22714551832707,1.4027049120538195,0.7732581935878602,A,756,Incorrect
2,new_learn,44,773,B,41.93526389659335,36.79386040241665,2.096763194829667,0.5779566076872027,A,534,Incorrect
2,new_learn,44,774,B,55.02103171207939,29.024053094743437,2.7510515856039692,0.4559087598992304,B,444,Correct
2,new_learn,44,775,B,16.69459031581799,68.34770700502895,0.8347295157908995,1.073603271083533,B,539,Correct
2,new_learn,44,776,B,51.03267582933127,36.44366592989763,2.551633791466563,0.5724557657762351,B,326,Correct
2,new_learn,44,777,A,35.06395777659128,86.00518140931777,1.753197888829564,1.3509662304308507,B,425,Incorrect
2,new_learn,44,778,A,73.09443358463662,43.3341545264237,3.6547216792318307,0.6806913075486879,A,689,Correct
2,new_learn,44,779,A,61.12744570379465,63.897831677089954,3.0563722851897324,1.003704792885315,A,417,Correct
2,new_learn,44,780,B,47.51357870982937,39.15504605069544,2.3756789354914685,0.6150460251191742,A,475,Incorrect
2,new_learn,44,781,A,44.30826838378975,65.9396260023836,2.215413419189488,1.0357772231477342,B,386,Incorrect
2,new_learn,44,782,A,65.10106146390763,60.500968313158786,3.2550530731953815,0.9503469879384424,A,459,Correct
2,new_learn,44,783,A,62.2643608083504,62.80254240341531,3.11321804041752,0.9865000292066551,A,473,Correct
2,new_learn,44,784,A,48.25743117489672,66.22063279154972,2.412871558744836,1.0401912674699998,A,328,Correct
2,new_learn,44,785,A,39.465781984984325,72.21079767003677,1.9732890992492162,1.134284557350232,A,419,Correct
2,new_learn,44,786,B,43.859790317391926,26.22018511966766,2.1929895158695962,0.4118657047385617,B,874,Correct
2,new_learn,44,787,B,50.58231925543758,31.101338982824785,2.529115962771879,0.488538690326241,B,539,Correct
2,new_learn,44,788,B,40.50736552237656,44.37810496897974,2.025368276118828,0.6970896427539173,B,398,Correct
2,new_learn,44,789,A,67.97576599194714,48.76692727806768,3.398788299597357,0.7660291023746255,B,717,Incorrect
2,new_learn,44,790,B,47.71217237311684,28.517383360465914,2.3856086186558425,0.4479500103242176,B,604,Correct
2,new_learn,44,791,A,71.50543469104176,46.2793034733278,3.5752717345520875,0.7269535990252962,A,746,Correct
2,new_learn,44,792,A,44.22982464524574,63.78580856097399,2.2114912322622873,1.0019451378922042,A,652,Correct
2,new_learn,44,793,A,75.56128968353784,40.03109076062489,3.778064484176892,0.6288069032438269,A,448,Correct
2,new_learn,44,794,B,53.270584534387204,31.96230321988007,2.66352922671936,0.5020626849369231,A,422,Incorrect
2,new_learn,44,795,B,48.6399466482957,42.846161888823836,2.431997332414785,0.6730259371222398,A,417,Incorrect
2,new_learn,44,796,B,22.478683617548718,61.754533900616295,1.123934180877436,0.9700379501401899,A,886,Incorrect
2,new_learn,44,797,B,35.59521454726522,52.89508881796633,1.779760727363261,0.8308741122075132,B,427,Correct
2,new_learn,44,798,B,39.42275231905186,29.776812858047208,1.9711376159525928,0.467733082610796,B,450,Correct
2,new_learn,44,799,B,41.81766939793557,28.215967098881336,2.090883469896778,0.4432153747588846,B,541,Correct
2,new_learn,44,800,A,75.17918527953248,46.635189646621924,3.7589592639766236,0.7325438459629711,B,560,Incorrect
2,new_learn,44,801,B,54.888591189436504,24.013427845559562,2.744429559471825,0.3772020425355924,B,541,Correct
2,new_learn,44,802,B,34.138943060502285,53.416705301125,1.7069471530251143,0.8390676447649261,A,694,Incorrect
2,new_learn,44,803,B,57.26196246753664,18.29569511744532,2.863098123376832,0.28738810686642435,B,402,Correct
2,new_learn,44,804,A,65.39858691158358,43.5482206813047,3.2699293455791794,0.6840538508464695,B,355,Incorrect
2,new_learn,44,805,A,45.66019350415398,61.52737222612634,2.2830096752076994,0.9664697029014159,A,666,Correct
2,new_learn,44,806,A,33.559384729851445,87.62709167673648,1.6779692364925722,1.3764431373353732,B,662,Incorrect
2,new_learn,44,807,A,44.967141282365205,78.80915356939383,2.2483570641182604,1.2379312894461874,A,583,Correct
2,new_learn,44,808,A,67.63109910680105,65.72713088374266,3.3815549553400523,1.0324393576295037,B,615,Incorrect
2,new_learn,44,809,A,47.18786107343759,81.22695293904944,2.3593930536718797,1.2759099931340079,A,578,Correct
2,new_learn,44,810,A,50.53571273515251,59.34997831599926,2.5267856367576256,0.932267279341284,A,564,Correct
2,new_learn,44,811,A,77.70453056285372,41.601922645126464,3.8852265281426863,0.6534814727857008,A,609,Correct
2,new_learn,44,812,B,20.18429692863922,62.21261693044225,1.009214846431961,0.9772335015463669,A,572,Incorrect
2,new_learn,44,813,A,84.1446853524151,32.21727728506053,4.207234267620755,0.5060678081870574,B,455,Incorrect
2,new_learn,44,814,B,37.69826215265306,29.88686699825621,1.8849131076326529,0.4694618090026847,A,280,Incorrect
2,new_learn,44,815,A,57.86409259476783,49.87796582317933,2.8932046297383915,0.7834812550305148,B,415,Incorrect
2,new_learn,44,816,B,14.4799653668493,69.42262657758899,0.723998268342465,1.0904880682453055,A,813,Incorrect
2,new_learn,44,817,B,51.48973934210249,30.09799908485482,2.5744869671051243,0.4727782640636611,B,544,Correct
2,new_learn,44,818,B,67.66895572175895,16.319022933300474,3.3834477860879475,0.2563386128051006,B,578,Correct
2,new_learn,44,819,B,46.69639305645214,31.896483446436918,2.334819652822607,0.5010287903533733,B,484,Correct
2,new_learn,44,820,A,51.54409860088163,56.33923543179181,2.577204930044082,0.8849746407069148,B,420,Incorrect
2,new_learn,44,821,A,40.65569232008569,85.7145369566833,2.0327846160042844,1.3464007980448354,B,1148,Incorrect
2,new_learn,44,822,B,42.76503259320117,46.827844083465436,2.1382516296600587,0.7355700547803163,B,649,Correct
2,new_learn,44,823,A,37.75498908881847,75.81309844750872,1.8877494544409235,1.1908693656428657,A,818,Correct
2,new_learn,44,824,B,39.024544032609676,47.57496498602801,1.9512272016304837,0.747305802474486,B,742,Correct
2,new_learn,44,825,B,46.958781713755926,24.160290795416046,2.347939085687796,0.3795089603573607,A,1095,Incorrect
2,new_learn,44,826,B,26.51215488577003,43.48101587793685,1.3256077442885015,0.6829982002637377,B,505,Correct
2,new_learn,44,827,A,45.225172485793074,81.33235272544206,2.261258624289654,1.2775656091071128,A,683,Correct
2,new_learn,44,828,B,33.89505869631978,40.74021834412867,1.6947529348159889,0.6399458532777937,B,496,Correct
2,new_learn,44,829,A,67.76019763946002,53.61978129269132,3.3880098819730007,0.8422575549810524,B,653,Incorrect
2,new_learn,44,830,B,66.24047393307637,11.336688756777107,3.3120236966538186,0.17807629057162483,B,707,Correct
2,new_learn,44,831,A,37.408165598702055,85.48595315159484,1.8704082799351027,1.3428102120308578,A,711,Correct
2,new_learn,44,832,A,67.57726272434242,63.60490082761443,3.3788631362171206,0.9991034458617042,A,796,Correct
2,new_learn,44,833,B,59.76492840851355,28.485021875501417,2.9882464204256776,0.44744167730709905,B,681,Correct
2,new_learn,44,834,A,78.65037364421326,53.18800496169954,3.9325186822106626,0.8354752282338638,A,824,Correct
2,new_learn,44,835,B,25.08226668621976,57.58452702977438,1.254113334310988,0.9045356353859102,A,723,Incorrect
2,new_learn,44,836,A,49.15400976179519,75.1170423727836,2.4577004880897593,1.179935742388651,A,588,Correct
2,new_learn,44,837,B,32.96132595269653,49.40266723428243,1.6480662976348264,0.7760152822548144,A,787,Incorrect
2,new_learn,44,838,B,56.00640112856502,21.880301812556084,2.8003200564282507,0.34369497716326813,B,659,Correct
2,new_learn,44,839,A,63.45190798906741,50.06960163019506,3.1725953994533707,0.7864914632479416,A,838,Correct
2,new_learn,44,840,A,59.37736697226134,71.713125050771,2.9688683486130674,1.1264671341273416,A,1148,Correct
2,new_learn,44,841,B,37.51251987153674,47.0291318042785,1.875625993576837,0.7387318749051369,A,1006,Incorrect
2,new_learn,44,842,B,47.79002624305083,44.629224286133486,2.3895013121525412,0.7010342157636407,B,1118,Correct
2,new_learn,44,843,B,60.892792960429134,12.130930415259115,3.0446396480214566,0.1905522093689351,B,735,Correct
2,new_learn,44,844,B,35.108305249903914,45.27493345935184,1.7554152624951955,0.7111769917383323,B,823,Correct
2,new_learn,44,845,B,46.20463024650353,23.933385807178126,2.3102315123251764,0.37594474513680515,B,708,Correct
2,new_learn,44,846,A,54.22752122520029,77.90313108784099,2.7113760612600144,1.2236995215860194,A,716,Correct
2,new_learn,44,847,A,61.000539524196725,55.68973848401032,3.050026976209836,0.874772366508518,A,1036,Correct
2,new_learn,44,848,B,54.417055058894405,20.958640244697506,2.72085275294472,0.3292175511098654,B,504,Correct
2,new_learn,44,849,A,53.970289723001095,58.00056877662335,2.6985144861500547,0.9110708038633474,A,1440,Correct
2,new_learn,44,850,A,72.72599277677999,36.71334944812402,3.6362996388389996,0.5766919445745066,B,620,Incorrect
2,new_learn,44,851,B,50.77302809145887,28.37496173929729,2.5386514045729434,0.4457128567303391,B,729,Correct
2,new_learn,44,852,B,19.481865016046424,51.94602539586293,0.9740932508023212,0.8159662588341591,A,873,Incorrect
2,new_learn,44,853,A,53.119091395174806,58.59807131222242,2.65595456975874,0.9204563517450438,A,1940,Correct
2,new_learn,44,854,A,50.58554259047372,60.455782249997846,2.529277129523686,0.9496372069180873,A,897,Correct
2,new_learn,44,855,B,36.448747758126004,40.46212001020941,1.8224373879063,0.6355774948637123,B,750,Correct
2,new_learn,44,856,A,67.38449089297175,55.60638382878319,3.369224544648588,0.8734630346459977,B,798,Incorrect
2,new_learn,44,857,B,42.311373361151446,39.828350846640674,2.1155686680575725,0.6256222721220158,B,5952,Correct
2,new_learn,44,858,B,26.364160054307966,56.06314350784483,1.3182080027153984,0.8806377989069781,A,1406,Incorrect
2,new_learn,44,859,B,60.342450750234214,20.896175750459918,3.017122537511711,0.3282363611288303,B,663,Correct
2,new_learn,44,860,A,39.24951065404908,86.49633873206352,1.9624755327024541,1.3586813116153251,A,769,Correct
2,new_learn,44,861,A,75.46955349778028,55.658135998642024,3.773477674889014,0.8742759558291769,B,1383,Incorrect
2,new_learn,44,862,A,61.522959020519025,47.362823457350366,3.076147951025951,0.7439734911344111,B,1427,Incorrect
2,new_learn,44,863,A,84.260836299772,36.313556520145795,4.2130418149886,0.5704120119470388,B,1260,Incorrect
2,new_learn,44,864,B,24.304274952654723,50.29768241451618,1.215213747632736,0.7900741478301828,A,1628,Incorrect
2,new_learn,44,865,A,54.80106633081572,58.97463825515207,2.740053316540786,0.9263714514525065,A,1361,Correct
2,new_learn,44,866,A,54.49274710068306,60.85487899334108,2.724637355034153,0.9559062039028807,A,636,Correct
2,new_learn,44,867,A,61.25655478043179,56.00160852066656,3.0628277390215897,0.879671209588688,A,569,Correct
2,new_learn,44,868,B,19.80922845118363,67.62414392802145,0.9904614225591815,1.0622375688478551,A,815,Incorrect
2,new_learn,44,869,A,67.54481196589435,46.468198230550925,3.377240598294718,0.7299207509332649,A,548,Correct
2,new_learn,44,870,A,39.2363847545448,86.63343389728618,1.96181923772724,1.360834797434856,A,553,Correct
2,new_learn,44,871,A,80.34781016924654,50.855931768555266,4.017390508462327,0.798843108177785,A,767,Correct
2,new_learn,44,872,A,45.62863008257162,80.41406345055944,2.281431504128581,1.263141154907905,A,577,Correct
2,new_learn,44,873,B,56.6129639122351,18.381200631974693,2.8306481956117553,0.2887312243478588,A,669,Incorrect
2,new_learn,44,874,B,54.073260796285645,25.612643196029737,2.7036630398142822,0.40232245851831805,B,392,Correct
2,new_learn,44,875,B,24.819086351310364,43.93535414983515,1.2409543175655182,0.6901349291499397,A,1275,Incorrect
2,new_learn,44,876,B,37.32109689269186,41.01547053704842,1.866054844634593,0.6442695046135997,B,457,Correct
2,new_learn,44,877,A,64.44717246229862,44.50190394274154,3.222358623114931,0.6990342724863774,B,565,Incorrect
2,new_learn,44,878,B,66.6969951178192,17.12122734805297,3.3348497558909598,0.2689396102854193,B,618,Correct
2,new_learn,44,879,A,62.10752263082035,68.49292393333519,3.1053761315410173,1.0758843332592518,A,653,Correct
2,new_learn,44,880,A,84.18587728182825,31.225223025590765,4.209293864091412,0.490484656319494,B,484,Incorrect
2,new_learn,44,881,B,36.349151032754264,47.65882401990531,1.8174575516377132,0.7486230570983164,A,406,Incorrect
2,new_learn,44,882,A,55.90169891475563,59.065849860934335,2.7950849457377815,0.927804200005745,A,432,Correct
2,new_learn,44,883,A,83.46272774727024,37.240902152690644,4.173136387363512,0.5849787230797462,A,529,Correct
2,new_learn,44,884,B,49.276238300519125,24.49453171057263,2.4638119150259565,0.384759204375286,A,622,Incorrect
2,new_learn,44,885,B,64.2467404475006,23.83355506414314,3.21233702237503,0.37437660749219953,B,735,Correct
2,new_learn,44,886,A,72.41208265514537,41.12532466006575,3.6206041327572684,0.6459950891427886,B,491,Incorrect
2,new_learn,44,887,A,85.19271763808712,32.48615635784439,4.259635881904356,0.5102913507858665,B,709,Incorrect
2,new_learn,44,888,A,68.89722320557698,40.92381963241783,3.4448611602788493,0.642829855570188,B,712,Incorrect
2,new_learn,44,889,B,64.3437173490367,18.388902813009594,3.2171858674518345,0.2888522099246381,B,522,Correct
2,new_learn,44,890,A,77.0726767131746,36.851304785621736,3.85363383565873,0.5788589419485382,A,873,Correct
2,new_learn,44,891,B,63.64061273313354,17.861583045941813,3.182030636656677,0.280569090393074,B,613,Correct
2,new_learn,44,892,B,42.21497888022425,26.578464132483376,2.1107489440112124,0.41749353831154795,B,584,Correct
2,new_learn,44,893,B,56.06354013951741,34.2462999698585,2.8031770069758704,0.537939621989699,B,508,Correct
2,new_learn,44,894,B,17.734777021215862,61.55453730141966,0.8867388510607931,0.9668964109062944,A,1683,Incorrect
2,new_learn,44,895,B,42.976867959256005,45.28417551194788,2.1488433979628003,0.7113221655610312,B,605,Correct
2,new_learn,44,896,B,46.2713860147587,25.569252537129216,2.3135693007379348,0.40164087964213663,B,517,Correct
2,new_learn,44,897,A,72.20934649270943,50.816175898902024,3.6104673246354713,0.7982186244375864,B,606,Incorrect
2,new_learn,44,898,B,51.140077576127084,28.668120564142555,2.5570038788063543,0.4503177847826837,A,652,Incorrect
