experiment,condition,subject,trial,cat,x,y,xt,yt,resp,rt,fb
1,new_learn,24,0,A,54.95039728627386,82.51369720797351,2.747519864313693,1.2961221248455108,B,3749,Incorrect
1,new_learn,24,1,A,27.09018279347774,52.05192382953436,1.354509139673887,0.8176297075404032,A,1625,Correct
1,new_learn,24,2,B,72.52038712600678,42.818534112597284,3.626019356300339,0.6725919610280978,A,668,Incorrect
1,new_learn,24,3,A,48.82669817537421,77.21863044722494,2.441334908768711,1.212947410666335,A,2830,Correct
1,new_learn,24,4,B,67.83436249796726,41.60759689990692,3.391718124898363,0.6535706037713652,B,2021,Correct
1,new_learn,24,5,B,59.73288623049749,26.802649514526927,2.9866443115248744,0.42101503405789914,B,1271,Correct
1,new_learn,24,6,B,71.54897003577447,61.67854902605406,3.5774485017887234,0.9688443825216464,B,708,Correct
1,new_learn,24,7,B,54.21666919547645,35.31301135760414,2.710833459773822,0.5546954852859105,A,796,Incorrect
1,new_learn,24,8,A,15.685773124290655,33.40468227372083,0.7842886562145327,0.5247195221331128,A,889,Correct
1,new_learn,24,9,B,78.05140582467277,63.251238249764754,3.9025702912336384,0.9935481270795933,B,750,Correct
1,new_learn,24,10,B,84.55247038851434,60.79366790520676,4.227623519425717,0.9549447023788759,B,976,Correct
1,new_learn,24,11,A,24.734333700786536,46.36175563718449,1.2367166850393267,0.7282487545865197,A,897,Correct
1,new_learn,24,12,A,30.764952193621717,49.12278401368156,1.538247609681086,0.7716188869063005,A,822,Correct
1,new_learn,24,13,A,34.40825625918784,43.69768476458838,1.720412812959392,0.6864016271765675,A,2252,Correct
1,new_learn,24,14,A,56.035969802301466,84.37254572415108,2.801798490115073,1.3253208490583097,B,1749,Incorrect
1,new_learn,24,15,A,53.40609631309569,83.64243866763452,2.6703048156547844,1.313852354232877,B,1429,Incorrect
1,new_learn,24,16,B,55.69598376080276,35.641003789693265,2.7847991880401377,0.5598475783613316,B,2570,Correct
1,new_learn,24,17,A,41.17651059518345,71.1389076811595,2.0588255297591727,1.1174473487776657,B,1737,Incorrect
1,new_learn,24,18,A,49.25484156292424,59.73258066825607,2.462742078146212,0.9382771830367647,B,1200,Incorrect
1,new_learn,24,19,B,31.365929602745297,16.014040398745884,1.5682964801372647,0.25154795835495114,A,1670,Incorrect
1,new_learn,24,20,A,13.01138940309712,30.081507560938327,0.650569470154856,0.47251921581174827,A,3511,Correct
1,new_learn,24,21,A,50.52848135491715,76.92189902214635,2.5264240677458574,1.2082863643407542,A,1456,Correct
1,new_learn,24,22,B,48.7867755218334,36.58256729003385,2.43933877609167,0.574637623239123,A,836,Incorrect
1,new_learn,24,23,B,38.24985578438782,18.34925697867852,1.912492789219391,0.28822945461523836,A,2690,Incorrect
1,new_learn,24,24,B,86.36530082754686,65.38463172940723,4.318265041377344,1.0270593934938992,B,775,Correct
1,new_learn,24,25,B,69.31933285281045,40.91375394366107,3.4659666426405225,0.6426717441009302,B,574,Correct
1,new_learn,24,26,B,72.93802668855466,40.026158619135,3.646901334427733,0.6287294293464716,B,547,Correct
1,new_learn,24,27,B,32.42930012077852,14.30225874434662,1.621465006038926,0.22465935500489861,A,584,Incorrect
1,new_learn,24,28,B,74.56856732886217,60.20299867533671,3.728428366443109,0.9456664918125691,B,548,Correct
1,new_learn,24,29,B,44.184955295446294,32.98483561408741,2.2092477647723148,0.5181245862254199,B,878,Correct
1,new_learn,24,30,A,35.01716963413528,55.11173001419753,1.750858481706764,0.8656930306961356,A,2411,Correct
1,new_learn,24,31,B,53.482533412916254,24.13019213827714,2.674126670645813,0.37903617175660825,B,457,Correct
1,new_learn,24,32,B,36.55795569707935,25.69132882218776,1.8278977848539677,0.4035584494437239,A,803,Incorrect
1,new_learn,24,33,B,59.60320279944122,48.46754518340477,2.9801601399720608,0.761326419428579,B,5098,Correct
1,new_learn,24,34,A,51.54290994508571,71.37569970475526,2.577145497254286,1.1211668691864516,100,1650,Incorrect
1,new_learn,24,35,B,57.80904083651189,29.55908658133789,2.890452041825595,0.46431304625377884,B,1136,Correct
1,new_learn,24,36,A,52.136992392587175,82.83266232667222,2.6068496196293585,1.3011324172137873,A,817,Correct
1,new_learn,24,37,A,63.52370914188478,74.5402413258999,3.1761854570942387,1.170875372731287,A,759,Correct
1,new_learn,24,38,B,71.43449251010209,50.5025963073098,3.5717246255051043,0.7932929277312775,B,594,Correct
1,new_learn,24,39,B,55.348328366461146,41.173615876578566,2.7674164183230574,0.6467536457979365,B,584,Correct
1,new_learn,24,40,B,61.459921392651445,37.540594518648874,3.0729960696325724,0.5896862797559028,B,560,Correct
1,new_learn,24,41,A,59.11279384196675,73.27298302893527,2.955639692098338,1.1509693259515632,B,617,Incorrect
1,new_learn,24,42,B,60.41872374059619,45.704622196046934,3.0209361870298097,0.7179265266309902,B,637,Correct
1,new_learn,24,43,B,71.52768456122782,43.65515107760946,3.576384228061391,0.685733509583852,B,561,Correct
1,new_learn,24,44,A,41.14500646406922,64.81147305562898,2.0572503232034607,1.0180562380994842,A,495,Correct
1,new_learn,24,45,A,28.994902812921392,47.05125031774781,1.4497451406460695,0.7390793117022547,A,601,Correct
1,new_learn,24,46,A,45.458795911955754,72.10435451608659,2.2729397955977877,1.1326125521978583,B,1560,Incorrect
1,new_learn,24,47,A,15.116603283424695,40.187925209688366,0.7558301641712347,0.6312704530088651,A,552,Correct
1,new_learn,24,48,B,32.55256233138385,10.72147993598032,1.6276281165691924,0.16841261301243068,A,1581,Incorrect
1,new_learn,24,49,A,26.43002581505778,57.43746609360447,1.321501290752889,0.9022256076024031,A,659,Correct
1,new_learn,24,50,B,76.42043068430667,52.30222194832528,3.8210215342153333,0.8215613811964078,B,392,Correct
1,new_learn,24,51,B,74.18857380556265,53.4018388957762,3.709428690278133,0.8388341238157808,B,703,Correct
1,new_learn,24,52,B,51.04216247967067,32.810575176453916,2.5521081239835337,0.5153873096720163,B,873,Correct
1,new_learn,24,53,B,31.687206944435825,18.21984399407454,1.5843603472217913,0.28619664020668345,107,305,Incorrect
1,new_learn,24,54,A,40.008922237970445,48.982142244707745,2.000446111898522,0.7694096911653207,B,888,Incorrect
1,new_learn,24,55,A,30.993013076475535,55.03055124644759,1.5496506538237766,0.8644178775941819,A,511,Correct
1,new_learn,24,56,A,44.2359007060761,56.85134828178798,2.211795035303805,0.8930188905436991,B,6147,Incorrect
1,new_learn,24,57,A,64.28674265974101,85.99971170092755,3.2143371329870503,1.3508803124523707,B,656,Incorrect
1,new_learn,24,58,B,70.59414621091545,39.880828808585974,3.529707310545773,0.6264465940206294,107,286,Incorrect
1,new_learn,24,59,B,73.520367114685,56.950961220001524,3.6760183557342496,0.8945836069181698,B,4633,Correct
1,new_learn,24,60,A,35.94545543956261,51.70057686969839,1.7972727719781303,0.8121107624009942,B,1642,Incorrect
1,new_learn,24,61,B,43.17589028306162,26.479840180291717,2.158794514153081,0.4159443568931814,B,3159,Correct
1,new_learn,24,62,A,69.90618172027841,86.97473401507511,3.4953090860139207,1.3661959271484314,A,1030,Correct
1,new_learn,24,63,A,38.845380960089074,59.8469923179025,1.9422690480044538,0.9400743570268364,A,871,Correct
1,new_learn,24,64,B,54.8163178160923,26.491991354903554,2.7408158908046154,0.4161352270976466,B,598,Correct
1,new_learn,24,65,B,48.60142702744832,34.85705317761492,2.430071351372416,0.547533310942919,B,1567,Correct
1,new_learn,24,66,A,18.461631303317102,34.90436998922918,0.9230815651658552,0.5482765616817122,B,1106,Incorrect
1,new_learn,24,67,B,69.6285736874219,57.101750428258164,3.4814286843710955,0.8969521982626685,B,709,Correct
1,new_learn,24,68,A,28.259143086069265,56.24345205038759,1.4129571543034631,0.8834700788701372,A,422,Correct
1,new_learn,24,69,B,66.0737907122703,48.439508038172036,3.3036895356135147,0.7608860129811249,A,1287,Incorrect
1,new_learn,24,70,B,74.6393007266383,61.84289878939501,3.7319650363319146,0.9714259825673024,B,462,Correct
1,new_learn,24,71,B,42.576667954732855,17.409360327542803,2.1288333977366425,0.2734655925435303,107,289,Incorrect
1,new_learn,24,72,B,38.90623128437072,27.379074670721202,1.9453115642185361,0.4300694992381206,A,711,Incorrect
1,new_learn,24,73,B,57.75291680353137,39.48886859271772,2.8876458401765683,0.6202896973472735,B,428,Correct
1,new_learn,24,74,B,38.41885928753885,23.833226350460954,1.9209429643769425,0.37437144406975403,B,975,Correct
1,new_learn,24,75,B,75.48793489980977,54.56236805422558,3.7743967449904887,0.8570636732080875,B,642,Correct
1,new_learn,24,76,A,49.79181377322032,59.286873071327676,2.489590688661016,0.9312760244759678,B,891,Incorrect
1,new_learn,24,77,B,37.47945047619237,16.606501343062224,1.8739725238096185,0.2608543131059665,A,3215,Incorrect
1,new_learn,24,78,B,87.98452239846601,65.0122491135739,4.399226119923301,1.0212100210427666,B,665,Correct
1,new_learn,24,79,A,67.21803739408003,84.06969428143658,3.360901869704002,1.3205636697205048,B,525,Incorrect
1,new_learn,24,80,B,64.48220649314533,40.52465086859332,3.2241103246572664,0.6365597272903201,B,528,Correct
1,new_learn,24,81,A,38.89554781385222,62.69179008667954,1.9447773906926107,0.9847603358835293,B,1029,Incorrect
1,new_learn,24,82,A,62.037908297300284,74.20794296827667,3.101895414865014,1.1656556423357416,B,504,Incorrect
1,new_learn,24,83,B,49.409063775020044,42.60469184741497,2.4704531887510024,0.6692329345814791,B,5130,Correct
1,new_learn,24,84,A,16.505984607922205,40.74907861899844,0.8252992303961102,0.6400850301499921,B,523,Incorrect
1,new_learn,24,85,A,33.20748769596821,41.65286101336643,1.6603743847984105,0.6542816108029436,B,3612,Incorrect
1,new_learn,24,86,A,45.662568922484745,72.21362950405911,2.283128446124237,1.134329039695036,A,1071,Correct
1,new_learn,24,87,A,24.96881710217914,41.77685750386961,1.2484408551089572,0.6562293431211219,A,913,Correct
1,new_learn,24,88,A,66.4855680602009,79.5828113190057,3.324278403010045,1.2500838769590545,B,1147,Incorrect
1,new_learn,24,89,B,80.0048440751214,57.86302372581828,4.00024220375607,0.908910251257613,B,864,Correct
1,new_learn,24,90,A,47.00979698177151,75.0556149253124,2.3504898490885755,1.1789708423001293,B,8341,Incorrect
1,new_learn,24,91,B,50.0807902765003,20.98985317223405,2.504039513825015,0.3297078426290945,A,2272,Incorrect
1,new_learn,24,92,B,53.84464389629899,32.260824653852154,2.6922321948149492,0.5067518486564521,B,1333,Correct
1,new_learn,24,93,B,36.72054179035749,26.471746778832106,1.8360270895178743,0.41581722604034105,B,560,Correct
1,new_learn,24,94,B,63.762129594245394,36.395873037349126,3.1881064797122693,0.5717050367756141,B,592,Correct
1,new_learn,24,95,A,34.504864185028275,64.2436715823255,1.7252432092514138,1.0091372334133457,A,608,Correct
1,new_learn,24,96,B,52.92049968928323,27.193046579609714,2.646024984464162,0.42714737681613457,B,683,Correct
1,new_learn,24,97,A,15.961487230906432,37.11299841192488,0.7980743615453215,0.5829696158179642,A,482,Correct
1,new_learn,24,98,B,49.70975996348508,20.815133876746057,2.485487998174254,0.32696335835336715,B,462,Correct
1,new_learn,24,99,B,78.93042627866348,50.39734306465129,3.946521313933174,0.7916396136617649,B,489,Correct
1,new_learn,24,100,B,66.28372419863813,55.511268032241276,3.3141862099319064,0.8719689592077157,107,596,Correct
1,new_learn,24,101,B,77.3529880131604,60.97489981959305,3.8676494006580198,0.9577914866330356,B,517,Correct
1,new_learn,24,102,B,65.808370454001,32.59390272551935,3.2904185227000493,0.5119838267715596,B,495,Correct
1,new_learn,24,103,B,61.75599091662653,47.89564694693607,3.0877995458313263,0.7523430629371237,B,486,Correct
1,new_learn,24,104,A,22.568167269751264,53.51267055968718,1.128408363487563,0.8405750635214203,A,672,Correct
1,new_learn,24,105,B,55.60779370717288,48.97394493816716,2.780389685358644,0.7692809281752848,B,563,Correct
1,new_learn,24,106,B,54.83830857057871,42.81137688036203,2.7419154285289355,0.6724795354870464,B,541,Correct
1,new_learn,24,107,A,45.31153821923457,76.09330765033023,2.2655769109617285,1.1952708815081274,B,1791,Incorrect
1,new_learn,24,108,B,34.832177956183656,14.284402351319052,1.741608897809183,0.2243788674391235,A,647,Incorrect
1,new_learn,24,109,A,17.58557872777232,44.206203509204705,0.8792789363886159,0.6943894209380641,A,603,Correct
1,new_learn,24,110,A,53.02672563121395,61.74192321550633,2.651336281560697,0.9698398619616989,B,693,Incorrect
1,new_learn,24,111,A,41.53497363280602,49.97634329981368,2.076748681640301,0.7850265648198806,A,477,Correct
1,new_learn,24,112,A,37.379099926993106,56.81616082755733,1.8689549963496552,0.8924661673051514,B,282,Incorrect
1,new_learn,24,113,B,56.66354026817783,44.15571951121539,2.833177013408892,0.6935964201520288,A,712,Incorrect
1,new_learn,24,114,B,85.02824350796834,63.42409696547874,4.251412175398417,0.9962633854365734,B,666,Correct
1,new_learn,24,115,A,25.145848115293454,46.906815952800734,1.2572924057646728,0.7368105420030364,A,1795,Correct
1,new_learn,24,116,B,42.7671331738041,30.781614477354147,2.138356658690205,0.483516469538445,A,6266,Incorrect
1,new_learn,24,117,A,56.08104201144134,74.35843432821798,2.804052100572067,1.1680195550898436,A,3243,Correct
1,new_learn,24,118,A,57.488152072921665,78.31288127521758,2.874407603646083,1.230135862478366,A,704,Correct
1,new_learn,24,119,B,70.38422779961408,56.81359510948299,3.5192113899807045,0.8924258650998839,B,807,Correct
1,new_learn,24,120,B,57.228108159588686,39.99614504811058,2.8614054079794347,0.6282579772752799,A,764,Incorrect
1,new_learn,24,121,B,61.75017912177778,43.78742690622225,3.0875089560888886,0.6878112934409393,B,1156,Correct
1,new_learn,24,122,B,78.82912575895055,63.06196055206664,3.9414562879475277,0.9905749599567094,B,720,Correct
1,new_learn,24,123,A,39.57916607636512,70.79990561377416,1.9789583038182559,1.1121223167554182,A,806,Correct
1,new_learn,24,124,A,10.925830013601662,33.04559672239162,0.546291500680083,0.5190790194827822,A,1664,Correct
1,new_learn,24,125,A,32.212662728073134,63.75085407205326,1.6106331364036566,1.0013960740641872,A,1338,Correct
1,new_learn,24,126,B,47.79599644404466,29.23789235963788,2.389799822202233,0.45926773921743747,A,452,Incorrect
1,new_learn,24,127,A,53.50774974191897,65.31888698543655,2.6753874870959486,1.026026677470547,B,1506,Incorrect
1,new_learn,24,128,B,48.29627481611431,34.290730546680074,2.4148137408057155,0.5386375358583861,B,943,Correct
1,new_learn,24,129,A,47.445483391756554,63.08059480945279,2.3722741695878278,0.9908676661872565,A,931,Correct
1,new_learn,24,130,B,50.35638303213778,42.16909875177927,2.517819151606889,0.6623906542354614,A,1524,Incorrect
1,new_learn,24,131,A,44.84943051628551,68.14829934081526,2.2424715258142753,1.0704709828187167,B,2031,Incorrect
1,new_learn,24,132,B,38.32393862796825,26.589248459474952,1.9161969313984129,0.4176629381238012,B,613,Correct
1,new_learn,24,133,A,58.470730653831666,66.74884748513959,2.923536532691583,1.0484884444745004,A,689,Correct
1,new_learn,24,134,A,25.095597472398367,47.91759142405658,1.2547798736199183,0.7526877659776673,B,2392,Incorrect
1,new_learn,24,135,B,50.59027283617571,25.482409724485738,2.5295136418087854,0.4002767559310475,A,1889,Incorrect
1,new_learn,24,136,B,85.3590984150623,59.000602652366254,4.267954920753115,0.9267792992502215,B,557,Correct
1,new_learn,24,137,A,25.97161523695936,47.515255498242084,1.2985807618479681,0.7463678880335969,A,865,Correct
1,new_learn,24,138,A,64.82894231481819,83.35227487118046,3.2414471157409093,1.3092944719764883,A,692,Correct
1,new_learn,24,139,A,38.22014099414365,68.5001813217375,1.9110070497071825,1.0759983320496966,B,1057,Incorrect
1,new_learn,24,140,B,50.90983384763829,30.130894353906292,2.545491692381914,0.4732949817416109,B,512,Correct
1,new_learn,24,141,B,39.25507502222698,26.940340147088193,1.962753751111349,0.42317787345651214,B,957,Correct
1,new_learn,24,142,A,35.83747661498009,62.28173673435869,1.7918738307490045,0.9783192328873739,B,54,Incorrect
1,new_learn,24,143,B,62.64707217284509,44.51977104598387,3.1323536086422545,0.6993149282878125,B,621,Correct
1,new_learn,24,144,A,30.282654334426624,61.92354141597801,1.5141327167213314,0.9726927139834991,A,708,Correct
1,new_learn,24,145,B,34.54027072263621,21.21714454732685,1.7270135361318102,0.33327812720017386,B,694,Correct
1,new_learn,24,146,A,29.598602118621795,46.05131537038461,1.4799301059310899,0.723372370278735,A,5064,Correct
1,new_learn,24,147,B,82.21165297387647,66.46030161206775,4.110582648693824,1.0439559764991697,B,688,Correct
1,new_learn,24,148,A,35.93770411310956,62.79131662377349,1.796885205655478,0.9863236950723874,A,714,Correct
1,new_learn,24,149,A,48.01347295459951,74.29405310231644,2.4006736477299753,1.1670082571582365,B,608,Incorrect
1,new_learn,24,150,A,52.26088708741568,59.48910984948486,2.6130443543707838,0.9344527523586892,A,756,Correct
1,new_learn,24,151,B,83.95096381878156,67.87409276353567,4.197548190939078,1.066163755974979,A,598,Incorrect
1,new_learn,24,152,B,80.1074841664394,54.77308773560755,4.00537420832197,0.8603736502230693,B,2139,Correct
1,new_learn,24,153,B,50.177253919712854,23.00283446961494,2.5088626959856426,0.36132767890742185,B,968,Correct
1,new_learn,24,154,A,17.155467200056936,41.483126475800134,0.8577733600028468,0.6516154269215497,B,5629,Incorrect
1,new_learn,24,155,B,58.28944736707555,39.76993218944098,2.914472368353778,0.62470463400056,A,2907,Incorrect
1,new_learn,24,156,A,57.31206383243369,76.78585648440418,2.865603191621684,1.2061494131550217,A,2007,Correct
1,new_learn,24,157,B,73.8111551153692,49.85931893909477,3.6905577557684603,0.7831883504602528,100,579,Correct
1,new_learn,24,158,B,45.65636458172862,16.834163093813448,2.282818229086431,0.26443041552428376,B,2282,Correct
1,new_learn,24,159,A,51.07068556184488,69.86575743408326,2.553534278092244,1.0974487514620124,A,796,Correct
1,new_learn,24,160,B,72.58984671991585,52.833469051971356,3.6294923359957925,0.8299061911866845,B,663,Correct
1,new_learn,24,161,B,37.15043976626379,15.471717605580405,1.8575219883131893,0.24302917184053632,A,635,Incorrect
1,new_learn,24,162,A,58.70854763380321,85.60652157341731,2.9354273816901606,1.34470409637212,B,427,Incorrect
1,new_learn,24,163,A,62.93636583346171,88.80600699335831,3.1468182916730854,1.3949614958248913,B,1371,Incorrect
1,new_learn,24,164,B,45.27940145076943,30.127851349691237,2.2639700725384713,0.47324718234317664,A,1290,Incorrect
1,new_learn,24,165,A,21.89067025188888,38.70293796269729,1.094533512594444,0.6079443278797566,B,801,Incorrect
1,new_learn,24,166,A,47.26619560756712,71.06196878467375,2.363309780378356,1.1162387954177913,B,453,Incorrect
1,new_learn,24,167,B,85.49051927712759,57.75429349996592,4.274525963856379,0.9072023208638083,B,1870,Correct
1,new_learn,24,168,B,50.368474140124974,27.035774936369528,2.518423707006249,0.42467695962102786,B,1444,Correct
1,new_learn,24,169,B,33.10269461882348,13.816449466446006,1.655134730941174,0.21702828071240693,A,3452,Incorrect
1,new_learn,24,170,A,10.81456208674603,35.45886446264142,0.5407281043373015,0.5569865405023524,A,654,Correct
1,new_learn,24,171,B,62.342971339639234,51.156691469088784,3.1171485669819616,0.8035674305062448,B,789,Correct
1,new_learn,24,172,B,72.9540344736441,50.128598782159926,3.6477017236822054,0.7874181883439192,B,498,Correct
1,new_learn,24,173,B,51.3200067239365,21.518644782466435,2.566000336196825,0.3380140818190244,B,555,Correct
1,new_learn,24,174,B,73.11252862077114,48.5009622764725,3.6556264310385576,0.7618513338990084,B,323,Correct
1,new_learn,24,175,A,63.94406408001712,78.79108424988,3.197203204000856,1.2376474572389873,A,866,Correct
1,new_learn,24,176,A,27.40798341251439,45.1208169061881,1.3703991706257197,0.7087561345822532,A,2145,Correct
1,new_learn,24,177,B,60.58046154011876,52.2078204335275,3.0290230770059385,0.8200785256695253,B,858,Correct
1,new_learn,24,178,A,27.7282954529503,59.47663910063132,1.3864147726475151,0.9342568622937739,A,894,Correct
1,new_learn,24,179,B,65.32131584394136,51.34602027524331,3.266065792197068,0.8065414004388848,B,755,Correct
1,new_learn,24,180,B,71.25076031540573,42.99803877875068,3.5625380157702864,0.6754116137304609,B,574,Correct
1,new_learn,24,181,B,33.4542024747182,13.32456747946729,1.67271012373591,0.20930181652877952,A,1381,Incorrect
1,new_learn,24,182,A,32.039889639299496,41.47354431296746,1.601994481964975,0.6514649106597465,B,659,Incorrect
1,new_learn,24,183,A,50.15509399972134,57.06555500494276,2.507754699986067,0.8963836418827621,B,1135,Incorrect
1,new_learn,24,184,B,45.41825266361183,30.69739822249889,2.2709126331805916,0.4821936037006144,A,360,Incorrect
1,new_learn,24,185,A,42.993202221155336,69.84965082354175,2.149660111057767,1.097195749415255,B,268,Incorrect
1,new_learn,24,186,A,65.9831985418358,86.0301154047319,3.2991599270917904,1.3513578927149392,A,685,Correct
1,new_learn,24,187,A,43.78870865249473,58.80547225720533,2.1894354326247365,0.9237141981705733,B,888,Incorrect
1,new_learn,24,188,B,68.69373798075236,46.15058548298606,3.434686899037618,0.7249317015610838,B,978,Correct
1,new_learn,24,189,A,39.42649332774239,54.36742820370463,1.9713246663871196,0.8540015651966448,B,703,Incorrect
1,new_learn,24,190,B,59.998933945828135,41.15556713913162,2.999946697291407,0.646470136893087,B,555,Correct
1,new_learn,24,191,B,77.3714450896686,55.43394456147519,3.8685722544834302,0.8707543649691715,B,526,Correct
1,new_learn,24,192,B,65.26745875719126,44.90739499618014,3.2633729378595633,0.7054037110592728,A,1214,Incorrect
1,new_learn,24,193,B,68.15188437071146,55.94165451397864,3.4075942185355728,0.878729454253868,B,587,Correct
1,new_learn,24,194,A,56.39183394924126,76.8172337076816,2.8195916974620627,1.2066422854257137,A,841,Correct
1,new_learn,24,195,A,31.70232525767924,60.89573913443607,1.585116262883962,0.9565480334983241,B,4294,Incorrect
1,new_learn,24,196,A,41.92880115798035,65.01040490917805,2.096440057899018,1.021181052347858,A,546,Correct
1,new_learn,24,197,B,30.08603955672713,13.512229148132285,1.5043019778363567,0.21224959912697122,A,484,Incorrect
1,new_learn,24,198,A,17.650902752270138,36.56929381266332,0.882545137613507,0.5744291239441488,B,243,Incorrect
1,new_learn,24,199,A,10.48391513426418,34.97900283361112,0.524195756713209,0.5494488916598462,A,461,Correct
1,new_learn,24,200,A,37.6291970504215,58.482321562481715,1.8814598525210753,0.9186381589278424,A,1095,Correct
1,new_learn,24,201,A,18.731284013908745,42.19004756859758,0.9365642006954373,0.6627197174805503,A,556,Correct
1,new_learn,24,202,B,57.822204584778,31.12849370549806,2.8911102292389,0.488965235712544,B,311,Correct
1,new_learn,24,203,B,83.08402834445218,67.32421462847383,4.154201417222609,1.0575262904275793,B,563,Correct
1,new_learn,24,204,B,76.71408995372508,65.40636752303672,3.8357044976862538,1.027400818541831,A,1638,Incorrect
1,new_learn,24,205,A,30.412004166038265,52.14701842097892,1.5206002083019132,0.8191234498897949,A,1048,Correct
1,new_learn,24,206,A,25.14272276713163,44.46613302227854,1.2571361383565816,0.6984723841816838,B,762,Incorrect
1,new_learn,24,207,B,53.259403546480584,25.786929002836004,2.6629701773240293,0.4050601335697558,B,522,Correct
1,new_learn,24,208,B,69.79706891521664,43.45430883490305,3.489853445760832,0.6825786870127672,B,650,Correct
1,new_learn,24,209,A,47.04765905222513,65.8983274266065,2.3523829526112565,1.0351285066364087,A,895,Correct
1,new_learn,24,210,B,33.18900016258641,18.640862314697788,1.6594500081293204,0.292809980522167,A,1566,Incorrect
1,new_learn,24,211,A,42.790349099881254,60.36736575111108,2.139517454994063,0.9482483638012932,B,590,Incorrect
1,new_learn,24,212,B,60.03251398216235,50.48588180763804,3.0016256991081174,0.7930303769843913,A,686,Incorrect
1,new_learn,24,213,A,43.02848028602979,66.65577956160814,2.1514240143014893,1.047026536950244,A,1566,Correct
1,new_learn,24,214,B,74.43473921944076,58.92690409649934,3.721736960972038,0.925621645041763,B,747,Correct
1,new_learn,24,215,A,43.12536772178364,55.13620402084558,2.1562683860891823,0.8660774674935826,A,1124,Correct
1,new_learn,24,216,A,48.60307545725712,71.14041133215082,2.430153772862856,1.1174709680722055,A,781,Correct
1,new_learn,24,217,A,44.33473953894929,72.83157503117266,2.2167369769474647,1.1440357053365293,A,665,Correct
1,new_learn,24,218,A,27.106597806203382,44.60337125064871,1.3553298903101691,0.7006281172318809,A,828,Correct
1,new_learn,24,219,A,57.74533161879909,81.11405990926798,2.8872665809399547,1.2741366735689932,A,1089,Correct
1,new_learn,24,220,B,50.60246162328217,33.087339016110114,2.5301230811641084,0.5197347058992323,B,1406,Correct
1,new_learn,24,221,A,59.61385807415942,69.31399352016166,2.980692903707971,1.088781664169552,A,691,Correct
1,new_learn,24,222,B,74.95019500883002,53.48202746776775,3.747509750441501,0.8400937229591335,B,655,Correct
1,new_learn,24,223,A,14.84813453861959,34.043608459076154,0.7424067269309795,0.5347557511836049,A,686,Correct
1,new_learn,24,224,B,48.218415524570666,21.80846245187273,2.4109207762285334,0.3425665271244611,B,3105,Correct
1,new_learn,24,225,B,73.19557893837272,56.567498799440685,3.6597789469186357,0.8885601933013615,B,551,Correct
1,new_learn,24,226,B,70.5826187151918,57.967413331842906,3.52913093575959,0.9105499993546036,B,680,Correct
1,new_learn,24,227,A,27.050830863084116,42.47410419170963,1.3525415431542058,0.6671816684824121,A,674,Correct
1,new_learn,24,228,B,73.935077376728,60.00145446618751,3.6967538688364003,0.942500642778386,B,604,Correct
1,new_learn,24,229,B,38.54832670977068,29.525380299808567,1.9274163354885336,0.463783589221617,A,1059,Incorrect
1,new_learn,24,230,A,15.025098714087974,32.914989616995676,0.7512549357043987,0.5170274478686897,A,629,Correct
1,new_learn,24,231,B,58.47061283818255,49.803615467101665,2.923530641909127,0.782313362368288,B,966,Correct
1,new_learn,24,232,B,50.36732981305725,20.550505015754812,2.5183664906528627,0.32280657792527756,A,724,Incorrect
1,new_learn,24,233,A,45.37497667342471,63.26144769548071,2.2687488336712356,0.9937084966778857,B,379,Incorrect
1,new_learn,24,234,A,43.4839048360312,72.11205313740427,2.17419524180156,1.1327334818587302,107,365,Incorrect
1,new_learn,24,235,B,35.740043434527564,24.861549541644557,1.7870021717263782,0.3905243069844461,107,1736,Correct
1,new_learn,24,236,B,57.69903745394838,43.8729272536932,2.8849518726974193,0.6891543297584098,B,781,Correct
1,new_learn,24,237,A,59.09162575064413,71.81082723819384,2.9545812875322066,1.1280018364985778,A,770,Correct
1,new_learn,24,238,A,26.503459901853134,53.337170059282165,1.3251729950926567,0.8378183081075516,A,910,Correct
1,new_learn,24,239,B,53.266340877143335,21.834551099461454,2.6633170438571665,0.3429763266424952,B,565,Correct
1,new_learn,24,240,A,53.232107780140296,76.7845885273903,2.6616053890070144,1.2061294961328224,B,840,Incorrect
1,new_learn,24,241,A,53.72518453352465,66.64353100996091,2.686259226676232,1.0468341371508838,A,692,Correct
1,new_learn,24,242,A,52.20518666498282,70.50726162186267,2.610259333249141,1.1075254756798865,B,549,Incorrect
1,new_learn,24,243,B,82.85987640487895,63.64938506552855,4.142993820243947,0.9998022026368619,A,389,Incorrect
1,new_learn,24,244,A,52.71992746340575,70.0789024835129,2.6359963731702876,1.1007968260691983,B,532,Incorrect
1,new_learn,24,245,B,52.30537598778517,34.32930634368818,2.6152687993892583,0.5392434830608214,B,529,Correct
1,new_learn,24,246,B,40.89698785143656,22.433941831094966,2.044849392571828,0.35239153423814346,B,549,Correct
1,new_learn,24,247,A,43.491910080793474,65.23727390357462,2.1745955040396736,1.0247447021784757,B,515,Incorrect
1,new_learn,24,248,B,56.11183265382897,34.359528249163134,2.8055916326914483,0.5397182076419094,B,603,Correct
1,new_learn,24,249,A,27.84735199200338,49.89960942154039,1.3923675996001688,0.7838212318785566,A,377,Correct
1,new_learn,24,250,B,77.15956059412453,46.818113159624076,3.857978029706226,0.7354172017860532,B,555,Correct
1,new_learn,24,251,A,35.80861256249367,58.71367969806848,1.7904306281246836,0.9222723240233804,A,473,Correct
1,new_learn,24,252,A,42.735929835447195,66.56496036321856,2.1367964917723596,1.0455999523179158,B,803,Incorrect
1,new_learn,24,253,A,28.638737878836906,43.34034557710633,1.4319368939418453,0.6807885563454006,A,473,Correct
1,new_learn,24,254,A,27.808521834833982,50.13420285875246,1.390426091741699,0.7875062169731858,A,781,Correct
1,new_learn,24,255,A,59.43734453930586,81.34768712645769,2.9718672269652933,1.277806481315002,B,760,Incorrect
1,new_learn,24,256,B,80.35531836557846,50.71523564941192,4.017765918278923,0.7966330587063385,B,1116,Correct
1,new_learn,24,257,A,29.975811639237726,55.73053478469184,1.4987905819618863,0.8754131933010914,A,2108,Correct
1,new_learn,24,258,A,49.55129041965637,71.59088717991904,2.4775645209828183,1.124547026142047,B,1717,Incorrect
1,new_learn,24,259,B,42.632849368769726,29.633350974212313,2.131642468438486,0.4654795886091667,107,893,Incorrect
1,new_learn,24,260,A,52.73438457609255,74.22813003132791,2.636719228804628,1.1659727399806383,B,977,Incorrect
1,new_learn,24,261,A,33.98901419488019,62.288640817238715,1.6994507097440095,0.9784276819676524,A,595,Correct
1,new_learn,24,262,B,84.67449733676051,60.30023632622743,4.233724866838026,0.9471938972610222,B,3110,Correct
1,new_learn,24,263,B,55.91401379790465,27.41845760974057,2.7957006898952326,0.43068812499762077,B,1752,Correct
1,new_learn,24,264,B,85.80178816281091,58.906798431115845,4.290089408140545,0.9253058259884415,B,563,Correct
1,new_learn,24,265,B,65.4358750130666,37.09923122106261,3.2717937506533303,0.582753361289597,B,654,Correct
1,new_learn,24,266,B,44.6524663557112,28.208921157410597,2.23262331778556,0.4431046973690741,B,572,Correct
1,new_learn,24,267,A,58.647863043847956,76.24148426838357,2.9323931521923976,1.197598434381678,B,530,Incorrect
1,new_learn,24,268,B,50.353619520159114,40.827002325031046,2.5176809760079557,0.6413090528620546,B,597,Correct
1,new_learn,24,269,A,15.506210394449724,39.51869356984353,0.7753105197224862,0.6207581869924331,B,523,Incorrect
1,new_learn,24,270,B,46.677308467420936,39.50403241533449,2.333865423371047,0.6205278901159395,B,1052,Correct
1,new_learn,24,271,A,45.22698821457569,55.88835874315956,2.261349410728785,0.8778922862435048,A,1840,Correct
1,new_learn,24,272,A,23.340541130825187,42.73515738924806,1.1670270565412593,0.6712822825203263,A,654,Correct
1,new_learn,24,273,B,55.93490612320907,34.47862450529645,2.7967453061604535,0.5415889672586017,A,628,Incorrect
1,new_learn,24,274,B,73.8854719369786,58.764473233866,3.69427359684893,0.9230701870179372,B,1686,Correct
1,new_learn,24,275,B,53.2148327800412,29.444274791859037,2.66074163900206,0.4625095868819174,B,551,Correct
1,new_learn,24,276,A,60.962038132762984,79.8715691874002,3.0481019066381494,1.2546196749491267,A,1831,Correct
1,new_learn,24,277,A,57.069553970422334,65.53887752948171,2.8534776985211168,1.0294822808557045,A,1091,Correct
1,new_learn,24,278,B,64.22296268804182,46.965638283814975,3.211148134402091,0.7377345210179432,B,1117,Correct
1,new_learn,24,279,A,63.74746898235022,85.55026799885634,3.187373449117511,1.343820467289225,A,1945,Correct
1,new_learn,24,280,A,46.98573783930835,57.68775045553828,2.3492868919654173,0.9061570651662014,B,1392,Incorrect
1,new_learn,24,281,A,13.546666737974853,40.557067405904405,0.6773333368987425,0.6370689250676768,A,675,Correct
1,new_learn,24,282,B,44.761491424034055,28.842261059701833,2.238074571201703,0.4530531772903912,A,969,Incorrect
1,new_learn,24,283,B,74.47234668926636,54.77706170661476,3.7236173344633183,0.8604360732136784,B,987,Correct
1,new_learn,24,284,A,42.07216782729182,69.4377051006045,2.103608391364591,1.090724921130968,A,1758,Correct
1,new_learn,24,285,B,47.80199154767441,36.399497983971195,2.3900995773837206,0.5717619773040019,B,780,Correct
1,new_learn,24,286,B,52.71761528647438,34.82512801555744,2.635880764323719,0.5470318316699967,B,967,Correct
1,new_learn,24,287,B,85.47935930792127,61.861471981772084,4.273967965396064,0.9717177295909301,B,542,Correct
1,new_learn,24,288,B,32.98916869605425,15.788527425734447,1.6494584348027126,0.24800560885844153,A,1612,Incorrect
1,new_learn,24,289,B,63.746868392461,41.37947186412611,3.18734341962305,0.6499872240888206,B,666,Correct
1,new_learn,24,290,B,81.59149471132352,51.16665931233562,4.079574735566176,0.8037240050218268,B,687,Correct
1,new_learn,24,291,A,58.77964673840221,76.91035740534416,2.9389823369201107,1.2081050690479729,B,643,Incorrect
1,new_learn,24,292,B,59.471304556385654,51.631954896545935,2.973565227819283,0.8110328509673411,A,410,Incorrect
1,new_learn,24,293,B,39.88034615861278,18.603697905098098,1.9940173079306391,0.29222620334130006,B,523,Correct
1,new_learn,24,294,A,20.06402141245874,36.810107496246616,1.003201070622937,0.5782118164402946,A,756,Correct
1,new_learn,24,295,A,62.248268078173226,74.34048268896075,3.1124134039086613,1.1677375713997913,B,840,Incorrect
1,new_learn,24,296,A,38.9203778632543,60.49518609672442,1.9460188931627151,0.9502561610950842,B,1211,Incorrect
1,new_learn,24,297,B,46.31467626705296,18.541690727341038,2.315733813352648,0.291252196870743,B,2762,Correct
1,new_learn,24,298,A,10.799383282743747,32.60703814910353,0.5399691641371873,0.5121901575227289,107,856,Correct
1,new_learn,24,299,B,37.1495328075667,22.354763769974525,1.857476640378335,0.35114780816243624,100,721,Correct
1,new_learn,24,300,B,40.39915934546089,19.469951356240212,2.019957967273044,0.30583328073257443,B,757,Incorrect
1,new_learn,24,301,B,55.737555784561195,26.395158764606204,2.78687778922806,0.41461418432611546,B,890,Incorrect
1,new_learn,24,302,B,69.668231351615,49.76135347536024,3.4834115675807507,0.7816495125543832,B,789,Correct
1,new_learn,24,303,A,51.9553689884116,68.24792579256196,2.59776844942058,1.07203591146327,A,959,Correct
1,new_learn,24,304,A,49.15745374245194,59.58720925416152,2.457872687122597,0.9359936942039578,A,965,Correct
1,new_learn,24,305,B,69.56554031024086,42.88423394018456,3.478277015512043,0.6736239715065494,B,718,Incorrect
1,new_learn,24,306,B,66.18543884397202,49.30413433770315,3.3092719421986008,0.7744675311346624,B,67,Incorrect
1,new_learn,24,307,A,68.1062558920278,89.33503601939503,3.40531279460139,1.4032714643335549,B,1247,Correct
1,new_learn,24,308,B,45.157672268074215,15.691283259792552,2.2578836134037106,0.2464781010718039,A,1990,Incorrect
1,new_learn,24,309,B,73.12068366788378,61.093515298923634,3.656034183394189,0.9596546942253706,B,510,Correct
1,new_learn,24,310,A,62.36879111745155,73.24034590803181,3.1184395558725777,1.15045666325524,B,682,Correct
1,new_learn,24,311,A,22.559806666484068,38.040479591171845,1.1279903333242034,0.5975384561132896,A,746,Incorrect
1,new_learn,24,312,A,36.34210898204583,50.686579792997165,1.8171054491022915,0.7961829335663637,B,394,Correct
1,new_learn,24,313,A,42.63714431257822,67.5049932231081,2.131857215628911,1.0603659539517258,B,489,Incorrect
1,new_learn,24,314,A,47.43285393121175,79.10639701321908,2.3716426965605875,1.242600378543433,A,77,Incorrect
1,new_learn,24,315,A,53.9440911807591,67.2994467491827,2.6972045590379548,1.0571372374894492,B,398,Correct
1,new_learn,24,316,A,31.621118137021867,62.47034721078135,1.5810559068510934,0.9812819193229714,107,661,Incorrect
1,new_learn,24,317,A,54.50421223866955,76.1970550134595,2.7252106119334774,1.1969005412773084,B,345,Correct
1,new_learn,24,318,A,23.37602087273097,44.140115650272634,1.1688010436365486,0.6933513152775017,A,551,Incorrect
1,new_learn,24,319,A,55.69888506761993,74.57558868646471,2.784944253380997,1.1714306077726582,B,531,Correct
1,new_learn,24,320,A,56.15021976200464,75.51802424138776,2.807510988100232,1.1862343508517987,B,604,Incorrect
1,new_learn,24,321,A,63.05961324867155,75.05637519421224,3.1529806624335777,1.1789827845760819,B,408,Correct
1,new_learn,24,322,A,51.87307991397882,80.2927296383221,2.5936539956989413,1.2612352478421207,B,623,Incorrect
1,new_learn,24,323,A,48.04861378204303,70.20923669301715,2.402430689102151,1.102844111044648,B,627,Correct
1,new_learn,24,324,B,59.85200742765851,38.0769969757106,2.9926003713829257,0.5981120698482659,B,724,Incorrect
1,new_learn,24,325,B,64.77460966793471,52.63678102770163,3.238730483396736,0.8268166229262103,B,532,Incorrect
1,new_learn,24,326,A,53.20054807648915,65.95607779439176,2.6600274038244573,1.0360356472922903,B,531,Correct
1,new_learn,24,327,A,43.03970833582634,66.42613942089247,2.151985416791317,1.0434193580550357,B,608,Incorrect
1,new_learn,24,328,A,25.230854275505273,47.7918641849494,1.2615427137752635,0.7507128471239908,A,457,Correct
1,new_learn,24,329,A,46.15000341661739,72.88110877120693,2.307500170830869,1.1448137795055116,A,2517,Correct
1,new_learn,24,330,B,42.7623376549318,24.786486438954583,2.1381168827465897,0.3893452185246138,A,1337,Correct
1,new_learn,24,331,A,29.197173170412626,39.388323066494905,1.4598586585206312,0.618710331914609,A,643,Correct
1,new_learn,24,332,B,64.6411178413273,40.150022507204106,3.2320558920663647,0.6306750787504863,B,518,Correct
1,new_learn,24,333,B,51.144152700597054,31.455331079992185,2.5572076350298527,0.49409918518569074,A,1401,Incorrect
1,new_learn,24,334,A,22.282632059881475,33.549838439839476,1.1141316029940738,0.5269996298586207,A,693,Correct
1,new_learn,24,335,B,31.068816760108373,11.879457438653585,1.5534408380054185,0.1866020810895336,A,763,Correct
1,new_learn,24,336,A,26.202955373136895,53.132817334875774,1.3101477686568446,0.8346083430188707,A,870,Incorrect
1,new_learn,24,337,B,74.2705393339784,44.03063366570972,3.71352696669892,0.6916315762854855,B,548,Incorrect
1,new_learn,24,338,B,66.12944269295306,45.31356507548637,3.306472134647653,0.711783815745555,A,533,Correct
1,new_learn,24,339,A,28.90258913574737,46.83308506928791,1.4451294567873685,0.7356523799931036,B,1234,Correct
1,new_learn,24,340,B,59.86954383704589,45.675882359275946,2.9934771918522944,0.7174750823306646,B,1054,Correct
1,new_learn,24,341,B,57.98215659941454,42.370932969995806,2.899107829970727,0.665561058721422,A,707,Correct
1,new_learn,24,342,A,47.01661233923224,78.2656839426238,2.3508306169616118,1.2293944885116377,B,631,Correct
1,new_learn,24,343,B,62.466564798780354,52.13044652315078,3.123328239939018,0.8188631391274304,A,739,Correct
1,new_learn,24,344,A,42.946127117717275,69.12496967820658,2.147306355885864,1.085812484603355,A,813,Incorrect
1,new_learn,24,345,A,29.615732360998674,50.15569232953624,1.4807866180499338,0.787843772790905,B,635,Correct
1,new_learn,24,346,A,45.898039760798596,70.52932201525621,2.29490198803993,1.107871999528989,B,1369,Incorrect
1,new_learn,24,347,A,31.475988952816223,54.236145195703614,1.5737994476408113,0.8519393765292592,A,652,Incorrect
1,new_learn,24,348,A,66.37663917856409,84.02829417652275,3.3188319589282047,1.3199133583932294,B,563,Correct
1,new_learn,24,349,A,15.196984481903787,34.03185515726577,0.7598492240951893,0.5345711307504902,A,628,Incorrect
1,new_learn,24,350,B,56.132346545076935,24.466229154330534,2.806617327253847,0.38431462886144613,B,535,Correct
1,new_learn,24,351,A,40.66638478174277,60.39747874069073,2.0333192390871386,0.9487213775354987,B,497,Correct
1,new_learn,24,352,B,64.80648913743684,55.558611439499856,3.2403244568718423,0.8727126277099129,A,753,Incorrect
1,new_learn,24,353,B,74.82358788291887,51.9949763411361,3.7411793941459437,0.8167351784844415,B,781,Incorrect
1,new_learn,24,354,A,35.48162262914332,47.66350810419365,1.7740811314571658,0.7486966345222619,A,691,Incorrect
1,new_learn,24,355,B,62.68955699846483,34.95242387352607,3.1344778499232415,0.5490313903311301,B,363,Correct
1,new_learn,24,356,B,64.66506495155164,45.89146909178035,3.233253247577582,0.720861510805901,B,406,Incorrect
1,new_learn,24,357,A,52.75067316448511,59.74015045266033,2.637533658224255,0.9383960889321331,B,412,Incorrect
1,new_learn,24,358,A,54.70171810587069,69.81182988381069,2.7350859052935346,1.0966016594832002,B,840,Incorrect
1,new_learn,24,359,B,42.8354456679489,28.63054208236065,2.141772283397445,0.4497275033711881,B,787,Incorrect
1,new_learn,24,360,A,24.259296743032266,55.47893471064577,1.2129648371516133,0.8714610685797627,A,500,Correct
1,new_learn,24,361,A,58.26484548149645,68.19242954654251,2.9132422740748223,1.0711641784692876,A,731,Correct
1,new_learn,24,362,A,59.101061956300754,79.02628030932254,2.9550530978150378,1.2413419083014774,B,831,Incorrect
1,new_learn,24,363,A,12.312001517220668,33.46358981370169,0.6156000758610334,0.5256448396073373,A,640,Correct
1,new_learn,24,364,A,46.45517326616734,60.5641322278251,2.322758663308367,0.9513391643898808,A,1746,Incorrect
1,new_learn,24,365,B,58.06624838518178,32.78852990450919,2.903312419259089,0.5150410233500766,B,706,Incorrect
1,new_learn,24,366,B,81.40173593790678,63.63304023683634,4.070086796895339,0.9995454586681436,B,1005,Correct
1,new_learn,24,367,A,51.772120938426085,67.90590354987607,2.5886060469213046,1.0666634386383387,A,472,Correct
1,new_learn,24,368,A,29.83491723373423,42.79893284689511,1.4917458616867116,0.672284065066443,B,256,Correct
1,new_learn,24,369,A,23.96226104157929,44.78705039235356,1.1981130520789645,0.7035133424428689,A,328,Incorrect
1,new_learn,24,370,B,68.75424718838067,44.2744654586817,3.4377123594190335,0.6954616771330474,B,653,Incorrect
1,new_learn,24,371,B,42.51898348298066,25.2537960830381,2.1259491741490333,0.39668570124863595,B,686,Correct
1,new_learn,24,372,A,11.622048081675413,35.932863503559986,0.5811024040837707,0.5644321000261441,A,579,Incorrect
1,new_learn,24,373,A,30.728554154486346,43.824065224099854,1.5364277077243174,0.6883868067923602,B,1438,Correct
1,new_learn,24,374,B,89.07395481728052,63.15325101754273,4.453697740864026,0.9920089472351218,B,1079,Incorrect
1,new_learn,24,375,A,60.05245564927476,69.7385248989735,3.002622782463738,1.0954501874740201,B,457,Correct
1,new_learn,24,376,A,47.59109734766643,69.9127158813753,2.3795548673833213,1.0981863730271957,A,661,Correct
1,new_learn,24,377,A,53.52023166901475,83.20535775641498,2.676011583450737,1.3069867033343192,B,1100,Correct
1,new_learn,24,378,B,60.191756816125626,49.86465732339289,3.0095878408062813,0.7832722056047179,B,533,Incorrect
1,new_learn,24,379,A,47.79271484866836,65.75655641230951,2.389635742433418,1.032901572751372,A,362,Correct
1,new_learn,24,380,B,65.70904539039154,47.71617578932706,3.285452269519577,0.7495239365857451,B,386,Incorrect
1,new_learn,24,381,B,64.66194643825081,38.11148337995557,3.2330973219125405,0.5986537810193897,A,546,Incorrect
1,new_learn,24,382,B,66.07683008554342,55.06748002492559,3.303841504277171,0.8649979534900445,B,540,Incorrect
1,new_learn,24,383,B,73.44594751044168,44.306563782344995,3.672297375522084,0.695965876422113,B,444,Correct
1,new_learn,24,384,A,28.690172325476944,56.45029687268455,1.4345086162738472,0.8867191897409433,B,473,Correct
1,new_learn,24,385,B,38.89628295941695,15.072028642667728,1.9448141479708476,0.2367508722924994,B,1450,Correct
1,new_learn,24,386,B,79.61787651338892,57.909100018183,3.980893825669446,0.9096340159656013,B,674,Incorrect
1,new_learn,24,387,B,54.544633857264486,34.391791071754035,2.7272316928632243,0.5402249908740876,B,1357,Incorrect
1,new_learn,24,388,A,56.36426694249728,84.92687720481929,2.818213347124864,1.3340282675949138,A,822,Correct
1,new_learn,24,389,B,46.982100165363946,27.927404768200716,2.349105008268197,0.43868264826803965,B,784,Correct
1,new_learn,24,390,B,64.78678375645514,38.60192019909259,3.2393391878227566,0.6063575445596435,107,1219,Correct
1,new_learn,24,391,A,49.71132770191342,62.3007101528684,2.4855663850956713,0.978617266648392,107,301,Correct
1,new_learn,24,392,A,43.57939300822469,54.53457125585778,2.1789696504112346,0.8566270421203594,100,301,Correct
1,new_learn,24,393,B,58.270807304329395,32.90689003981161,2.91354036521647,0.5169002200077963,100,336,Incorrect
1,new_learn,24,394,A,45.26417169454622,52.375667422232254,2.263208584727311,0.8227150600027356,100,343,Incorrect
1,new_learn,24,395,B,70.43056900606314,47.48423282876101,3.521528450303157,0.7458805850809143,B,1839,Incorrect
1,new_learn,24,396,A,11.613366074445644,31.051911630258424,0.5806683037222822,0.48776228728769655,A,586,Correct
1,new_learn,24,397,A,39.3098068343253,66.03621147395033,1.9654903417162648,1.037294384187322,A,5920,Incorrect
1,new_learn,24,398,B,72.1737365607191,49.56189703468026,3.6086868280359554,0.7785164581106263,B,671,Correct
1,new_learn,24,399,A,64.06001801769858,79.45777176871833,3.2030009008849287,1.2481197602960998,A,1965,Correct
1,new_learn,24,400,B,86.89718618487045,68.19380842212537,4.344859309243523,1.0711858377962942,B,348,Correct
1,new_learn,24,401,A,27.20839163041296,55.73418379283081,1.3604195815206481,0.875470511786903,A,714,Correct
1,new_learn,24,402,B,38.33139230638379,12.144150000392443,1.9165696153191896,0.1907598621266269,B,669,Correct
1,new_learn,24,403,B,50.266856187958545,41.75658189523831,2.5133428093979275,0.6559108546055062,B,652,Correct
1,new_learn,24,404,A,61.07069087147549,87.23966186183742,3.053534543573775,1.3703574040340305,A,638,Incorrect
1,new_learn,24,405,B,40.5929325606225,30.17639763932481,2.029646628031125,0.474009745677536,107,498,Correct
1,new_learn,24,406,B,48.15178645301339,33.25717540422977,2.4075893226506695,0.5224024896453769,B,280,Incorrect
1,new_learn,24,407,A,47.57242242279066,60.83046405430286,2.378621121139533,0.9555226949372791,100,2487,Incorrect
1,new_learn,24,408,A,25.483803953854768,40.0354522390157,1.2741901976927383,0.6288754131861838,107,352,Incorrect
1,new_learn,24,409,B,47.15820701387743,37.63279484473718,2.3579103506938712,0.5911345590913908,107,313,Incorrect
1,new_learn,24,410,B,54.70858567829231,31.37875648239296,2.7354292839146153,0.49289635421934413,B,398,Correct
1,new_learn,24,411,A,54.1026237038038,70.89431687994025,2.7051311851901905,1.1136053254564358,A,1084,Correct
1,new_learn,24,412,B,54.61774766657567,30.69179138506788,2.7308873833287834,0.4821055317041988,A,1125,Incorrect
1,new_learn,24,413,B,42.95524628332274,24.285256265263214,2.147762314166137,0.3814719133674821,B,1305,Incorrect
1,new_learn,24,414,B,59.977863690893486,47.676657010650544,2.9988931845446745,0.7489031770619002,B,651,Incorrect
1,new_learn,24,415,A,32.98013376216827,52.830232093463394,1.6490066881084136,0.8298553451613415,A,952,Incorrect
1,new_learn,24,416,B,64.4354416585395,44.51046210929722,3.221772082926975,0.699168703852275,A,735,Correct
1,new_learn,24,417,A,23.874427275861315,37.15665752057932,1.1937213637930657,0.5836554114930197,B,792,Correct
1,new_learn,24,418,A,49.32493347254625,59.54890552797851,2.4662466736273125,0.9353920206800496,B,634,Correct
1,new_learn,24,419,A,51.597168199425724,68.09885790400622,2.579858409971286,1.069694358545406,B,611,Incorrect
1,new_learn,24,420,B,51.80315469257093,34.186955928204306,2.5901577346285465,0.5370074479632234,B,738,Correct
1,new_learn,24,421,A,19.196667006261386,33.06625432134743,0.9598333503130693,0.5194035082883842,A,1277,Incorrect
1,new_learn,24,422,A,31.534429870611632,52.19322182426152,1.5767214935305816,0.8198492112514122,A,1666,Incorrect
1,new_learn,24,423,B,77.59265510632392,57.35293285320867,3.8796327553161962,0.9008977625673452,B,623,Incorrect
1,new_learn,24,424,B,39.148541140457496,25.930807385571676,1.957427057022875,0.4073201699208196,B,2145,Incorrect
1,new_learn,24,425,B,63.73788662615191,50.01249468647072,3.1868943313075953,0.7855944294735748,A,1028,Incorrect
1,new_learn,24,426,B,49.646240403004484,32.293266146822134,2.482312020150224,0.5072614384363818,107,395,Incorrect
1,new_learn,24,427,B,57.57985317444417,25.881336356115803,2.8789926587222086,0.4065430808072991,B,696,Incorrect
1,new_learn,24,428,B,51.06400444236489,39.734611996399686,2.553200222118244,0.6241498257056505,B,720,Correct
1,new_learn,24,429,A,51.18911882150822,69.8145048629829,2.5594559410754107,1.09664367795778,A,871,Incorrect
1,new_learn,24,430,A,41.022765530533476,68.99007646120353,2.051138276526674,1.0836935869055755,B,486,Incorrect
1,new_learn,24,431,B,81.36096204090435,62.93664800965952,4.068048102045218,0.9886065551435651,B,435,Incorrect
1,new_learn,24,432,A,42.50633443764786,70.20820075092733,2.125316721882393,1.1028278385043537,A,311,Correct
1,new_learn,24,433,B,53.82024145067847,31.554626534703296,2.691012072533924,0.4956589145409671,B,387,Correct
1,new_learn,24,434,A,18.01829159289007,34.18595347238744,0.9009145796445034,0.5369917014240743,A,1817,Incorrect
1,new_learn,24,435,B,51.870783934828246,38.44826514725251,2.5935391967414123,0.6039439366494049,A,1164,Correct
1,new_learn,24,436,A,24.373085250660278,53.40316529781619,1.218654262533014,0.8388549588903034,A,877,Correct
1,new_learn,24,437,A,54.029125906388686,80.60529156154729,2.701456295319434,1.2661449590511016,B,539,Incorrect
1,new_learn,24,438,B,83.72490854403229,53.80237777668943,4.186245427201615,0.8451257738445513,A,440,Correct
1,new_learn,24,439,B,56.92396495692102,25.2800157159566,2.846198247846051,0.3970975582794189,A,540,Correct
1,new_learn,24,440,B,37.5510256966095,21.494506529325374,1.877551284830475,0.33763491902533216,A,575,Incorrect
1,new_learn,24,441,B,64.13010401155678,31.428982207817732,3.206505200577839,0.49368529806942246,A,586,Correct
1,new_learn,24,442,B,61.349535286981684,34.810673380378304,3.0674767643490846,0.5468047787915512,A,590,Incorrect
1,new_learn,24,443,B,65.14369381155039,56.1096824611794,3.2571846905775197,0.8813688310764863,B,2574,Incorrect
1,new_learn,24,444,B,74.47835688463348,44.33366929961082,3.7239178442316745,0.6963916488916835,A,1628,Incorrect
1,new_learn,24,445,B,58.01961291244705,40.15075456281776,2.9009806456223526,0.6306865778531757,B,511,Correct
1,new_learn,24,446,A,49.161125796090516,60.797015233056335,2.4580562898045257,0.9549972820817827,A,1020,Correct
1,new_learn,24,447,B,32.979360272831016,16.61747120067154,1.6489680136415508,0.26102662722634834,A,755,Correct
1,new_learn,24,448,B,87.52494692780304,63.02712779692037,4.376247346390152,0.9900278083183504,B,520,Incorrect
1,new_learn,24,449,A,44.13618494896562,66.88506742892706,2.206809247448281,1.050628182347876,B,339,Correct
1,new_learn,24,450,B,73.61787246028585,49.10637321302383,3.680893623014293,0.7713611066523712,A,378,Correct
1,new_learn,24,451,A,36.82634450897401,50.18273589544924,1.8413172254487007,0.7882685721309007,B,972,Correct
1,new_learn,24,452,B,60.98896744378219,46.17684389181307,3.0494483721891097,0.7253441676824133,A,586,Incorrect
1,new_learn,24,453,B,51.71490354197562,26.282898262316095,2.585745177098781,0.41285080047970096,A,57,Correct
1,new_learn,24,454,B,71.81383431900355,50.438146656432586,3.5906917159501774,0.7922805549826659,A,811,Incorrect
1,new_learn,24,455,A,46.056763359004464,64.95024940160823,2.302838167950223,1.0202361318445863,B,944,Correct
1,new_learn,24,456,B,77.1032512721886,50.98196937430535,3.8551625636094298,0.8008229022592874,B,1345,Incorrect
1,new_learn,24,457,A,62.121178145761334,81.65694593424472,3.106058907288067,1.2826643073080106,A,625,Correct
1,new_learn,24,458,A,52.09299541798292,70.82931258919669,2.604649770899146,1.1125842404451767,A,1451,Correct
1,new_learn,24,459,A,20.42315135333599,38.41321377052678,1.0211575676667994,0.6033933509113061,A,536,Correct
1,new_learn,24,460,A,45.72758865901124,77.76097015917513,2.2863794329505622,1.2214664629403986,A,439,Incorrect
1,new_learn,24,461,B,82.36160268433524,58.19606389158788,4.118080134216762,0.9141416339482736,B,2973,Incorrect
1,new_learn,24,462,B,39.953930523318895,29.72042870498662,1.9976965261659447,0.4668474024056259,A,1720,Incorrect
1,new_learn,24,463,A,21.033138002647934,52.09034188879158,1.0516569001323968,0.8182331770040414,107,2063,Incorrect
1,new_learn,24,464,A,60.47534935881984,75.39457532540447,3.0237674679409916,1.184295219814065,100,770,Correct
1,new_learn,24,465,A,48.412042972013985,70.76962425497747,2.420602148600699,1.111646658283736,A,78,Correct
1,new_learn,24,466,A,51.973884769244464,59.651492749625184,2.5986942384622234,0.9370034569894364,100,2068,Correct
1,new_learn,24,467,A,24.50240743778053,35.47167555063615,1.2251203718890264,0.557187776601996,100,2319,Incorrect
1,new_learn,24,468,A,15.260582416206194,42.746698673721355,0.7630291208103097,0.6714635725928977,A,3042,Incorrect
1,new_learn,24,469,B,66.85408369132327,35.16046507389412,3.342704184566163,0.5522992938647314,100,4127,Incorrect
1,new_learn,24,470,A,49.84365920538876,69.30251762627688,2.492182960269438,1.0886014012499428,A,1748,Incorrect
1,new_learn,24,471,B,44.414409320373025,23.767483893510416,2.2207204660186513,0.3733387639708302,B,969,Incorrect
1,new_learn,24,472,B,67.11119522700025,37.89577878310966,3.3555597613500128,0.5952655011354063,A,758,Correct
1,new_learn,24,473,B,48.49800684314774,35.385878672318775,2.4249003421573874,0.5558400823888819,A,622,Incorrect
1,new_learn,24,474,B,72.31945500899431,41.32149754956116,3.6159727504497154,0.6490765656851498,B,3210,Incorrect
1,new_learn,24,475,B,58.42546576350619,48.01014056763609,2.9212732881753096,0.7541415245254943,A,360,Correct
1,new_learn,24,476,A,28.62073396439744,46.549236101222874,1.4310366982198721,0.731193690829093,A,712,Incorrect
1,new_learn,24,477,B,56.64492321966043,44.48720273846998,2.832246160983021,0.6988033465096852,B,645,Incorrect
1,new_learn,24,478,A,18.368797268298398,40.20689300529675,0.9184398634149198,0.6315683984455555,A,2066,Incorrect
1,new_learn,24,479,A,58.248174755331135,73.18045091250882,2.912408737766557,1.149515834865631,B,623,Correct
1,new_learn,24,480,B,67.13517472670381,58.68000901316296,3.3567587363351903,0.9217434261416781,B,793,Incorrect
1,new_learn,24,481,A,44.756311403922766,76.27951991177301,2.2378155701961386,1.1981958968709123,A,563,Incorrect
1,new_learn,24,482,A,25.80380487127232,49.28094505968191,1.290190243563616,0.7741032748072946,B,250,Incorrect
1,new_learn,24,483,A,30.151652078800282,46.44640576481852,1.5075826039400142,0.7295784356820224,107,420,Incorrect
1,new_learn,24,484,A,29.575913895613716,55.312862505259076,1.478795694780686,0.8688524124777213,107,669,Correct
1,new_learn,24,485,B,73.3213620952367,55.66554144443986,3.6660681047618344,0.874392280299752,B,584,Correct
1,new_learn,24,486,A,53.0207226126461,82.841499802707,2.6510361306323045,1.3012712359627232,A,779,Incorrect
1,new_learn,24,487,B,61.75631993896685,51.83662060210257,3.0878159969483425,0.8142477323524336,B,369,Incorrect
1,new_learn,24,488,A,19.931326280351943,45.47538378202989,0.9965663140175971,0.7143256580440076,A,419,Correct
1,new_learn,24,489,A,12.852951004859982,30.781306948942728,0.6426475502429991,0.4835116388934546,A,1820,Incorrect
1,new_learn,24,490,B,58.02739565659563,26.921040498674163,2.9013697828297813,0.4228747152881403,B,1107,Correct
1,new_learn,24,491,B,42.15769361605298,33.64603253059945,2.1078846808026492,0.5285106431028721,B,790,Incorrect
1,new_learn,24,492,A,63.74803309763003,84.65321829807725,3.1874016548815014,1.3297296435398627,A,2520,Incorrect
1,new_learn,24,493,B,63.827397984635425,36.94008311883032,3.191369899231771,0.5802534687455684,B,544,Correct
1,new_learn,24,494,A,53.011500625273825,77.09411661877635,2.650575031263691,1.2109915520227128,B,517,Correct
1,new_learn,24,495,B,78.4268184751002,46.7427787036978,3.9213409237550105,0.7342338509195524,A,767,Incorrect
1,new_learn,24,496,A,14.931271288475678,34.95601166546721,0.7465635644237838,0.5490877472351544,B,653,Correct
1,new_learn,24,497,B,31.474701870865964,14.003471814203827,1.5737350935432983,0.21996602088127237,A,468,Correct
1,new_learn,24,498,A,34.09599933117387,52.48867943501958,1.7047999665586935,0.8244902485484359,B,492,Correct
1,new_learn,24,499,A,24.484094732730423,40.01868008159049,1.2242047366365212,0.6286119567534243,B,908,Correct
1,new_learn,24,500,A,55.333638044919475,64.26662755184694,2.7666819022459737,1.0094978249393687,A,1722,Incorrect
1,new_learn,24,501,B,52.49372025354775,28.231594179352403,2.624686012677387,0.4434608443649094,B,1423,Correct
1,new_learn,24,502,A,53.682100647102345,62.29729416862954,2.6841050323551174,0.978563608493444,B,1225,Correct
1,new_learn,24,503,B,55.03512602244961,33.51777475844461,2.75175630112248,0.5264959747290349,B,831,Incorrect
1,new_learn,24,504,A,12.4318413450363,38.9210905299968,0.621592067251815,0.6113710603937061,A,259,Incorrect
1,new_learn,24,505,A,60.55170769123795,79.71941154995233,3.027585384561897,1.2522295883691577,B,1838,Incorrect
1,new_learn,24,506,B,33.637244026762595,16.426587727866078,1.68186220133813,0.25802823664706165,A,1063,Correct
1,new_learn,24,507,B,50.41924200344479,36.69896217512437,2.5209621001722398,0.576465949818702,A,1848,Correct
1,new_learn,24,508,B,55.06024281134138,36.84366285532283,2.753012140567069,0.5787389027881068,B,1400,Correct
1,new_learn,24,509,A,54.60797182004018,76.54808611323213,2.7303985910020088,1.2024145248984446,A,1444,Correct
1,new_learn,24,510,A,56.541937377766374,79.151773314964,2.8270968688883187,1.2433131478244779,B,1459,Correct
1,new_learn,24,511,A,29.60660642993802,49.084010753604204,1.4803303214969008,0.7710098379612268,B,522,Incorrect
1,new_learn,24,512,B,50.041569091920465,31.126171362284133,2.502078454596023,0.4889287564306442,B,879,Correct
1,new_learn,24,513,B,56.6867651323854,36.7461772519916,2.83433825661927,0.577207602511826,B,656,Incorrect
1,new_learn,24,514,B,61.04786667839263,44.31752756811882,3.0523933339196314,0.6961380951663261,B,568,Correct
1,new_learn,24,515,B,45.49328576877183,30.79463170761672,2.2746642884385917,0.48372094371326,B,849,Correct
1,new_learn,24,516,A,31.301024336033965,63.108176772365574,1.5650512168016981,0.9913009226475484,B,647,Correct
1,new_learn,24,517,A,32.37224975309438,57.20296257297157,1.6186124876547188,0.8985420349140969,A,1116,Correct
1,new_learn,24,518,A,21.322086617765496,38.85844981993739,1.0661043308882747,0.6103871024210147,B,1212,Incorrect
1,new_learn,24,519,B,85.81935136480476,67.63310189374144,4.290967568240238,1.0623782802443402,A,337,Correct
1,new_learn,24,520,A,50.71102521301874,58.980732882704345,2.535551260650937,0.9264671856382295,A,634,Correct
1,new_learn,24,521,B,68.03922992752696,55.699258553181544,3.401961496376348,0.8749219074053679,A,642,Incorrect
1,new_learn,24,522,A,22.31296712445519,45.48945613139479,1.1156483562227595,0.7145467059909253,B,267,Incorrect
1,new_learn,24,523,A,53.128370341365354,73.47890496710299,2.6564185170682673,1.1542039401923667,A,440,Incorrect
1,new_learn,24,524,A,65.46189812333995,79.23924034232675,3.2730949061669974,1.2446870766774485,B,767,Incorrect
1,new_learn,24,525,B,38.78278913500848,23.267213861652742,1.9391394567504239,0.36548054068635427,B,2248,Correct
1,new_learn,24,526,B,35.07550328782195,21.433888159515455,1.7537751643910977,0.336682727898995,B,1106,Correct
1,new_learn,24,527,A,32.293968504230996,44.80339323417409,1.61469842521155,0.7037700552018797,A,1625,Incorrect
1,new_learn,24,528,A,66.91901574246755,82.98134559258779,3.3459507871233773,1.3034679284933477,B,1547,Correct
1,new_learn,24,529,A,52.913304660805906,62.0003632118373,2.6456652330402957,0.9738994279310346,A,521,Correct
1,new_learn,24,530,A,22.004466359728713,51.87187924626913,1.1002233179864356,0.8148015738398798,A,503,Incorrect
1,new_learn,24,531,B,31.822652193942556,10.711862958679664,1.5911326096971277,0.1682615498862433,B,1161,Correct
1,new_learn,24,532,B,44.45600740858917,21.935037237552333,2.222800370429459,0.34455475920856476,A,1467,Incorrect
1,new_learn,24,533,B,55.87206706722795,47.50294412635649,2.7936033533613975,0.7461745014562398,107,856,Incorrect
1,new_learn,24,534,A,56.5725053855642,72.49029122332537,2.82862526927821,1.1386748318189184,100,697,Incorrect
1,new_learn,24,535,B,64.21734217488182,39.10854932270923,3.210867108744091,0.6143156562238871,A,384,Correct
1,new_learn,24,536,B,81.07149706524285,58.68914653329312,4.053574853262143,0.9218869579722427,A,628,Correct
1,new_learn,24,537,A,52.17049940376437,65.59799141834786,2.6085249701882187,1.0304108396506397,B,265,Correct
1,new_learn,24,538,B,74.42497534549824,60.07205959313882,3.721248767274912,0.9436097055190658,B,359,Incorrect
1,new_learn,24,539,A,37.788929454176014,52.413271299562815,1.8894464727088007,0.8233057403265764,A,314,Correct
1,new_learn,24,540,A,26.92141755162288,47.705779439458176,1.346070877581144,0.749360631103884,A,773,Correct
1,new_learn,24,541,A,29.474283478859263,48.81457660746602,1.4737141739429631,0.7667775762905571,A,780,Incorrect
1,new_learn,24,542,B,70.8081105435784,54.84927270898076,3.5404055271789194,0.8615703609863854,A,308,Incorrect
1,new_learn,24,543,A,57.63118908406614,73.97239430737724,2.881559454203307,1.1619556526225188,100,525,Incorrect
1,new_learn,24,544,B,43.66901692761485,29.929422121584828,2.1834508463807425,0.47013026331679364,100,90,Incorrect
1,new_learn,24,545,A,33.69934851004204,53.767310258977204,1.6849674255021023,0.8445749345644293,A,569,Correct
1,new_learn,24,546,A,64.07372892230683,84.83973370930761,3.2036864461153414,1.3326594207683757,A,558,Incorrect
1,new_learn,24,547,B,44.53019597716676,26.182326568348103,2.226509798858338,0.4112710240050563,A,331,Incorrect
1,new_learn,24,548,A,20.76906266638291,33.62416514519734,1.0384531333191456,0.5281671510162096,A,156,Incorrect
1,new_learn,24,549,B,77.54076092799886,54.94988867288526,3.877038046399943,0.8631508328515666,A,225,Incorrect
1,new_learn,24,550,B,68.6704771912369,53.19111599916384,3.433523859561845,0.8355240962960782,B,311,Incorrect
1,new_learn,24,551,A,53.23048499531353,64.05689337125291,2.6615242497656766,1.0062033281345644,A,348,Correct
1,new_learn,24,552,A,16.799978177394802,33.34044475305146,0.8399989088697402,0.5237104815180141,107,214,Incorrect
1,new_learn,24,553,B,68.18486891973723,36.11389501341593,3.4092434459868617,0.5672757363333027,A,4004,Incorrect
1,new_learn,24,554,B,73.57404910531449,60.1067534830395,3.678702455265724,0.9441546758672479,B,871,Correct
1,new_learn,24,555,A,26.415868760889303,57.38888759246254,1.3207934380444653,0.9014625382908537,B,500,Incorrect
1,new_learn,24,556,B,35.822060790760254,22.987344729975028,1.7911030395380125,0.361084366646128,A,1324,Incorrect
1,new_learn,24,557,A,55.68155307939636,76.02079435674827,2.784077653969818,1.1941318453561038,B,1588,Correct
1,new_learn,24,558,A,16.214254502463987,32.73916884663085,0.8107127251231994,0.5142656616660564,A,3376,Correct
1,new_learn,24,559,B,34.25089431840488,23.062776541679973,1.712544715920244,0.3622692467736241,A,3800,Correct
1,new_learn,24,560,A,56.76646217976848,79.2967020170586,2.8383231089884244,1.2455896825534511,B,1329,Incorrect
1,new_learn,24,561,B,42.835273316226285,18.898458396355693,2.141763665811314,0.29685629031081695,B,827,Correct
1,new_learn,24,562,B,72.46387157371494,57.579632626698256,3.623193578685747,0.9044587542821719,B,943,Correct
1,new_learn,24,563,B,71.95308515885336,40.75275751431365,3.5976542579426676,0.6401428181024701,B,506,Incorrect
1,new_learn,24,564,A,64.09175099577934,79.53471614753725,3.2045875497889664,1.2493283997722626,B,4052,Correct
1,new_learn,24,565,A,34.61462471479669,44.12426814138293,1.7307312357398346,0.6931023831899737,A,934,Correct
1,new_learn,24,566,A,51.998619297342636,64.75583492104982,2.5999309648671316,1.0171822763252174,B,790,Incorrect
1,new_learn,24,567,A,49.50152886351994,78.08914548997495,2.475076443175997,1.226621428982049,107,234,Incorrect
1,new_learn,24,568,B,62.642527216408055,52.00021419072748,3.1321263608204024,0.8168174544334259,A,95,Correct
1,new_learn,24,569,B,63.17441401697428,34.498467822008315,3.1587207008487144,0.541900665348626,A,295,Correct
1,new_learn,24,570,B,87.4679916981804,67.99065702392306,4.37339958490902,1.0679947430955,B,589,Correct
1,new_learn,24,571,B,74.30850606578012,46.339742337875585,3.715425303289006,0.7279029704895693,A,400,Correct
1,new_learn,24,572,A,44.254760003474,57.22181898493885,2.2127380001736996,0.8988382307406441,B,384,Incorrect
1,new_learn,24,573,A,36.676229641874336,67.18490037242991,1.8338114820937168,1.0553379472109399,A,348,Incorrect
1,new_learn,24,574,B,64.75410503177635,31.668807976218787,3.2377052515888174,0.4974524724301739,B,264,Correct
1,new_learn,24,575,B,36.21086473950093,14.060234894302546,1.8105432369750463,0.22085765325843873,100,562,Incorrect
1,new_learn,24,576,A,22.8584976320171,49.664875413200576,1.142924881600855,0.7801340386978164,A,307,Incorrect
1,new_learn,24,577,A,64.43408983679457,89.32950536207606,3.2217044918397284,1.4031845889715409,B,624,Incorrect
1,new_learn,24,578,A,57.4464633489557,71.3872193987121,2.872323167447785,1.1213478201159834,100,54,Incorrect
1,new_learn,24,579,B,67.74628680889731,50.56073474809145,3.3873143404448656,0.7942061642235313,A,634,Incorrect
1,new_learn,24,580,B,87.94982283899841,62.39235688296033,4.397491141949921,0.9800568501183038,B,510,Correct
1,new_learn,24,581,B,72.93639723826898,53.20315333819661,3.646819861913449,0.8357131783754486,107,4700,Correct
1,new_learn,24,582,B,71.73970626143532,47.88331122924598,3.586985313071766,0.7521492939367641,A,2478,Incorrect
1,new_learn,24,583,A,63.06995158346635,83.16902551900463,3.1534975791733175,1.306415997883635,B,84,Correct
1,new_learn,24,584,B,30.38306165150061,14.641267386797246,1.5191530825750306,0.22998449030803028,B,411,Correct
1,new_learn,24,585,A,44.60780484100079,69.03643099495206,2.2303902420500394,1.0844217222190002,B,440,Incorrect
1,new_learn,24,586,A,36.57344291064432,46.49441934189178,1.8286721455322157,0.7303326311870519,B,286,Correct
1,new_learn,24,587,A,19.599752705430042,45.23932932490671,0.979987635271502,0.7106177233022811,A,1386,Correct
1,new_learn,24,588,B,55.71875559061072,36.72086962636803,2.785937779530536,0.5768100712581319,100,619,Correct
1,new_learn,24,589,B,49.34185748193015,36.67956993135451,2.4670928740965077,0.5761613371658819,A,745,Incorrect
1,new_learn,24,590,A,43.99033187619114,62.81703523942517,2.199516593809557,0.9867276821423464,A,443,Incorrect
1,new_learn,24,591,A,29.97434374028589,57.396998463041804,1.4987171870142943,0.9015899435479839,B,270,Incorrect
1,new_learn,24,592,A,35.73109679924869,44.228275541258995,1.7865548399624345,0.6947361276068219,107,141,Correct
1,new_learn,24,593,A,37.21422351349708,51.45978732513055,1.860711175674854,0.8083284490796164,107,210,Correct
1,new_learn,24,594,A,15.436624113269609,34.227782594977235,0.7718312056634804,0.5376487517452453,107,508,Correct
1,new_learn,24,595,A,49.72697418098335,73.25917921398116,2.4863487090491674,1.1507524961333064,100,581,Correct
1,new_learn,24,596,A,42.252099505828994,62.83763033606888,2.1126049752914495,0.9870511891639255,100,962,Incorrect
1,new_learn,24,597,B,36.021222739224186,12.302272604200606,1.8010611369612093,0.19324364617907802,107,492,Correct
1,new_learn,24,598,B,35.50586102397554,21.56531890447952,1.775293051198777,0.33874723721316974,100,825,Correct
1,new_learn,24,599,B,86.9988977422027,61.920691117505704,4.349944887110135,0.9726479415997934,100,592,Incorrect
1,new_learn,24,600,B,50.92985157597458,23.392641131745393,2.5464925787987287,0.3674507476377688,100,900,Correct
1,new_learn,24,601,A,42.79893284689511,70.16508276626577,2.1399466423447557,1.1021505427851017,A,4426,Correct
1,new_learn,24,602,B,29.72042870498662,60.046069476681105,1.486021435249331,0.9432014537244184,A,743,Incorrect
1,new_learn,24,603,B,16.617471200671545,67.02063972716898,0.8308735600335773,1.0527577470288116,A,976,Incorrect
1,new_learn,24,604,B,34.667828227006126,43.471938707997204,1.7333914113503062,0.6828556164117489,A,5283,Incorrect
1,new_learn,24,605,B,47.32544071912693,34.348378486694,2.3662720359563467,0.5395430675825978,B,2561,Correct
1,new_learn,24,606,B,51.9949763411361,25.176412117081128,2.599748817056805,0.39547015675385566,B,1298,Correct
1,new_learn,24,607,A,52.48867943501958,65.90400066882613,2.6244339717509786,1.035217621716805,B,806,Incorrect
1,new_learn,24,608,B,30.69179138506788,45.38225233342433,1.5345895692533942,0.7128627526702205,A,699,Incorrect
1,new_learn,24,609,A,40.187925209688366,84.8833967165753,2.009396260484418,1.3333452776827048,B,847,Incorrect
1,new_learn,24,610,B,15.072028642667732,61.10371704058305,0.7536014321333866,0.9598149428086259,A,654,Incorrect
1,new_learn,24,611,B,34.290730546680074,51.70372518388569,1.7145365273340036,0.8121602160046043,A,797,Incorrect
1,new_learn,24,612,B,11.879457438653588,68.93118323989162,0.5939728719326794,1.082768494348477,B,633,Correct
1,new_learn,24,613,A,73.18045091250882,41.751825244668865,3.659022545625441,0.6558361373130829,107,2070,Incorrect
1,new_learn,24,614,A,84.83973370930761,35.92627107769317,4.24198668546538,0.5643285464427816,A,1542,Correct
1,new_learn,24,615,A,52.98902475407028,55.486998730364995,2.649451237703514,0.8715877379053042,A,753,Correct
1,new_learn,24,616,B,15.75272809593963,66.10299023572378,0.7876364047969815,1.0383433425243385,A,566,Incorrect
1,new_learn,24,617,A,69.7385248989735,39.94754435072524,3.4869262449486746,0.6274945593059542,B,362,Incorrect
1,new_learn,24,618,A,45.1448272972976,69.09000082523153,2.25724136486488,1.0852631951453007,A,423,Correct
1,new_learn,24,619,A,64.05689337125291,46.76951500468647,3.2028446685626455,0.734653823753403,B,570,Incorrect
1,new_learn,24,620,A,53.878876906317295,74.31755945267702,2.693943845315865,1.167377494046264,A,687,Correct
1,new_learn,24,621,B,16.834163093813444,54.34363541827138,0.8417081546906722,0.8536278289970173,B,545,Correct
1,new_learn,24,622,B,34.498467822008315,36.82558598302572,1.7249233911004156,0.5784549519420643,B,1081,Correct
1,new_learn,24,623,B,62.39235688296033,12.050177161001585,3.1196178441480162,0.18928374021729044,B,786,Correct
1,new_learn,24,624,A,56.10039347038701,57.219612494171884,2.80501967351935,0.8988035712647258,B,609,Incorrect
1,new_learn,24,625,B,68.19380842212537,13.10281381512955,3.4096904211062684,0.2058185181148292,A,1707,Incorrect
1,new_learn,24,626,B,40.52465086859332,35.51779350685467,2.026232543429666,0.5579121957642694,B,46,Correct
1,new_learn,24,627,A,57.38888759246254,73.58413123911069,2.869444379623127,1.155856830607887,B,640,Incorrect
1,new_learn,24,628,A,39.388323066494905,70.80282682958737,1.9694161533247452,1.11216820310611,A,602,Correct
1,new_learn,24,629,A,59.73258066825607,50.74515843707576,2.9866290334128034,0.7971030847558366,A,8275,Correct
1,new_learn,24,630,A,85.60652157341731,41.29145236619679,4.280326078670865,0.6486046170484836,A,1627,Correct
1,new_learn,24,631,A,58.80547225720533,56.21129134750527,2.9402736128602665,0.8829648997305903,B,1002,Incorrect
1,new_learn,24,632,B,45.649932692093834,22.43982644088196,2.282496634604692,0.3524839694725238,B,1038,Correct
1,new_learn,24,633,A,79.53471614753725,35.908249004220664,3.976735807376863,0.5640454563746632,B,700,Incorrect
1,new_learn,24,634,B,58.92690409649934,25.565260780559242,2.946345204824967,0.4015781772765608,A,800,Incorrect
1,new_learn,24,635,B,41.60759689990692,32.16563750203274,2.0803798449953463,0.5052566523720919,B,1957,Correct
1,new_learn,24,636,A,68.99007646120353,58.977234469466524,3.449503823060177,0.9264122326915938,A,1278,Correct
1,new_learn,24,637,B,39.48886859271772,42.24708319646863,1.9744434296358861,0.6636156310281133,A,735,Incorrect
1,new_learn,24,638,A,63.976062501983606,53.642462324842704,3.1988031250991806,0.8426138278009655,A,679,Correct
1,new_learn,24,639,B,44.65696907057855,27.053257524968274,2.2328484535289275,0.4249515754805656,B,1138,Correct
1,new_learn,24,640,B,47.89564694693607,38.24400908337347,2.3947823473468035,0.6007354899007371,A,837,Incorrect
1,new_learn,24,641,A,67.02458926628728,44.20161557101511,3.351229463314364,0.6943173537735063,B,714,Incorrect
1,new_learn,24,642,B,26.589248459474952,61.67606137203175,1.3294624229737477,0.9688053065436408,A,1628,Incorrect
1,new_learn,24,643,B,43.76632222210701,24.2690072012187,2.1883161111053506,0.3812166736663323,A,474,Incorrect
1,new_learn,24,644,B,39.15307949659766,50.2888273918744,1.9576539748298831,0.7899350534597889,B,566,Correct
1,new_learn,24,645,B,44.401154496468095,37.08513086485661,2.220057724823405,0.5825318734122481,B,937,Correct
1,new_learn,24,646,A,51.70057686969839,64.05454456043739,2.585028843484919,1.0061664331005507,A,885,Correct
1,new_learn,24,647,B,63.41521631502902,17.73942713069883,3.1707608157514513,0.2786502697634745,A,815,Incorrect
1,new_learn,24,648,B,65.38463172940723,13.63469917245314,3.269231586470362,0.21417335377042804,B,825,Correct
1,new_learn,24,649,B,46.818113159624076,22.840439405875472,2.340905657981204,0.35877678321130596,B,1920,Correct
1,new_learn,24,650,A,48.81457660746602,70.52571652114074,2.4407288303733012,1.10781536455986,A,635,Correct
1,new_learn,24,651,A,45.47538378202989,80.06867371964806,2.2737691891014946,1.2577157857016223,B,310,Incorrect
1,new_learn,24,652,A,67.90590354987607,48.227879061573915,3.3952951774938036,0.7575617527902879,A,290,Correct
1,new_learn,24,653,A,45.729796820495054,78.94583572556519,2.2864898410247525,1.2400782877347114,B,44,Incorrect
1,new_learn,24,654,B,42.818534112597284,27.47961287399322,2.140926705629864,0.431648749642143,A,480,Incorrect
1,new_learn,24,655,B,30.059560982206627,56.44975694335355,1.5029780491103313,0.8867107085508448,B,371,Correct
1,new_learn,24,656,B,40.026158619135,27.061973311445342,2.00130793095675,0.42508848273439864,B,688,Correct
1,new_learn,24,657,B,24.716840350539762,43.692297050907605,1.2358420175269882,0.6863169971679716,A,1456,Incorrect
1,new_learn,24,658,A,34.18595347238744,81.98170840710993,1.709297673619372,1.2877656643025859,B,308,Incorrect
1,new_learn,24,659,A,73.86926420540178,49.72223362190183,3.6934632102700893,0.781035019333211,B,653,Incorrect
1,new_learn,24,660,A,59.286873071327676,50.20818622677968,2.964343653566384,0.7886683450005962,A,438,Correct
1,new_learn,24,661,B,17.352487785792746,60.38735542701472,0.8676243892896374,0.9485623608961259,100,2458,Incorrect
1,new_learn,24,662,B,21.090478261552292,54.36978108824996,1.0545239130776145,0.8540385242206566,A,1739,Incorrect
1,new_learn,24,663,A,59.74015045266033,47.24932683551489,2.987007522633016,0.7421906903675832,B,845,Incorrect
1,new_learn,24,664,A,68.17158480469467,59.50096161500839,3.408579240234734,0.934638919456193,A,382,Correct
1,new_learn,24,665,B,37.84828304683644,52.07379606763763,1.8924141523418223,0.8179732758531172,B,823,Correct
1,new_learn,24,666,A,41.84746497852903,86.61394102948358,2.0923732489264517,1.360528604183426,B,1157,Incorrect
1,new_learn,24,667,A,64.95024940160823,53.943236640995536,3.2475124700804114,0.8473383797110366,B,491,Incorrect
1,new_learn,24,668,B,42.16909875177927,49.64361696786222,2.108454937588964,0.7798001118193079,A,623,Incorrect
1,new_learn,24,669,A,52.413271299562815,62.211070545823986,2.6206635649781407,0.977209210993585,B,2220,Incorrect
1,new_learn,24,670,A,53.43189855375571,71.69012358641498,2.6715949276877855,1.1261058279701284,B,840,Incorrect
1,new_learn,24,671,A,43.34034557710633,71.3612621211631,2.167017278855317,1.1209400841537078,A,1727,Correct
1,new_learn,24,672,B,48.281334167035034,43.685054820165576,2.4140667083517515,0.6862032364734978,B,1805,Correct
1,new_learn,24,673,B,32.40928221466382,36.695912110826626,1.620464110733191,0.5764180395207482,B,2960,Correct
1,new_learn,24,674,B,57.36539574808996,15.276300435435573,2.8682697874044982,0.23995956610997476,A,1419,Incorrect
1,new_learn,24,675,A,57.80583066353018,65.96272407545143,2.890291533176509,1.0361400468310442,B,524,Incorrect
1,new_learn,24,676,A,53.27089288710087,69.42238104001052,2.663544644355044,1.090484211350042,A,725,Correct
1,new_learn,24,677,A,33.40468227372083,84.31422687570935,1.6702341136860415,1.3244047787291582,B,3070,Incorrect
1,new_learn,24,678,A,41.483126475800134,82.84453279994307,2.0741563237900067,1.301318878171899,B,695,Incorrect
1,new_learn,24,679,B,25.890607307236166,47.36403046929608,1.2945303653618083,0.7439924508337186,B,1570,Correct
1,new_learn,24,680,A,76.1970550134595,45.49578776133045,3.809852750672975,0.7146461630013808,B,962,Incorrect
1,new_learn,24,681,A,32.73916884663085,83.78574549753601,1.6369584423315422,1.3161034126530162,A,1028,Correct
1,new_learn,24,682,A,61.74192321550633,46.97327436878605,3.087096160775317,0.73785446836018,B,1387,Incorrect
1,new_learn,24,683,A,44.140115650272634,76.62397912726902,2.2070057825136318,1.20360664957523,A,812,Correct
1,new_learn,24,684,B,25.69132882218776,63.44204430292065,1.284566441109388,0.9965453015538686,A,582,Incorrect
1,new_learn,24,685,A,38.89192406731421,88.24325970258943,1.9445962033657105,1.386121882052356,B,733,Incorrect
1,new_learn,24,686,A,56.81616082755733,62.620900073006894,2.840808041377867,0.983646798152695,A,291,Correct
1,new_learn,24,687,B,35.690312360721116,54.20802736783917,1.784515618036056,0.8514977027219899,107,216,Incorrect
1,new_learn,24,688,A,67.95326623816166,59.924171996516286,3.3976633119080826,0.9412866925835339,A,68,Correct
1,new_learn,24,689,A,62.3007101528684,50.28867229808658,3.11503550764342,0.7899326172522666,100,539,Incorrect
1,new_learn,24,690,A,66.11860475708761,60.80846043129116,3.3059302378543807,0.9551770628352497,100,417,Incorrect
1,new_learn,24,691,B,35.385878672318775,51.50199315685226,1.7692939336159386,0.8089914167339943,107,170,Incorrect
1,new_learn,24,692,A,54.059443721165024,63.790749772884084,2.7029721860582514,1.002022754267387,107,898,Correct
1,new_learn,24,693,A,73.27298302893527,40.88720615803325,3.663649151446764,0.6422547324594431,107,328,Correct
1,new_learn,24,694,B,18.21984399407454,68.31279305556417,0.910992199703727,1.0730548440478012,100,273,Correct
1,new_learn,24,695,B,22.285825554451467,52.13642697060725,1.1142912777225733,0.8189570797764026,100,271,Correct
1,new_learn,24,696,A,64.47882859081281,66.65565979078215,3.2239414295406403,1.0470246555945089,100,215,Incorrect
1,new_learn,24,697,B,53.48202746776775,25.049804991169978,2.6741013733883876,0.39348141667058273,107,118,Incorrect
1,new_learn,24,698,A,65.53887752948171,42.930446029577666,3.276943876474086,0.6743498693092715,107,132,Correct
1,new_learn,24,699,A,49.084010753604204,70.39339357006199,2.4542005376802103,1.1057368405048085,A,352,Correct
1,new_learn,24,700,B,62.42706064734169,12.099765239736712,3.1213530323670846,0.19006266793659,A,297,Incorrect
1,new_learn,24,701,B,56.82029346897626,21.474544371787516,2.841014673448813,0.3373213541879785,B,250,Correct
1,new_learn,24,702,B,29.55908658133789,42.19095916348811,1.4779543290668946,0.6627340367796061,A,25,Incorrect
1,new_learn,24,703,B,44.8502131242498,39.96869732864454,2.24251065621249,0.6278268295061183,B,254,Correct
1,new_learn,24,704,A,71.33423294642786,49.37895303563175,3.5667116473213927,0.7756427804934805,A,299,Correct
1,new_learn,24,705,B,35.20012428725461,32.6089536780912,1.7600062143627304,0.5122202465817058,B,237,Correct
1,new_learn,24,706,A,69.84965082354175,57.006797778844664,3.492482541177088,0.8954606855334867,A,335,Correct
1,new_learn,24,707,B,55.94165451397864,31.848115629288543,2.797082725698932,0.5002690304582558,B,9,Correct
1,new_learn,24,708,A,49.89960942154039,72.15264800799662,2.4949804710770196,1.133371144594862,A,216,Correct
1,new_learn,24,709,B,33.25717540422977,51.84821354698661,1.6628587702114885,0.8144298339048395,B,231,Correct
1,new_learn,24,710,B,30.130894353906292,49.09016615236171,1.5065447176953146,0.7711065267388093,A,80,Incorrect
1,new_learn,24,711,A,67.2994467491827,46.0559088192409,3.3649723374591356,0.7234445240046428,B,148,Incorrect
1,new_learn,24,712,A,66.30958236760398,45.97090026793526,3.315479118380199,0.7221092128032721,B,133,Incorrect
1,new_learn,24,713,A,70.89431687994025,45.8973762961962,3.5447158439970123,0.7209543009558814,107,232,Incorrect
1,new_learn,24,714,A,64.75583492104982,48.001380702657364,3.2377917460524914,0.7540039248881762,B,228,Incorrect
1,new_learn,24,715,A,74.57558868646471,44.30111493238007,3.7287794343232354,0.6958802860870115,A,148,Correct
1,new_learn,24,716,B,19.469951356240212,59.60084065453911,0.9734975678120107,0.9362078157403799,A,584,Incorrect
1,new_learn,24,717,B,54.84927270898076,29.191889456421606,2.742463635449038,0.4585451273034973,B,91,Correct
1,new_learn,24,718,A,76.02079435674827,44.31844692060364,3.801039717837414,0.6961525363213881,A,165,Correct
1,new_learn,24,719,B,29.23789235963788,52.20400355595534,1.461894617981894,0.8200185702968237,B,195,Correct
1,new_learn,24,720,A,44.12426814138293,65.38537528520331,2.2062134070691464,1.0270710732410318,A,190,Correct
1,new_learn,24,721,A,56.878894180719946,51.50322892991235,2.843944709035997,0.8090108282118297,B,115,Incorrect
1,new_learn,24,722,A,74.9399787991725,50.42070251231778,3.7469989399586243,0.7920065430076698,A,660,Correct
1,new_learn,24,723,B,37.540594518648874,38.540078607348555,1.8770297259324438,0.6053861391080968,A,58,Incorrect
1,new_learn,24,724,A,52.00266385323895,62.20083780651608,2.6001331926619473,0.977048475500406,B,354,Incorrect
1,new_learn,24,725,A,45.1208169061881,72.5920165874856,2.256040845309405,1.1402727301025657,A,360,Correct
1,new_learn,24,726,B,19.367848911602984,60.099532540329655,0.9683924455801491,0.9440412495644019,B,220,Correct
1,new_learn,24,727,B,23.037636201398104,65.6623226215985,1.151881810069905,1.0314213518282838,A,207,Incorrect
1,new_learn,24,728,A,66.65577956160814,56.97151971397021,3.332788978080407,0.8949065389862744,A,215,Correct
1,new_learn,24,729,A,74.9594963399106,49.51576124966507,3.7479748169955305,0.7777917588942697,B,80,Incorrect
1,new_learn,24,730,B,15.471717605580409,62.84956023373621,0.7735858802790204,0.9872385835582745,A,939,Incorrect
1,new_learn,24,731,B,57.86302372581828,19.995155924878603,2.893151186290914,0.3140831748049052,B,3690,Correct
1,new_learn,24,732,B,30.79463170761672,54.50671423122817,1.539731585380836,0.8561894650007235,A,419,Incorrect
1,new_learn,24,733,A,44.18622218547908,76.84182485878674,2.2093111092739544,1.2070285623239898,B,271,Incorrect
1,new_learn,24,734,A,57.657305676311175,67.5026551581964,2.8828652838155584,1.0603292277139749,A,2453,Correct
1,new_learn,24,735,B,39.10854932270923,35.78265782511818,1.9554274661354614,0.5620726747465429,A,619,Incorrect
1,new_learn,24,736,A,72.11205313740427,56.5160951639688,3.6056026568702135,0.88775274688353,107,225,Correct
1,new_learn,24,737,A,52.09034188879158,78.96686199735207,2.604517094439579,1.2404085676396015,100,234,Incorrect
1,new_learn,24,738,B,13.32456747946729,66.5457975252818,0.6662283739733645,1.0452989431634956,100,488,Correct
1,new_learn,24,739,A,71.59088717991904,50.44870958034363,3.579544358995952,0.7924464770034627,100,416,Incorrect
1,new_learn,24,740,B,52.833469051971356,27.410153280084145,2.641673452598568,0.4305576808924126,107,240,Incorrect
1,new_learn,24,741,B,63.251238249764754,21.94859417532723,3.1625619124882376,0.34476771108915877,B,341,Correct
1,new_learn,24,742,B,20.550505015754812,49.63267018694275,1.0275252507877406,0.7796281601867224,B,256,Correct
1,new_learn,24,743,B,34.32930634368818,47.69462401221483,1.716465317184409,0.7491854020625072,A,262,Incorrect
1,new_learn,24,744,A,76.24148426838357,41.352136956152044,3.8120742134191787,0.6495578483584313,B,252,Incorrect
1,new_learn,24,745,B,48.5009622764725,26.887471379228856,2.425048113823625,0.422347412792956,B,1137,Correct
1,new_learn,24,746,B,63.63304023683634,18.59826406209322,3.181652011841817,0.29214084873497564,B,258,Correct
1,new_learn,24,747,B,34.186955928204306,48.19684530742907,1.7093477964102153,0.7570742757201144,B,338,Correct
1,new_learn,24,748,A,77.76097015917513,54.27241134098876,3.888048507958757,0.8525090438072684,B,221,Incorrect
1,new_learn,24,749,B,36.94008311883032,36.172602015364575,1.8470041559415162,0.5681979037634833,A,236,Incorrect
1,new_learn,24,750,B,36.49802477954792,30.76957366816447,1.8249012389773958,0.4833273329499772,B,325,Correct
1,new_learn,24,751,B,10.72147993598032,67.44743766861615,0.536073996799016,1.0594618734158998,B,736,Correct
1,new_learn,24,752,B,40.5741482324953,34.021225947928485,2.0287074116247648,0.5344041675206529,B,706,Correct
1,new_learn,24,753,B,33.11883100164318,54.39288763922383,1.6559415500821588,0.8544014810746033,B,388,Correct
1,new_learn,24,754,B,24.861549541644557,64.25995656547244,1.243077477082228,1.009393037330437,B,334,Correct
1,new_learn,24,755,A,44.46613302227854,74.85727723286837,2.2233066511139272,1.1758553611125688,B,305,Incorrect
1,new_learn,24,756,A,86.0301154047319,34.016801458164196,4.301505770236595,0.534334667797956,A,306,Correct
1,new_learn,24,757,B,63.64938506552855,17.140123595121054,3.1824692532764276,0.2692364318402669,A,296,Incorrect
1,new_learn,24,758,B,49.826205188814875,36.71059039715432,2.4913102594407435,0.5766486055032201,B,105,Correct
1,new_learn,24,759,A,53.40316529781619,75.62691474933972,2.6701582648908095,1.1879447989509362,B,916,Incorrect
1,new_learn,24,760,B,43.45430883490305,30.20293108478336,2.1727154417451526,0.474426532064171,A,265,Incorrect
1,new_learn,24,761,B,36.84366285532283,44.93975718865862,1.8421831427661417,0.7059120551899951,B,1955,Correct
1,new_learn,24,762,B,42.99803877875068,28.749239684594272,2.1499019389375342,0.4515920009470675,B,924,Correct
1,new_learn,24,763,A,46.36175563718449,75.26566629921346,2.3180877818592247,1.1822703215657495,B,976,Incorrect
1,new_learn,24,764,B,20.564806485484322,62.21135646116893,1.0282403242742162,0.9772137021413212,A,1238,Incorrect
1,new_learn,24,765,B,27.035774936369528,49.631525859875026,1.3517887468184764,0.7796101851391761,A,324,Incorrect
1,new_learn,24,766,B,51.83662060210257,38.24368006103315,2.5918310301051286,0.600730321629901,B,487,Correct
1,new_learn,24,767,B,51.16665931233562,18.40850528867648,2.558332965616781,0.2891601248923744,B,303,Correct
1,new_learn,24,768,A,82.51369720797351,45.04960271372614,4.1256848603986755,0.7076375046629043,B,588,Incorrect
1,new_learn,24,769,B,67.87409276353567,16.04903618121844,3.3937046381767835,0.25209767082056317,A,180,Incorrect
1,new_learn,24,770,A,72.57587019957805,41.27402420281746,3.6287935099789026,0.6483308560982931,A,337,Correct
1,new_learn,24,771,A,55.73053478469184,70.02418836076228,2.786526739234592,1.0999373786387934,A,279,Correct
1,new_learn,24,772,B,58.906798431115845,14.198211837189092,2.945339921555792,0.22302499000912443,A,200,Incorrect
1,new_learn,24,773,B,54.77706170661476,25.52765331073364,2.738853085330738,0.4009874405219398,B,83,Correct
1,new_learn,24,774,A,38.17871171712411,84.81961802104327,1.9089355858562056,1.3323434442760098,B,198,Incorrect
1,new_learn,24,775,A,32.60703814910353,89.20061671725625,1.6303519074551764,1.4011600108730558,A,72,Correct
1,new_learn,24,776,B,32.78852990450919,41.93375161481822,1.6394264952254594,0.6586938300528602,A,579,Incorrect
1,new_learn,24,777,B,37.89577878310966,32.88880477299975,1.8947889391554833,0.5166161373010247,107,136,Correct
1,new_learn,24,778,B,62.29397479831688,22.398402091451032,3.114698739915844,0.35183327731326414,A,433,Incorrect
1,new_learn,24,779,B,37.895780532364135,30.89938423888367,1.8947890266182068,0.48536639262662584,B,1734,Correct
1,new_learn,24,780,A,46.49441934189178,63.42655708935568,2.324720967094589,0.996302028972067,B,1433,Incorrect
1,new_learn,24,781,A,68.24792579256196,48.0446310115884,3.4123962896280977,0.7546832991521925,A,136,Correct
1,new_learn,24,782,A,63.108176772365574,68.69897566396604,3.155408838618279,1.0791209862752984,A,340,Correct
1,new_learn,24,783,A,34.90436998922918,81.5383686966829,1.745218499461459,1.2808017004159749,B,25,Incorrect
1,new_learn,24,784,B,36.69896217512437,49.58075799655521,1.8349481087562185,0.7788127254069561,100,115,Correct
1,new_learn,24,785,A,71.69478434205594,57.59036752653545,3.584739217102797,0.9046273776944999,100,213,Incorrect
1,new_learn,24,786,B,24.786486438954583,57.2376623450682,1.2393243219477292,0.8990870976595969,A,81,Incorrect
1,new_learn,24,787,A,41.65286101336643,66.79251230403179,2.0826430506683216,1.0491743298457608,100,1048,Incorrect
1,new_learn,24,788,B,23.062776541679973,65.74910568159513,1.1531388270839986,1.032784536946991,A,752,Incorrect
1,new_learn,24,789,A,44.60337125064871,72.89340219379662,2.2301685625324357,1.1450068841359877,A,226,Correct
1,new_learn,24,790,B,32.98483561408741,55.815044704553706,1.6492417807043704,0.8767406720180589,B,193,Correct
1,new_learn,24,791,A,34.95601166546721,85.06872871152433,1.7478005832733603,1.3362564658517397,B,571,Incorrect
1,new_learn,24,792,B,26.395158764606204,44.262444215438805,1.3197579382303102,0.6952728478857529,B,258,Correct
1,new_learn,24,793,A,59.58720925416152,50.84254625754806,2.979360462708076,0.7986328490625612,A,744,Correct
1,new_learn,24,794,A,52.056642828975775,76.79424391616993,2.6028321414487885,1.2062811626251106,A,865,Correct
1,new_learn,24,795,A,82.98134559258779,33.08098425753245,4.1490672796293895,0.5196348855849177,A,710,Correct
1,new_learn,24,796,A,56.24345205038759,71.74085691393074,2.8121726025193796,1.1269027452152067,A,429,Correct
1,new_learn,24,797,A,79.02628030932254,40.898938043699246,3.951314015466127,0.6424390164885483,B,178,Incorrect
1,new_learn,24,798,A,48.982142244707745,59.991077762029555,2.4491071122353874,0.9423376458906303,A,275,Correct
1,new_learn,24,799,A,79.45777176871833,35.93998198230142,3.972888588435916,0.5645439168287384,A,850,Correct
1,new_learn,24,800,B,51.34602027524331,34.67868415605864,2.5673010137621657,0.5447314969041728,A,18,Incorrect
1,new_learn,24,801,A,50.9238963548383,75.01548291856957,2.546194817741915,1.1783404502123438,B,91,Incorrect
1,new_learn,24,802,B,66.87216955183719,15.04269393430181,3.3436084775918595,0.23629008377101154,B,391,Correct
1,new_learn,24,803,A,60.39747874069073,59.33361521825723,3.0198739370345367,0.9320102484030024,A,224,Correct
1,new_learn,24,804,B,52.30222194832528,23.579569315693334,2.615111097416264,0.37038700868496743,B,343,Correct
1,new_learn,24,805,B,49.86465732339289,39.808243183874374,2.4932328661696443,0.6253064216938785,A,580,Incorrect
1,new_learn,24,806,A,77.21662516862092,37.497942878341135,3.860831258431046,0.5890163093566311,B,211,Incorrect
1,new_learn,24,807,A,71.26000406587383,53.24461510778096,3.5630002032936914,0.8363644583291039,A,1640,Correct
1,new_learn,24,808,B,31.668807976218787,35.24589496822365,1.5834403988109391,0.5536412235068444,A,837,Incorrect
1,new_learn,24,809,A,33.06625432134743,80.80333299373862,1.6533127160673715,1.269255786593495,B,2663,Incorrect
1,new_learn,24,810,B,16.426587727866078,66.3627559732374,0.8213293863933039,1.042423733187474,A,374,Incorrect
1,new_learn,24,811,B,62.16639674368114,18.987535966773095,3.108319837184057,0.2982555175149316,B,349,Correct
1,new_learn,24,812,B,60.1067534830395,26.425950894685514,3.0053376741519746,0.41509786597434306,A,711,Incorrect
1,new_learn,24,813,A,43.69768476458838,65.59174374081216,2.184884238229419,1.030312701361399,B,620,Incorrect
1,new_learn,24,814,B,37.90320027114774,42.61521161170969,1.895160013557387,0.6693981786526081,A,703,Incorrect
1,new_learn,24,815,B,21.433888159515455,64.92449671217804,1.0716944079757726,1.019831609544966,A,293,Incorrect
1,new_learn,24,816,B,24.285256265263214,57.04475371667726,1.2142628132631608,0.8960568960107618,109,4811,Correct
1,new_learn,24,817,A,64.26662755184694,44.666361955080525,3.2133313775923464,0.701617572903318,A,1278,Correct
1,new_learn,24,818,B,26.491991354903554,45.1836821839077,1.3245995677451776,0.7097436200555023,B,363,Correct
1,new_learn,24,819,A,57.20296257297157,67.62775024690562,2.8601481286485786,1.06229421677242,A,218,Correct
1,new_learn,24,820,A,70.76962425497747,51.587957027986015,3.5384812127488736,0.810341734064134,B,41,Incorrect
1,new_learn,24,821,A,62.79131662377349,64.06229588689044,3.1395658311886745,1.0062881906517531,A,298,Correct
1,new_learn,24,822,A,42.19004756859758,81.26871598609125,2.109502378429879,1.2765660055428982,B,251,Incorrect
1,new_learn,24,823,B,42.370932969995806,42.01784340058546,2.11854664849979,0.6600147407348284,A,250,Incorrect
1,new_learn,24,824,B,14.302258744346616,67.57069987922148,0.7151129372173308,1.0613980716924147,107,285,Incorrect
1,new_learn,24,825,B,60.00145446618751,26.064922623271997,3.0000727233093754,0.4094268471482886,100,187,Correct
1,new_learn,24,826,B,13.814714172242006,59.971321224921695,0.6907357086121003,0.9420273109314381,107,139,Incorrect
1,new_learn,24,827,A,58.348678943797196,52.387047692554965,2.91743394718986,0.822893820870944,107,114,Correct
1,new_learn,24,828,A,62.24798443193039,66.24619189590052,3.1123992215965193,1.040592748942304,100,72,Incorrect
1,new_learn,24,829,A,78.2656839426238,52.98338766076776,3.91328419713119,0.8322611071868403,100,89,Incorrect
1,new_learn,24,830,A,78.22918423343174,48.705067268839656,3.9114592116715867,0.7650574076219168,107,714,Correct
1,new_learn,24,831,B,64.47586088422216,14.79336436435193,3.223793044211108,0.2323736240446253,100,315,Correct
1,new_learn,24,832,A,85.55026799885634,36.25253101764978,4.2775133999428165,0.5694534255954232,107,673,Correct
1,new_learn,24,833,B,39.734611996399686,48.93599555763511,1.9867305998199842,0.7686848206998461,100,28,Correct
1,new_learn,24,834,A,70.20145119618655,44.52229355541004,3.510072559809328,0.6993545517732218,107,407,Correct
1,new_learn,24,835,A,74.5402413258999,36.47629085811522,3.727012066294995,0.5729682369502965,107,479,Correct
1,new_learn,24,836,A,55.03055124644759,69.00698692352447,2.7515275623223796,1.083959215826557,107,378,Correct
1,new_learn,24,837,A,58.481090632290496,71.64914677733782,2.9240545316145248,1.1254621657583064,100,241,Incorrect
1,new_learn,24,838,A,34.043608459076154,85.15186546138041,1.7021804229538078,1.3375623748646956,100,108,Incorrect
1,new_learn,24,839,B,18.13476931194216,68.5267097238427,0.9067384655971081,1.0764150392155223,100,106,Correct
1,new_learn,24,840,A,60.7929654155344,71.14694586987517,3.03964827077672,1.1175736123507525,107,361,Correct
1,new_learn,24,841,A,52.19322182426152,68.46557012938837,2.609661091213076,1.0754546607116164,100,617,Incorrect
1,new_learn,24,842,B,15.788527425734443,67.01083130394575,0.7894263712867222,1.0526036766771045,100,368,Correct
1,new_learn,24,843,A,76.09330765033023,54.68846178076543,3.8046653825165118,0.8590443488328943,A,405,Correct
1,new_learn,24,844,B,17.4093603275428,57.423332045267145,0.87046801637714,0.9020035904902931,B,87,Correct
1,new_learn,24,845,B,36.67956993135451,50.65814251806985,1.8339784965677253,0.795736241896365,A,434,Incorrect
1,new_learn,24,846,B,60.8608238867332,15.427514999332345,3.04304119433666,0.24233483892524418,B,61,Correct
1,new_learn,24,847,B,23.833226350460954,61.58114071246115,1.1916613175230477,0.9673142963097364,A,229,Incorrect
1,new_learn,24,848,B,29.633350974212313,57.367150631230274,1.4816675487106155,0.9011210949022606,B,508,Correct
1,new_learn,24,849,B,49.803615467101665,41.52938716181745,2.4901807733550836,0.6523420880782598,A,237,Incorrect
1,new_learn,24,850,A,43.059388211467606,65.0270407540651,2.1529694105733803,1.021442367588275,B,149,Incorrect
1,new_learn,24,851,B,35.31301135760414,45.78333080452355,1.7656505678802068,0.7191628785618123,100,103,Correct
1,new_learn,24,852,B,19.14013016814843,55.81530279165769,0.9570065084074215,0.8767447260408084,107,3124,Incorrect
1,new_learn,24,853,A,55.13620402084558,56.87463227821636,2.756810201042279,0.8933846347043272,100,484,Incorrect
1,new_learn,24,854,B,28.231594179352403,47.50627974645225,1.41157970896762,0.7462268972541798,A,134,Incorrect
1,new_learn,24,855,B,48.84056180961015,28.34854390739946,2.4420280904805076,0.4452978863972692,107,3553,Incorrect
1,new_learn,24,856,A,76.45854222604655,46.59863761857472,3.8229271113023278,0.7319696880490367,107,551,Correct
1,new_learn,24,857,B,54.56236805422558,24.512065100190227,2.728118402711279,0.3850346182153619,107,1951,Incorrect
1,new_learn,24,858,A,69.81182988381069,45.29828189412931,3.490591494190534,0.7115437480941809,100,634,Correct
1,new_learn,24,859,B,40.827002325031046,49.646380479840886,2.0413501162515524,0.7798435209639593,107,290,Incorrect
1,new_learn,24,860,A,65.75655641230951,52.20728515133164,3.2878278206154756,0.8200701174764548,A,130,Correct
1,new_learn,24,861,A,42.426440511627106,83.61975537401216,2.1213220255813554,1.3134960458898612,B,402,Incorrect
1,new_learn,24,862,A,71.37569970475526,48.45709005491429,3.5687849852377633,0.7611621906542887,A,236,Correct
1,new_learn,24,863,B,52.63624180575974,22.204469181441993,2.6318120902879865,0.3487869862863956,A,264,Incorrect
1,new_learn,24,864,B,21.80712193191258,66.21083678503389,1.090356096595629,1.0400373921594765,B,40,Correct
1,new_learn,24,865,B,52.99763790042037,32.045796997188305,2.649881895021019,0.5033742021239831,107,699,Incorrect
1,new_learn,24,866,A,61.854642254708146,56.03121345484587,3.092732112735407,0.8801362428073267,107,540,Correct
1,new_learn,24,867,A,69.12496967820658,57.053872882282725,3.456248483910329,0.8962001395291266,107,425,Correct
1,new_learn,24,868,B,57.95520418063027,28.24537711348495,2.8977602090315133,0.44367734618798793,A,470,Incorrect
1,new_learn,24,869,A,47.66350810419365,64.51837737085668,2.3831754052096827,1.0134523018490866,100,483,Incorrect
1,new_learn,24,870,A,46.9625270156759,72.25239500996418,2.348126350783795,1.1349379668378563,107,317,Correct
1,new_learn,24,871,B,20.191327931517012,55.68913631953744,1.0095663965758506,0.8747629077310968,107,244,Incorrect
1,new_learn,24,872,B,43.51895285274213,34.414186247716316,2.1759476426371065,0.5405767734754824,107,243,Incorrect
1,new_learn,24,873,B,52.13044652315078,37.533435201219646,2.606522326157539,0.5895738214607009,107,264,Incorrect
1,new_learn,24,874,A,44.80339323417409,67.706031495769,2.240169661708704,1.063523855754135,107,314,Correct
1,new_learn,24,875,B,32.260824653852154,46.15535610370101,1.6130412326926078,0.7250066382960395,107,537,Incorrect
1,new_learn,24,876,B,26.282898262316095,48.28509645802438,1.314144913115805,0.7584605215520197,107,202,Incorrect
1,new_learn,24,877,B,21.21714454732685,65.45972927736379,1.0608572273663426,1.028239023018714,B,37,Correct
1,new_learn,24,878,A,70.50726162186267,47.79481333501718,3.525363081093133,0.7507591722649273,A,727,Correct
1,new_learn,24,879,A,49.456129085473094,61.53008521086082,2.4728064542736545,0.9665123183659716,107,404,Correct
1,new_learn,24,880,A,62.29729416862954,46.317899352897655,3.114864708431477,0.7275598616838735,100,1070,Incorrect
1,new_learn,24,881,B,17.00055021476762,60.60993588660453,0.8500275107383811,0.9520586465795259,B,251,Correct
1,new_learn,24,882,B,18.454188552368077,58.800743581053894,0.9227094276184039,0.9236399202992807,B,618,Correct
1,new_learn,24,883,B,33.087339016110114,49.39753837671783,1.6543669508055059,0.7759347183485831,B,822,Correct
1,new_learn,24,884,A,52.830232093463394,67.01986623783174,2.6415116046731697,1.052745597086714,B,1132,Incorrect
1,new_learn,24,885,B,61.67854902605406,28.451029964225526,3.083927451302703,0.44690773361337,A,543,Incorrect
1,new_learn,24,886,B,64.31709901546071,19.214043944512994,3.2158549507730356,0.30181349650916733,100,72,Incorrect
1,new_learn,24,887,A,77.21863044722494,51.17330182462579,3.860931522361247,0.8038283453608878,100,915,Incorrect
1,new_learn,24,888,A,62.81703523942517,56.00966812380886,3.1408517619712586,0.8797978095388016,A,133,Correct
1,new_learn,24,889,A,53.767310258977204,66.30065148995796,2.6883655129488604,1.0414481982453454,107,362,Correct
1,new_learn,24,890,A,55.312862505259076,70.42408610438628,2.765643125262954,1.1062189577065749,107,127,Incorrect
1,new_learn,24,891,A,58.482321562481715,62.3708029495785,2.924116078124086,0.9797182817244621,107,27,Incorrect
1,new_learn,24,892,A,64.8096916601921,43.16631396020051,3.2404845830096054,0.6780548740995823,107,210,Correct
1,new_learn,24,893,A,46.906815952800734,74.85415188470654,2.345340797640037,1.1758062682584431,100,32,Incorrect
1,new_learn,24,894,B,57.35293285320867,22.407344893676083,2.867646642660434,0.35197375052212776,107,49,Incorrect
1,new_learn,24,895,B,44.31752756811882,38.95213332160737,2.215876378405941,0.6118586794240595,107,93,Incorrect
1,new_learn,24,896,A,60.83046405430286,52.42757757720934,3.0415232027151426,0.823530462810349,100,85,Incorrect
1,new_learn,24,897,A,65.01040490917805,58.07119884201965,3.250520245458903,0.9121802583362051,107,252,Correct
1,new_learn,24,898,A,59.47663910063132,72.2717045470497,2.9738319550315655,1.135241280337117,100,18,Correct
