experiment,condition,subject,trial,cat,x,y,xt,yt,resp,rt,fb
1,relearn,9,0,B,59.76015792469854,43.64680475392395,2.988007896234927,0.6856024058379777,B,3372,Correct
1,relearn,9,1,A,23.376519047964905,39.04730453116945,1.1688259523982452,0.613353625288027,A,4413,Correct
1,relearn,9,2,B,46.14546634835218,34.938471625163906,2.307273317417609,0.548812228926352,B,2436,Correct
1,relearn,9,3,B,69.84719561267295,55.41639106529694,3.4923597806336475,0.8704786352959796,B,3201,Correct
1,relearn,9,4,A,21.60823590766361,39.869069081127506,1.0804117953831804,0.6262618726536707,A,1299,Correct
1,relearn,9,5,A,48.28737710245501,63.94042103489267,2.414368855122751,1.0043737849532854,B,2752,Incorrect
1,relearn,9,6,B,87.00063654513221,61.12258010918986,4.350031827256611,0.9601112431974224,A,3427,Incorrect
1,relearn,9,7,A,24.7300700153109,46.94956690473905,1.236503500765545,0.7374820723857535,A,1089,Correct
1,relearn,9,8,A,33.71451225502269,56.0031965438796,1.6857256127511346,0.8796961541989872,A,4851,Correct
1,relearn,9,9,B,75.21810491318217,43.78914969775622,3.7609052456591088,0.6878383549870734,B,1556,Correct
1,relearn,9,10,B,57.608349222330425,43.535371268589,2.880417461116521,0.6838520127435168,A,1415,Incorrect
1,relearn,9,11,A,34.70181973378102,66.23840037676906,1.735090986689051,1.0404703600459855,A,1309,Correct
1,relearn,9,12,A,38.87864609288027,60.094007548913375,1.9439323046440133,0.9439544632021791,B,2652,Incorrect
1,relearn,9,13,B,50.65400439345266,27.142469445157467,2.5327002196726327,0.4263529130459606,B,3290,Correct
1,relearn,9,14,A,63.704946267212705,76.63526872158779,3.185247313360635,1.2037839861080992,B,2017,Incorrect
1,relearn,9,15,B,61.313583109229796,43.85837454992257,3.0656791554614897,0.6889257364221315,B,811,Correct
1,relearn,9,16,B,85.25197193275532,59.78801114883987,4.262598596637766,0.9391478829897,B,2465,Correct
1,relearn,9,17,A,15.306381279806757,38.88869340684073,0.7653190639903379,0.6108621675731832,A,852,Correct
1,relearn,9,18,A,55.6429448476969,63.157827649807466,2.7821472423848452,0.9920808368066272,B,4186,Incorrect
1,relearn,9,19,B,47.568616055294044,29.278094793386614,2.3784308027647025,0.45989923757004475,B,932,Correct
1,relearn,9,20,A,17.55326317408862,34.27610085740394,0.8776631587044309,0.5384077332366152,A,422,Correct
1,relearn,9,21,B,81.66802014418269,60.961085233700835,4.083401007209135,0.9575744876252787,A,553,Incorrect
1,relearn,9,22,B,58.93442454931962,32.06449791327995,2.9467212274659813,0.5036679554270277,B,2805,Correct
1,relearn,9,23,A,24.01483419945614,38.91249364022475,1.200741709972807,0.6112360207649482,A,657,Correct
1,relearn,9,24,A,25.77557825944764,42.27091876951088,1.288778912972382,0.6639900393339314,A,705,Correct
1,relearn,9,25,A,48.11473379175489,61.71050172334237,2.4057366895877443,0.9693462943169634,A,953,Correct
1,relearn,9,26,A,44.63574348624109,65.45347222556892,2.2317871743120548,1.0281407374789544,A,753,Correct
1,relearn,9,27,A,42.303270465474064,55.28818357496263,2.1151635232737034,0.8684647567471322,B,1146,Incorrect
1,relearn,9,28,B,32.01921333614668,16.246450227819583,1.6009606668073337,0.2551986434131511,A,945,Incorrect
1,relearn,9,29,A,47.98071849049807,64.87680428180383,2.3990359245249038,1.0190824586004885,B,716,Incorrect
1,relearn,9,30,B,46.84965778647824,25.69104313381235,2.3424828893239122,0.4035539618612169,B,1859,Correct
1,relearn,9,31,A,26.811150288401045,37.67661898225836,1.3405575144200523,0.5918229470338232,A,514,Correct
1,relearn,9,32,B,71.88096641298505,60.282406801867495,3.5940483206492524,0.9469138317472916,A,1695,Incorrect
1,relearn,9,33,B,56.74506114782902,26.805257992555035,2.8372530573914507,0.42105600793494996,B,734,Correct
1,relearn,9,34,B,51.50841880578637,25.731710994334527,2.5754209402893182,0.40419277112048524,B,4733,Correct
1,relearn,9,35,A,62.507528224747446,76.43472213615222,3.1253764112373723,1.2006338077105647,B,2186,Incorrect
1,relearn,9,36,A,47.01577060214242,72.02464360420441,2.350788530107121,1.1313604561219583,B,594,Incorrect
1,relearn,9,37,A,28.186486673438406,37.74163315250439,1.4093243336719203,0.5928441872319439,A,893,Correct
1,relearn,9,38,B,42.397159979274996,18.301722411826084,2.1198579989637496,0.2874827833851625,A,1387,Incorrect
1,relearn,9,39,B,45.61642081657385,18.188018645639904,2.2808210408286924,0.2856967288024825,B,5862,Correct
1,relearn,9,40,A,36.8488258284134,44.43092523049778,1.84244129142067,0.697919341481646,A,4490,Correct
1,relearn,9,41,B,72.80543276557259,49.15144899521252,3.6402716382786298,0.7720691553832653,B,8511,Correct
1,relearn,9,42,B,65.38463957497652,36.7930589939191,3.269231978748826,0.5779440191919606,A,7122,Incorrect
1,relearn,9,43,B,88.26117712777423,69.11841720621638,4.413058856388711,1.0857095586140186,A,8580,Incorrect
1,relearn,9,44,A,41.15526374083667,49.80788714978014,2.057763187041834,0.7823804618028938,A,5427,Correct
1,relearn,9,45,B,57.15202441161941,49.41840569238279,2.8576012205809707,0.776262501376549,B,9714,Correct
1,relearn,9,46,B,37.23121291651313,20.918091818510224,1.8615606458256564,0.32858061792074233,A,6707,Incorrect
1,relearn,9,47,B,47.1350225193381,17.75797057752856,2.356751125966905,0.2789415495451371,A,6722,Incorrect
1,relearn,9,48,B,77.95303983932381,58.06058999858776,3.8976519919661907,0.9120136150132615,B,926,Correct
1,relearn,9,49,A,46.53837469124073,76.6904976696687,2.3269187345620366,1.2046515203958816,A,3881,Correct
1,relearn,9,50,A,15.100557741366046,43.499580342278435,0.7550278870683023,0.6832898101877046,A,2428,Correct
1,relearn,9,51,B,77.19309684453074,60.596632940451435,3.859654842226537,0.9518496843899975,B,3462,Correct
1,relearn,9,52,B,54.36380784204362,22.08814477829572,2.718190392102181,0.34695976683460794,A,7977,Incorrect
1,relearn,9,53,A,47.73267658673193,72.55068127814349,2.3866338293365965,1.1396234365817504,A,7079,Correct
1,relearn,9,54,B,40.41223104218585,22.695289416005906,2.0206115521092927,0.35649677250209166,A,5180,Incorrect
1,relearn,9,55,A,21.558378451470148,48.42202782779133,1.0779189225735073,0.760611434478549,B,2141,Incorrect
1,relearn,9,56,A,51.174001446828186,73.39939807028159,2.5587000723414093,1.1529550487775475,A,4738,Correct
1,relearn,9,57,A,38.31732133479223,62.27093141779797,1.9158660667396117,0.9781495033717398,A,4949,Correct
1,relearn,9,58,B,47.35947114279459,20.243367741485528,2.367973557139729,0.3179820769028377,B,2350,Correct
1,relearn,9,59,B,52.19329082704101,43.975071302710695,2.6096645413520503,0.6907588047284162,A,2885,Incorrect
1,relearn,9,60,A,46.40504315569669,72.6253136326399,2.3202521577848345,1.1407957588647808,B,2660,Incorrect
1,relearn,9,61,A,39.732165404489415,69.7419635698655,1.9866082702244707,1.0955042019900822,A,4228,Correct
1,relearn,9,62,A,46.16281354225952,59.90135833510968,2.308140677112976,0.9409283364281514,A,2074,Correct
1,relearn,9,63,A,31.17262465581041,51.56343274323153,1.5586312327905205,0.809956507500038,A,1841,Correct
1,relearn,9,64,A,34.766307938128676,66.04002229421582,1.7383153969064338,1.037354244412073,A,763,Correct
1,relearn,9,65,B,49.092562143822605,18.86920701563267,2.4546281071911302,0.29639681069688295,A,5250,Incorrect
1,relearn,9,66,A,68.06366733150885,82.63073966375049,3.4031833665754423,1.2979606234416463,B,944,Incorrect
1,relearn,9,67,A,38.209412654865055,67.9895679481076,1.9104706327432526,1.0679776359325948,A,4485,Correct
1,relearn,9,68,A,40.799329153388946,69.22673395501799,2.0399664576694474,1.0874109941254981,A,2315,Correct
1,relearn,9,69,A,51.83142730828246,58.86956619332217,2.591571365414123,0.9247209833647948,B,675,Incorrect
1,relearn,9,70,B,35.631558007573204,13.774282856780815,1.7815779003786603,0.21636592915665215,A,549,Incorrect
1,relearn,9,71,B,41.391837742056396,21.480974398447195,2.0695918871028196,0.33742235681056065,B,699,Correct
1,relearn,9,72,B,61.5225310610452,53.19838722890435,3.07612655305226,0.8356383125057549,A,5915,Incorrect
1,relearn,9,73,A,40.29277372653775,66.36572173820366,2.0146386863268875,1.0424703193146254,B,735,Incorrect
1,relearn,9,74,A,48.49156743630013,63.52894316656672,2.4245783718150067,0.9979103057120475,A,2170,Correct
1,relearn,9,75,A,48.16888951996963,76.1363650618695,2.4084444759984818,1.1959472257469992,A,3524,Correct
1,relearn,9,76,A,42.30487420424409,57.70799146497753,2.1152437102122046,0.9064750101989794,A,808,Correct
1,relearn,9,77,B,42.571271396026745,28.34690664880823,2.1285635698013374,0.445272168399458,A,859,Incorrect
1,relearn,9,78,A,10.64914637342569,35.440751753677375,0.5324573186712845,0.556702026735262,A,762,Correct
1,relearn,9,79,B,65.83738445317606,39.10684283371056,3.291869222658803,0.6142888507573787,B,920,Correct
1,relearn,9,80,B,57.01430721250554,30.820922457330365,2.850715360625277,0.48413391784404874,B,653,Correct
1,relearn,9,81,B,38.650778068970126,19.75506458755869,1.932538903448506,0.3103118288973312,A,652,Incorrect
1,relearn,9,82,B,80.1269402752007,57.30126733539071,4.006347013760035,0.9000862025112412,B,709,Correct
1,relearn,9,83,B,47.37196431271029,39.580662202472155,2.3685982156355148,0.6217315879975286,B,485,Correct
1,relearn,9,84,A,22.931173706281886,52.25442333326934,1.1465586853140943,0.8208105623068502,100,482,Correct
1,relearn,9,85,A,61.08561140709354,84.16215720078604,3.054280570354677,1.3220160738612936,A,604,Correct
1,relearn,9,86,B,49.41775803161758,38.22060165668623,2.470887901580879,0.6003678069021366,B,1581,Correct
1,relearn,9,87,B,53.1676927514499,45.32408887357512,2.6583846375724947,0.7119491231793724,B,591,Correct
1,relearn,9,88,A,23.27974308994564,50.26355112026461,1.163987154497282,0.7895380147137915,A,436,Correct
1,relearn,9,89,A,56.658739371899614,81.96630044318091,2.832936968594981,1.2875236365711547,B,580,Incorrect
1,relearn,9,90,A,35.131258903452746,67.29178841430638,1.7565629451726374,1.0570169406465184,A,619,Correct
1,relearn,9,91,B,40.320539261809905,27.499577462255147,2.016026963090495,0.4319623526612212,A,700,Incorrect
1,relearn,9,92,A,43.85376493933976,60.39166370099942,2.192688246966988,0.9486300351056258,B,442,Incorrect
1,relearn,9,93,A,53.420096631275165,73.39907049418305,2.6710048315637582,1.1529499032242243,A,803,Correct
1,relearn,9,94,A,19.240404273522888,37.94372125388773,0.9620202136761443,0.5960185797053629,A,420,Correct
1,relearn,9,95,A,20.082538530122253,33.65627361098676,1.0041269265061126,0.52867150961742,A,711,Correct
1,relearn,9,96,B,38.68891669173391,29.548468778865917,1.9344458345866955,0.46414626220256266,A,423,Incorrect
1,relearn,9,97,B,55.813498537540355,39.815461305183284,2.7906749268770175,0.6254198036782624,A,662,Incorrect
1,relearn,9,98,B,63.071278869986095,30.78628094197563,3.153563943499305,0.4835897701933105,B,456,Correct
1,relearn,9,99,A,62.34012579547376,82.87827641035574,3.117006289773688,1.301848921564789,B,716,Incorrect
1,relearn,9,100,A,40.24465548014993,64.72041607993627,2.0122327740074963,1.0166259184700124,A,1034,Correct
1,relearn,9,101,A,28.417648377750773,47.00833263180164,1.4208824188875386,0.7384051622678669,A,389,Correct
1,relearn,9,102,A,57.7414763233314,86.38382335389186,2.8870738161665703,1.3569139241879253,A,709,Correct
1,relearn,9,103,B,54.8883370991312,40.136656390014714,2.74441685495656,0.6304651242726403,A,589,Incorrect
1,relearn,9,104,B,75.91368568604436,63.15128865294287,3.795684284302218,0.9919781224840687,B,447,Correct
1,relearn,9,105,B,80.13295432201373,61.50961691287861,4.006647716100686,0.9661908030931097,B,367,Correct
1,relearn,9,106,B,44.72604728480786,32.851778099538535,2.236302364240393,0.5160345236743615,B,366,Correct
1,relearn,9,107,B,77.79998650638532,55.957206888715724,3.889999325319266,0.8789737503849674,B,343,Correct
1,relearn,9,108,A,38.43906062887978,63.489480749603395,1.921953031443989,0.9972904315159231,A,434,Correct
1,relearn,9,109,B,35.01472270210597,24.628641046746278,1.7507361351052986,0.38686578890179074,A,524,Incorrect
1,relearn,9,110,A,35.00881628376092,51.69237069344119,1.750440814188046,0.8119818600857758,B,1071,Incorrect
1,relearn,9,111,A,16.562319259583884,38.16098918443426,0.8281159629791942,0.599431416377691,A,437,Correct
1,relearn,9,112,B,64.89308066942509,36.40996689495088,3.244654033471255,0.5719264225731262,A,585,Incorrect
1,relearn,9,113,B,54.15153859133533,34.10820323890737,2.707576929566766,0.5357704036124948,B,540,Correct
1,relearn,9,114,B,40.226656086665685,24.989261300708826,2.0113328043332843,0.39253039860471284,A,642,Incorrect
1,relearn,9,115,A,13.3894539715393,39.136102726973505,0.669472698576965,0.6147484640859772,B,728,Incorrect
1,relearn,9,116,A,14.502848035287027,39.484339822448376,0.7251424017643514,0.6202185595902338,A,331,Correct
1,relearn,9,117,B,62.48569470019033,34.33321624487083,3.1242847350095166,0.5393048996449797,B,562,Correct
1,relearn,9,118,B,51.064538263262776,23.522375636857227,2.5532269131631384,0.36948861247865106,A,416,Incorrect
1,relearn,9,119,A,23.496183255657897,47.367965102636404,1.174809162782895,0.744054255909701,B,447,Incorrect
1,relearn,9,120,A,39.88234698770637,51.194602624488965,1.9941173493853186,0.8041629375427164,A,525,Correct
1,relearn,9,121,A,49.061078076221264,70.66640778160547,2.453053903811063,1.1100253377113618,A,510,Correct
1,relearn,9,122,A,46.9807675057226,57.852494029396226,2.3490383752861304,0.9087448511729929,A,456,Correct
1,relearn,9,123,B,83.78174690075046,59.51065861298646,4.189087345037524,0.9347912395442421,A,382,Incorrect
1,relearn,9,124,A,24.486268239249526,49.14541566362018,1.2243134119624763,0.7719743840322295,A,647,Correct
1,relearn,9,125,B,41.362985212110324,16.39410461172639,2.0681492606055163,0.25751799305191087,A,411,Incorrect
1,relearn,9,126,B,47.676885008844565,23.186723472509627,2.3838442504422286,0.3642162006102713,B,346,Correct
1,relearn,9,127,A,24.852696330359727,40.252262932828295,1.2426348165179864,0.6322810676006905,B,363,Incorrect
1,relearn,9,128,B,51.65988089378507,41.6789381192171,2.5829940446892534,0.6546912290237802,A,368,Incorrect
1,relearn,9,129,A,17.8571313170637,42.93703531843536,0.8928565658531851,0.67445337361661,B,244,Incorrect
1,relearn,9,130,A,33.92842374422151,59.396777390675396,1.6964211872110755,0.9330023974872709,A,817,Correct
1,relearn,9,131,B,77.48853853989183,65.01038122297876,3.8744269269945915,1.0211806802859096,A,674,Incorrect
1,relearn,9,132,B,52.467714166355975,33.28786341231783,2.6233857083177985,0.5228845357491908,B,630,Correct
1,relearn,9,133,A,28.26308557620403,41.0221525905003,1.4131542788102016,0.6443744660637762,A,472,Correct
1,relearn,9,134,B,43.947914753912855,30.4581496942627,2.197395737695643,0.4784354966071696,A,387,Incorrect
1,relearn,9,135,B,66.06422108085121,54.996817623144764,3.3032110540425608,0.8638879910784463,B,598,Correct
1,relearn,9,136,A,58.51420972412875,71.19838971529448,2.9257104862064374,1.118381690384961,B,759,Incorrect
1,relearn,9,137,A,42.789706296679014,63.61060648718607,2.1394853148339505,0.999193070152675,A,355,Correct
1,relearn,9,138,B,51.07410650165345,21.26336284454095,2.5537053250826727,0.33400412251512007,A,562,Incorrect
1,relearn,9,139,A,15.179810422003222,36.40995549495712,0.758990521100161,0.571926243502443,100,277,Incorrect
1,relearn,9,140,B,69.88359800753386,52.84192423280362,3.494179900376693,0.8300390048566216,B,596,Correct
1,relearn,9,141,A,20.490260570338105,36.77235159366646,1.0245130285169053,0.5776187481094173,A,551,Correct
1,relearn,9,142,A,58.70324628765297,74.86701045038416,2.935162314382649,1.1760082501357858,B,615,Incorrect
1,relearn,9,143,A,61.31539624566998,75.3277836742947,3.065769812283499,1.1832460590118268,A,310,Correct
1,relearn,9,144,A,19.871827231042612,37.51483875746753,0.9935913615521307,0.5892817092053281,A,526,Correct
1,relearn,9,145,B,42.73342622019274,14.101727860322075,2.136671311009637,0.2215094232445517,A,433,Incorrect
1,relearn,9,146,B,55.33097509319406,42.35897282593293,2.766548754659703,0.6653731892178029,B,324,Correct
1,relearn,9,147,B,51.225323547136625,30.499078068502694,2.5612661773568313,0.4790783980063482,A,381,Incorrect
1,relearn,9,148,A,37.529647721443396,58.955697637238686,1.8764823860721698,0.926073932922051,A,2140,Correct
1,relearn,9,149,A,34.369525647912084,49.41184102641185,1.7184762823956043,0.7761593838446111,A,1902,Correct
1,relearn,9,150,B,46.04013418173186,22.820499768321703,2.3020067090865926,0.3584635721170352,B,1798,Correct
1,relearn,9,151,B,75.85197499240059,58.50312413119444,3.792598749620029,0.918964924913061,B,2566,Correct
1,relearn,9,152,B,41.4398776864742,26.570392791782993,2.07199388432371,0.4173667539883032,A,846,Incorrect
1,relearn,9,153,A,31.185665028265454,50.30588579892309,1.5592832514132726,0.7902030062911194,B,740,Incorrect
1,relearn,9,154,A,63.05858834099935,83.78180139123398,3.1529294170499673,1.316041458776099,A,867,Correct
1,relearn,9,155,A,47.79488955907715,75.08357457421714,2.3897444779538572,1.1794100314381095,A,1417,Correct
1,relearn,9,156,A,41.41992662572738,48.71222423816259,2.070996331286369,0.7651698290331511,A,564,Correct
1,relearn,9,157,B,49.638041379535046,39.482439990041804,2.4819020689767526,0.620188717092576,A,553,Incorrect
1,relearn,9,158,A,42.063468253573646,49.62993615913605,2.1031734126786823,0.7795852141783612,B,456,Incorrect
1,relearn,9,159,A,27.19952517328212,56.12739378150452,1.359976258664106,0.8816470398455802,A,475,Correct
1,relearn,9,160,B,49.68764956823652,36.69900774046537,2.484382478411826,0.5764666655574048,A,1081,Incorrect
1,relearn,9,161,B,51.077879305250455,44.163362530070565,2.5538939652625228,0.6937164764114622,B,556,Correct
1,relearn,9,162,B,36.02824477558042,21.406620693002218,1.801412238779021,0.336254411536595,A,449,Incorrect
1,relearn,9,163,A,50.57436878263089,75.41899455529204,2.5287184391315445,1.1846787961801704,B,596,Incorrect
1,relearn,9,164,B,60.04548764112663,31.30814386481517,3.0022743820563313,0.4917871738161785,A,279,Incorrect
1,relearn,9,165,A,39.23028353859423,54.63505237635448,1.9615141769297113,0.8582053958702441,A,149,Correct
1,relearn,9,166,A,28.564246780246876,55.96782361881924,1.428212339012344,0.8791405175914592,A,597,Correct
1,relearn,9,167,A,57.119600182195036,72.0248552249514,2.855980009109752,1.1313637802528786,B,3024,Incorrect
1,relearn,9,168,B,53.77631602338662,38.57170924889492,2.688815801169331,0.6058829920636487,A,569,Incorrect
1,relearn,9,169,B,32.808422844373624,18.379344992139114,1.6404211422186814,0.288702076025483,B,393,Correct
1,relearn,9,170,A,32.797438816301124,51.92173300938379,1.6398719408150562,0.815584674919654,B,471,Incorrect
1,relearn,9,171,B,82.20557352602702,66.27985488134786,4.110278676301351,1.0411215258812,A,1509,Incorrect
1,relearn,9,172,A,29.372536328504356,41.22551452071433,1.4686268164252179,0.6475688677936773,A,828,Correct
1,relearn,9,173,A,32.57522674500049,59.1175932736089,1.6287613372500247,0.9286169836313953,A,534,Correct
1,relearn,9,174,B,82.82475063374943,57.08127544595719,4.141237531687471,0.8966305779927727,A,783,Incorrect
1,relearn,9,175,B,82.23387443987437,53.359783977341095,4.111693721993719,0.8381735267017657,B,337,Correct
1,relearn,9,176,A,63.54088368053114,83.00309069239457,3.1770441840265566,1.3038094997223704,B,548,Incorrect
1,relearn,9,177,A,57.12017241259008,73.28406396780414,2.856008620629504,1.1511433849322898,A,413,Correct
1,relearn,9,178,A,20.371924221551776,41.53299613383135,1.0185962110775888,0.6523987776780892,A,771,Correct
1,relearn,9,179,B,66.50614276224653,40.52808084516393,3.3253071381123265,0.636613605236301,A,687,Incorrect
1,relearn,9,180,B,44.088779319916824,22.059707057747122,2.204438965995841,0.3465130681648063,A,900,Incorrect
1,relearn,9,181,B,73.20893526147833,58.07170779565061,3.660446763073917,0.9121882529611453,B,457,Correct
1,relearn,9,182,B,59.84080474192071,50.47167022870562,2.992040237096035,0.7928071420245412,B,717,Correct
1,relearn,9,183,B,63.73572896457785,51.528813929493275,3.186786448228893,0.8094127164454573,B,493,Correct
1,relearn,9,184,A,67.4751985264356,87.04224696020053,3.3737599263217803,1.3672564180105722,B,927,Incorrect
1,relearn,9,185,A,47.01044950053332,58.795967693905844,2.3505224750266662,0.923564900839387,A,786,Correct
1,relearn,9,186,A,17.461226032827607,34.69727191785144,0.8730613016413804,0.5450234727836475,A,617,Correct
1,relearn,9,187,B,60.86441205873982,49.515980971516456,3.0432206029369913,0.7777952102770403,A,380,Incorrect
1,relearn,9,188,A,58.516220755598816,67.36661928079505,2.925811037779941,1.0581923811486311,B,379,Incorrect
1,relearn,9,189,A,39.293653399783615,61.843376857543944,1.9646826699891806,0.9714334920442255,A,673,Correct
1,relearn,9,190,B,62.62645834657337,41.471625753773786,3.1313229173286685,0.6514347740024049,A,591,Incorrect
1,relearn,9,191,A,40.34417349366462,62.534743575296325,2.0172086746832307,0.9822934550513622,B,672,Incorrect
1,relearn,9,192,B,88.7945358398347,63.965646432879225,4.439726791991735,1.0047700245782776,A,660,Incorrect
1,relearn,9,193,B,72.36662316849399,50.01749840823673,3.6183311584246995,0.7856730277512785,B,2223,Correct
1,relearn,9,194,A,51.79781101125492,66.72192835822571,2.589890550562746,1.048065599817732,B,1772,Incorrect
1,relearn,9,195,A,11.729977059241072,38.18907944061103,0.5864988529620536,0.5998726570899031,A,602,Correct
1,relearn,9,196,B,74.32525757364306,50.28235927679449,3.7162628786821528,0.7898334525457006,A,786,Incorrect
1,relearn,9,197,B,76.9657599651317,60.92144662422645,3.848287998256585,0.9569518458036624,B,1150,Correct
1,relearn,9,198,A,21.536094046278908,39.153064156720035,1.0768047023139453,0.6150148936014075,A,528,Correct
1,relearn,9,199,B,84.63027866573782,59.52726721617616,4.231513933286891,0.9350521268730778,A,3608,Incorrect
1,relearn,9,200,B,71.13726257912748,40.5129862102049,3.556863128956374,0.6363764992648216,B,6077,Correct
1,relearn,9,201,B,76.12478761616508,58.586562892543974,3.806239380808254,0.9202755779114626,B,4724,Correct
1,relearn,9,202,B,86.19114411277604,62.79671778633724,4.309557205638802,0.9864085363355428,B,4343,Correct
1,relearn,9,203,B,78.50804093671208,50.30768537445147,3.925402046835604,0.790231273957417,A,854,Incorrect
1,relearn,9,204,B,38.170705577321456,15.699327352479923,1.9085352788660728,0.24660445738426112,A,1041,Incorrect
1,relearn,9,205,A,11.304830894005377,37.347203026664914,0.5652415447002689,0.586648493303485,A,540,Correct
1,relearn,9,206,B,81.24793622480988,56.79270096668141,4.062396811240494,0.8920976606722415,B,532,Correct
1,relearn,9,207,B,55.13313196577112,28.32847657715069,2.756656598288556,0.44498266951083565,B,521,Correct
1,relearn,9,208,B,50.20394786525735,42.7691849527318,2.5101973932628674,0.6718167862376266,B,709,Correct
1,relearn,9,209,B,53.28232320116658,24.75909657076012,2.664116160058329,0.38891497948110115,B,1496,Correct
1,relearn,9,210,A,34.8090887409136,49.0121487671626,1.7404544370456803,0.7698810325178402,A,669,Correct
1,relearn,9,211,B,57.74025819999371,37.47379316218557,2.8870129099996853,0.5886369665023281,A,432,Incorrect
1,relearn,9,212,A,33.5543727303577,56.30004693783704,1.6777186365178849,0.884359069283347,A,426,Correct
1,relearn,9,213,B,43.39796033871404,26.28637684946309,2.169898016935702,0.4129054419988302,A,627,Incorrect
1,relearn,9,214,B,64.326814607809,40.31891592700064,3.21634073039045,0.6333280503848486,B,1140,Correct
1,relearn,9,215,B,63.720058060687094,44.08797793856986,3.186002903034355,0.6925323380171997,B,938,Correct
1,relearn,9,216,A,24.32383522673891,41.995729041822216,1.2161917613369455,0.659667369199681,B,545,Incorrect
1,relearn,9,217,B,46.7332156713404,23.318096434650126,2.3366607835670203,0.3662798022739759,B,1159,Correct
1,relearn,9,218,B,69.41875454018819,58.7066784374534,3.4709377270094093,0.9221623484788095,B,973,Correct
1,relearn,9,219,B,70.40931777917973,38.48507396860365,3.5204658889589866,0.6045221282631251,B,629,Correct
1,relearn,9,220,B,51.097261904611074,39.68341707768779,2.5548630952305533,0.6233456578030185,B,488,Correct
1,relearn,9,221,A,50.821487882491795,72.22280007596191,2.54107439412459,1.1344730907016314,B,471,Incorrect
1,relearn,9,222,B,61.89737232561963,48.993382872932486,3.0948686162809818,0.7695862585405834,B,436,Correct
1,relearn,9,223,A,38.95643378295396,70.72462265325952,1.9478216891476978,1.1109397747769518,B,391,Incorrect
1,relearn,9,224,A,25.80474217933731,48.98469680385385,1.2902371089668656,0.7694498180865532,A,690,Correct
1,relearn,9,225,B,57.74361826830319,31.281137658994673,2.8871809134151594,0.49136296132714347,A,558,Incorrect
1,relearn,9,226,B,55.92715327231654,27.890866616202548,2.7963576636158267,0.4381087083185737,B,1276,Correct
1,relearn,9,227,B,64.4702086526212,43.339121342221226,3.2235104326310595,0.6807693261087941,B,1509,Correct
1,relearn,9,228,B,68.33101374733035,46.83856548186726,3.4165506873665175,0.7357384661125934,B,1324,Correct
1,relearn,9,229,B,69.8822740990464,54.56000436967969,3.49411370495232,0.8570265445380636,B,590,Correct
1,relearn,9,230,B,83.8955486573791,66.22912872703223,4.194777432868955,1.040324721312486,B,480,Correct
1,relearn,9,231,A,18.59453512588406,45.42317004271415,0.9297267562942031,0.7135054865447537,A,398,Correct
1,relearn,9,232,B,45.212121511174075,23.760509830361343,2.260606075558704,0.3732292156430563,A,2581,Incorrect
1,relearn,9,233,B,79.18295322425892,49.62354702104836,3.9591476612129464,0.7794848538319659,B,614,Correct
1,relearn,9,234,A,51.9818340991351,66.16499562009358,2.599091704956755,1.0393173208244342,B,618,Incorrect
1,relearn,9,235,A,61.33209246472612,70.85873648423129,3.0666046232363056,1.1130464299075802,A,581,Correct
1,relearn,9,236,A,59.464734271572134,75.73069621001356,2.973236713578607,1.189574994323095,A,383,Correct
1,relearn,9,237,A,34.7999795204346,65.62488548767635,1.7399989760217298,1.0308332907037772,A,444,Correct
1,relearn,9,238,B,44.93205903457541,21.897530691057874,2.2466029517287707,0.3439656077539222,B,716,Correct
1,relearn,9,239,B,81.21454297762705,62.12493041719457,4.0607271488813526,0.9758561250171776,A,661,Incorrect
1,relearn,9,240,A,51.9014193597304,80.49935900851031,2.59507096798652,1.2644809743991166,B,1380,Incorrect
1,relearn,9,241,B,71.82895141356768,43.48557357398981,3.5914475706783837,0.6830697923859242,A,347,Incorrect
1,relearn,9,242,A,40.63599413268945,55.57474055163979,2.0317997066344726,0.8729659832109518,B,1797,Incorrect
1,relearn,9,243,A,29.033802850375196,48.83677970758919,1.4516901425187598,0.7671263417717264,A,462,Correct
1,relearn,9,244,A,24.867439417159677,55.63592980784554,1.2433719708579838,0.8739271417998247,A,692,Correct
1,relearn,9,245,B,60.356030278343795,49.741545216950925,3.0178015139171896,0.7813383651588878,B,6362,Correct
1,relearn,9,246,B,84.70745315281172,57.61256298838657,4.2353726576405855,0.9049760231939723,B,3355,Correct
1,relearn,9,247,B,59.5393659677585,51.51811035289691,2.976968298387925,0.8092445850574459,B,607,Correct
1,relearn,9,248,B,42.08989041358973,19.75821274387701,2.1044945206794865,0.3103612800211412,B,417,Correct
1,relearn,9,249,B,50.07774362799807,26.572740899747075,2.5038871813999033,0.4174036379819521,A,592,Incorrect
1,relearn,9,250,A,32.58010538242616,55.74650739501341,1.629005269121308,0.875664090477316,B,509,Incorrect
1,relearn,9,251,B,48.82855988453412,30.362168224142522,2.441427994226706,0.47692782320011806,A,527,Incorrect
1,relearn,9,252,B,86.16177998088986,65.52717848786574,4.308088999044493,1.0292985127397307,B,678,Correct
1,relearn,9,253,A,30.573600658060624,59.05859150607296,1.528680032903031,0.9276901860341967,A,776,Correct
1,relearn,9,254,B,40.96054962339595,22.118058818732525,2.048027481169797,0.34742965548298527,A,2356,Incorrect
1,relearn,9,255,B,57.63541392248615,33.064265986426435,2.8817706961243075,0.5193722755964808,B,733,Correct
1,relearn,9,256,B,38.659864442294946,12.269418357838472,1.9329932221147472,0.19272757288402542,B,1331,Correct
1,relearn,9,257,A,56.6290620979224,64.86991939564032,2.8314531048961205,1.0189743110615284,B,1100,Incorrect
1,relearn,9,258,B,39.00170324093749,15.482705956151008,1.9500851620468744,0.24320177644767468,A,705,Incorrect
1,relearn,9,259,A,24.716565092642497,36.69274426539489,1.2358282546321249,0.576368279121068,B,580,Incorrect
1,relearn,9,260,B,44.51092002168678,33.22179514098566,2.225546001084339,0.5218467377699282,A,2350,Incorrect
1,relearn,9,261,B,56.0536498467134,29.63494479550947,2.8026824923356695,0.4655046242955581,B,3173,Correct
1,relearn,9,262,A,65.4217602030792,81.64018993710022,3.27108801015396,1.282401104720347,B,2697,Incorrect
1,relearn,9,263,B,65.02990578618986,48.74811843635726,3.2514952893094926,0.7657336537799257,A,648,Incorrect
1,relearn,9,264,B,68.59213358118835,42.325528602559814,3.4296066790594177,0.6648478485855329,B,1451,Correct
1,relearn,9,265,A,50.46609618174222,66.90729788419765,2.523304809087111,1.0509773775226963,B,520,Incorrect
1,relearn,9,266,A,11.843692426370001,37.137933508250384,0.5921846213185,0.583361295395128,A,644,Correct
1,relearn,9,267,A,59.68661801785487,77.19352266057469,2.9843309008927434,1.2125530184758933,B,2689,Incorrect
1,relearn,9,268,B,57.06134931761141,27.31959412367781,2.8530674658805704,0.42913518099000547,A,500,Incorrect
1,relearn,9,269,B,42.35080256555317,21.543656638934173,2.1175401282776587,0.33840696714168284,B,408,Correct
1,relearn,9,270,A,43.347948437092114,57.761696928514034,2.1673974218546057,0.9073186136474991,B,697,Incorrect
1,relearn,9,271,A,24.890528483075222,56.840778941924164,1.2445264241537612,0.892852867741352,A,477,Correct
1,relearn,9,272,A,52.82368681263539,80.15180047779812,2.6411843406317694,1.2590215377652272,B,1627,Incorrect
1,relearn,9,273,B,65.87078522109682,40.74321397149217,3.293539261054841,0.639992908482384,A,648,Incorrect
1,relearn,9,274,A,38.56628834205528,65.9056020976143,1.9283144171027642,1.0352427769013859,B,622,Incorrect
1,relearn,9,275,A,49.77375846755183,58.22126079904159,2.4886879233775914,0.9145374260450224,A,2645,Correct
1,relearn,9,276,B,45.540744198629916,20.3427310289293,2.2770372099314957,0.3195428717721871,A,1455,Incorrect
1,relearn,9,277,A,13.71024787865208,39.92906496789968,0.685512393932604,0.6272042858393161,A,761,Correct
1,relearn,9,278,B,61.74547175862868,43.1771134431223,3.0872735879314344,0.6782245119806306,A,9524,Incorrect
1,relearn,9,279,B,66.85811465903802,41.79583741234476,3.3429057329519014,0.6565274788262787,B,14824,Correct
1,relearn,9,280,A,37.72402964749846,68.87109101664282,1.8862014823749231,1.0818245679129956,B,5752,Incorrect
1,relearn,9,281,B,70.88759525396527,59.711181714116435,3.544379762698264,0.9379410490511669,A,1298,Incorrect
1,relearn,9,282,B,66.62167834382431,44.343530277947494,3.331083917191216,0.696546544777182,B,597,Correct
1,relearn,9,283,B,53.584090342208384,31.786998014477867,2.679204517110419,0.49930899720978505,B,378,Correct
1,relearn,9,284,B,72.82446245538173,58.680708718855016,3.641223122769087,0.9217544170929871,B,1981,Correct
1,relearn,9,285,A,52.46825309034294,66.03326997804278,2.6234126545171472,1.0372481792776531,B,4088,Incorrect
1,relearn,9,286,A,15.625698045848875,34.37058183827284,0.7812849022924437,0.5398918370136236,A,706,Correct
1,relearn,9,287,A,54.92266270076691,68.6110249156404,2.7461331350383453,1.0777394591512106,B,6177,Incorrect
1,relearn,9,288,A,29.79637998003184,40.0684843788618,1.489818999001592,0.6293942808255479,B,2680,Incorrect
1,relearn,9,289,A,59.42615333348377,70.71015292644427,2.971307666674188,1.1107124848396406,B,508,Incorrect
1,relearn,9,290,B,63.932747543305915,34.533520396506006,3.196637377165296,0.5424512699012828,A,479,Incorrect
1,relearn,9,291,A,28.181470591377533,60.687067540791034,1.4090735295688768,0.9532702277702835,B,427,Incorrect
1,relearn,9,292,B,79.3703695086287,50.74503350375836,3.968518475431435,0.7971011223078759,A,599,Incorrect
1,relearn,9,293,B,59.12030268474048,40.502646386279174,2.956015134237024,0.6362140816903992,B,558,Correct
1,relearn,9,294,A,37.42930644170842,52.5267002597157,1.8714653220854212,0.8250874782661797,B,712,Incorrect
1,relearn,9,295,A,16.661277935691388,42.49350617101529,0.8330638967845694,0.667486434060671,A,497,Correct
1,relearn,9,296,B,47.053668540173646,22.535373380800827,2.3526834270086825,0.3539848172951343,A,2412,Incorrect
1,relearn,9,297,A,34.677876122306444,53.831103922129266,1.733893806115322,0.84557700308195,B,741,Incorrect
1,relearn,9,298,B,62.284192640570105,41.63331284644828,3.1142096320285053,0.6539745489150374,A,1520,Incorrect
1,relearn,9,299,B,75.83299994479731,45.026980325250015,3.791649997239865,0.7072821530156881,A,421,Incorrect
1,relearn,9,300,B,75.92675529238797,59.62169658106974,3.7963377646193983,0.9365354198682418,B,436,Incorrect
1,relearn,9,301,B,64.89425357288512,42.692385877233384,3.244712678644256,0.6706104291806853,B,673,Incorrect
1,relearn,9,302,A,44.218408851058506,60.15735562423694,2.210920442552925,0.944949532442457,A,493,Correct
1,relearn,9,303,B,56.39052783735772,47.4512498958704,2.819526391867886,0.7453624903825994,A,2269,Incorrect
1,relearn,9,304,A,38.92328136086552,54.34350043040995,1.9461640680432764,0.8536257086126483,B,429,Correct
1,relearn,9,305,B,57.068827544693924,25.969393681992134,2.853441377234696,0.4079262820476383,A,2011,Incorrect
1,relearn,9,306,B,33.364600783933966,18.528063987303398,1.6682300391966982,0.2910381485387698,B,522,Incorrect
1,relearn,9,307,B,31.302078018428514,15.676125304347007,1.5651039009214256,0.2462400004644481,A,629,Correct
1,relearn,9,308,B,75.7230818424295,58.610904629707186,3.7861540921214747,0.9206579370247006,B,655,Correct
1,relearn,9,309,B,70.90441726956658,56.17354375321284,3.545220863478329,0.8823719619059915,B,609,Correct
1,relearn,9,310,B,51.82400913523635,36.00590337796554,2.5912004567618174,0.5655794076904022,A,522,Incorrect
1,relearn,9,311,A,33.33685518036602,48.24821305415921,1.6668427590183013,0.7578811583989086,A,451,Incorrect
1,relearn,9,312,A,19.402424982569656,35.472795714672166,0.9701212491284827,0.5572053720975279,A,519,Correct
1,relearn,9,313,A,23.941618163904042,34.74641342604535,1.197080908195202,0.5457953857892891,A,653,Incorrect
1,relearn,9,314,A,46.14571904416958,60.592659434141765,2.3072859522084794,0.95178726869884,B,573,Correct
1,relearn,9,315,A,28.891503349354537,52.49207970888625,1.4445751674677267,0.8245436599254345,B,422,Incorrect
1,relearn,9,316,B,52.368284241922765,29.9529034003978,2.6184142120961384,0.47049910638187237,A,495,Correct
1,relearn,9,317,A,42.66254538243729,57.96650664290914,2.1331272691218643,0.9105357571181364,A,381,Incorrect
1,relearn,9,318,B,77.864794696801,62.253643552276316,3.89323973484005,0.9778779462151445,B,1148,Incorrect
1,relearn,9,319,A,42.57938970330781,51.10097663947043,2.1289694851653906,0.8026922640091199,A,485,Correct
1,relearn,9,320,A,40.961942505439225,72.82405910748946,2.048097125271961,1.1439176454833888,A,650,Incorrect
1,relearn,9,321,B,57.647703330583525,49.57854272327094,2.882385166529176,0.7787779279755783,B,2818,Correct
1,relearn,9,322,A,39.30236631206305,71.02906148116199,1.9651183156031524,1.1157218887029814,A,608,Correct
1,relearn,9,323,A,38.96479838097181,61.86318347134246,1.9482399190485904,0.971744613606235,A,1326,Incorrect
1,relearn,9,324,B,41.62396022554161,19.74881901567068,2.0811980112770807,0.3102137236835271,B,356,Incorrect
1,relearn,9,325,A,52.71587933119613,69.35878140656901,2.6357939665598065,1.0894851906440877,A,2876,Incorrect
1,relearn,9,326,B,63.162438145133954,33.41579444334052,3.1581219072566977,0.5248940716853261,B,765,Correct
1,relearn,9,327,A,47.52391813827018,69.70575794492358,2.3761959069135092,1.0949354853634015,B,642,Incorrect
1,relearn,9,328,A,59.451822128514465,67.72400123874299,2.972591106425723,1.0638061238167051,A,556,Incorrect
1,relearn,9,329,B,86.79674396633447,67.38347134779991,4.339837198316724,1.0584570927981325,B,500,Incorrect
1,relearn,9,330,A,57.458633915234586,69.96987311743774,2.8729316957617295,1.099084196791762,A,758,Correct
1,relearn,9,331,B,63.29850734467699,54.93238552248912,3.1649253672338493,0.8628758940080707,A,407,Correct
1,relearn,9,332,A,38.26378258144845,70.9559033988425,1.9131891290724226,1.1145727242331531,A,445,Correct
1,relearn,9,333,B,63.65913053301434,36.79160423181316,3.182956526650717,0.5779211678422368,A,337,Correct
1,relearn,9,334,A,46.47605211006799,55.71955581321978,2.3238026055033996,0.8752407360204885,A,434,Correct
1,relearn,9,335,B,57.89822803992868,48.3404104866456,2.894911401996434,0.759329392281804,A,364,Incorrect
1,relearn,9,336,B,43.505377317380315,31.08343946215396,2.175268865869016,0.4882575253130298,B,405,Correct
1,relearn,9,337,A,59.54353360707523,85.3473471209911,2.977176680353762,1.340632993593418,B,612,Incorrect
1,relearn,9,338,B,44.48442160537864,21.53936474830232,2.2242210802689324,0.33833955028128765,A,596,Correct
1,relearn,9,339,B,67.2850931858903,49.77636238702527,3.3642546592945153,0.7818852719875096,A,396,Correct
1,relearn,9,340,A,52.829283861374265,79.12373807548886,2.6414641930687135,1.242872771312594,A,1181,Incorrect
1,relearn,9,341,A,52.81295707176109,61.945480291072,2.640647853588055,0.9730373290276156,B,367,Correct
1,relearn,9,342,A,48.75560593279954,59.4857921922427,2.437780296639977,0.9344006387205939,B,410,Correct
1,relearn,9,343,A,52.61937307404851,72.07763741113607,2.6309686537024253,1.1321928808946695,B,449,Incorrect
1,relearn,9,344,B,60.73931969434416,32.554186541602576,3.0369659847172077,0.5113599664134518,A,327,Incorrect
1,relearn,9,345,B,36.254242104525936,26.211112990019245,1.8127121052262967,0.4117232000592823,B,359,Correct
1,relearn,9,346,B,75.32617636443497,44.770156447965924,3.7663088182217486,0.7032479729849772,B,617,Correct
1,relearn,9,347,A,44.59077584352154,54.127074454958525,2.2295387921760774,0.8502260973400273,B,333,Incorrect
1,relearn,9,348,B,73.310002148042,51.7520865509331,3.6655001074021003,0.8129198745817727,A,409,Incorrect
1,relearn,9,349,B,65.77190638713427,54.8578675410922,3.2885953193567135,0.861705368293486,B,812,Incorrect
1,relearn,9,350,B,56.387384726109616,41.822796665412945,2.819369236305481,0.656950953783205,B,469,Correct
1,relearn,9,351,A,65.1613142600361,85.7154668291831,3.2580657130018045,1.3464154044479062,A,420,Correct
1,relearn,9,352,A,18.73713270056823,32.047861172189705,0.9368566350284115,0.5034066261090838,A,684,Correct
1,relearn,9,353,B,74.58673154728817,53.16518559778899,3.7293365773644087,0.8351167825037589,B,484,Incorrect
1,relearn,9,354,B,33.65414828282205,20.98730610290967,1.6827074141411027,0.3296678333577062,A,444,Correct
1,relearn,9,355,A,64.82223088655353,81.64657158443046,3.2411115443276763,1.2825013474021993,A,473,Incorrect
1,relearn,9,356,B,50.45770091408184,23.371713901858875,2.522885045704092,0.3671220234794115,B,711,Correct
1,relearn,9,357,A,57.147230319155724,85.09252243092284,2.857361515957786,1.3366302167220596,B,419,Correct
1,relearn,9,358,B,81.31628528886813,61.30140825276934,4.065814264443406,0.9629202691080445,B,646,Correct
1,relearn,9,359,B,86.36948175745584,59.246212625417684,4.318474087872792,0.9306373316851552,B,443,Correct
1,relearn,9,360,A,50.997318530423726,65.52637607805713,2.5498659265211865,1.0292859085159312,107,1068,Incorrect
1,relearn,9,361,A,44.61723330636973,65.2209457944287,2.230861665318486,1.0244882208397768,B,582,Correct
1,relearn,9,362,A,28.212036497053106,61.3892077543406,1.4106018248526553,0.9642994204536701,B,1048,Correct
1,relearn,9,363,A,57.033160042782534,74.162478233974,2.8516580021391267,1.1649414839593284,B,3716,Incorrect
1,relearn,9,364,A,58.70203965479733,69.80233942578013,2.9351019827398663,1.0964525837170602,A,305,Incorrect
1,relearn,9,365,B,45.03500680875169,29.90613139042651,2.2517503404375843,0.46976441336727515,B,557,Incorrect
1,relearn,9,366,A,54.4403819619349,79.45586439868555,2.722019098096745,1.2480897993976865,A,624,Incorrect
1,relearn,9,367,A,44.50868120321176,62.11271007299047,2.225434060160588,0.9756641682992979,B,389,Correct
1,relearn,9,368,A,32.54995654712402,59.717633383620196,1.627497827356201,0.938042391638749,B,464,Incorrect
1,relearn,9,369,B,48.83861021316162,32.963709073312394,2.441930510658081,0.5177927312989471,A,536,Incorrect
1,relearn,9,370,B,74.97832244042243,55.245290726461974,3.748916122021121,0.8677909974584264,B,483,Correct
1,relearn,9,371,A,61.25765003360905,84.33729291663616,3.0628825016804524,1.3247670992527731,B,396,Correct
1,relearn,9,372,B,48.85773758055749,31.656098556913022,2.4428868790278746,0.4972528333385621,B,383,Correct
1,relearn,9,373,B,42.041054896922745,20.64512788145561,2.1020527448461372,0.3242929104240138,B,295,Incorrect
1,relearn,9,374,A,18.475731237828505,34.402705399851286,0.9237865618914253,0.5403964327389335,B,384,Incorrect
1,relearn,9,375,B,39.80927610542332,15.31067655208954,1.990463805271166,0.24049954488767,B,371,Correct
1,relearn,9,376,A,33.2808700350966,58.82167431662654,1.6640435017548298,0.9239686995248266,B,1723,Incorrect
1,relearn,9,377,A,28.145159656823857,52.15093815552865,1.4072579828411929,0.8191850209361222,A,325,Correct
1,relearn,9,378,A,53.343650521212155,79.3460844611161,2.667182526060608,1.246365380170788,A,2553,Incorrect
1,relearn,9,379,A,35.911851273365116,54.860647214446786,1.795592563668256,0.8617490313004369,B,420,Incorrect
1,relearn,9,380,B,31.30210549972591,12.312642079288985,1.5651052749862955,0.19340652951287415,A,315,Incorrect
1,relearn,9,381,A,66.07521344574198,89.62186075353306,3.303760672287099,1.4077768967217343,B,742,Correct
1,relearn,9,382,B,84.15726639010452,67.15138674435164,4.2078633195052255,1.0548115163721106,B,458,Correct
1,relearn,9,383,B,68.47976537680772,46.434188944073895,3.423988268840386,0.7293865343105147,B,532,Correct
1,relearn,9,384,B,71.99839168570766,43.704331761143266,3.5999195842853826,0.6865060379542938,B,555,Incorrect
1,relearn,9,385,B,51.090315028327026,39.55101881713723,2.5545157514163517,0.62126595078955,A,1130,Incorrect
1,relearn,9,386,B,50.643940634660865,41.984379938066084,2.532197031733043,0.6594890978947555,B,2800,Incorrect
1,relearn,9,387,B,61.65311126303833,51.29043328155542,3.0826555631519166,0.8056682419838598,A,1451,Incorrect
1,relearn,9,388,A,36.99813345318579,69.5955075108635,1.8499066726592894,1.0932036755949102,B,394,Correct
1,relearn,9,389,A,55.407949660437474,70.80098647449253,2.7703974830218736,1.1121392948758801,B,1899,Incorrect
1,relearn,9,390,B,74.22282619072061,42.311946244308125,3.7111413095360306,0.6646344974010232,A,413,Correct
1,relearn,9,391,B,57.234855658359194,32.84096229423761,2.86174278291796,0.5158646294019814,A,889,Incorrect
1,relearn,9,392,B,41.602736390386085,15.30213454221444,2.0801368195193044,0.2403653673103175,B,395,Correct
1,relearn,9,393,A,37.20737984729538,69.3130911219987,1.860368992364769,1.0887674893323551,B,521,Incorrect
1,relearn,9,394,A,60.99005429217925,81.4561021941208,3.0495027146089626,1.2795094612155469,A,642,Incorrect
1,relearn,9,395,A,46.23277540057113,77.48664672797214,2.3116387700285568,1.2171574005595243,B,440,Incorrect
1,relearn,9,396,A,31.327978460318477,41.6752528486643,1.5663989230159239,0.6546333409293044,A,501,Correct
1,relearn,9,397,B,40.53126375101179,22.250585088214482,2.0265631875505896,0.3495113732560461,A,532,Correct
1,relearn,9,398,B,67.77649747490783,37.920052559479856,3.3888248737453917,0.5956467927230038,A,548,Correct
1,relearn,9,399,A,43.549789549895664,54.79634133661615,2.177489477494783,0.8607389169335602,B,2287,Correct
1,relearn,9,400,A,25.946994072196702,47.83285717568785,1.2973497036098351,0.7513567635167537,A,859,Correct
1,relearn,9,401,A,35.884308253441056,43.444989982411755,1.7942154126720526,0.6824323068201346,B,750,Correct
1,relearn,9,402,A,29.830302378958727,51.52131761462093,1.4915151189479363,0.8092949646067977,B,445,Correct
1,relearn,9,403,A,56.43393484305333,83.08780319628843,2.821696742152666,1.3051401606218715,A,981,Incorrect
1,relearn,9,404,B,87.4690159392102,66.39520689282385,4.373450796960509,1.042933471040349,B,592,Incorrect
1,relearn,9,405,A,56.7174937722711,84.85874919187269,2.835874688613555,1.3329581152700303,A,356,Incorrect
1,relearn,9,406,A,38.95460466573218,47.841388610308826,1.9477302332866089,0.7514907749784031,B,541,Correct
1,relearn,9,407,B,73.24257416548016,57.03289870218915,3.6621287082740084,0.8958706778786414,B,422,Incorrect
1,relearn,9,408,A,26.872631414570908,55.414360994611584,1.3436315707285453,0.8704467470202227,A,425,Incorrect
1,relearn,9,409,B,76.25292501395631,56.38401599155236,3.812646250697816,0.8856780520947516,B,406,Correct
1,relearn,9,410,A,45.1829266059961,57.842973899975156,2.259146330299805,0.9085953093297404,B,473,Incorrect
1,relearn,9,411,B,63.659831906772624,32.614574540742275,3.182991595338631,0.5123085388857632,A,725,Incorrect
1,relearn,9,412,A,43.898252010914554,50.70044423558039,2.194912600545728,0.7964007157211918,B,947,Incorrect
1,relearn,9,413,B,60.32325641495341,38.98462716200798,3.0161628207476707,0.6123690914755069,B,431,Incorrect
1,relearn,9,414,B,37.954400909433545,20.682083654139948,1.8977200454716774,0.324873410343878,A,551,Correct
1,relearn,9,415,B,39.24893750090287,12.433432953497942,1.9624468750451434,0.19530390812805187,A,697,Correct
1,relearn,9,416,B,48.57542204419565,26.739476618783694,2.428771102209782,0.4200227165320344,A,448,Correct
1,relearn,9,417,A,35.954489356816715,44.19301834704205,1.7977244678408357,0.6941823088951312,A,967,Correct
1,relearn,9,418,A,15.849744799309377,40.162325599914595,0.7924872399654689,0.6308683352788649,A,517,Correct
1,relearn,9,419,B,63.55430705785551,43.07772875597217,3.1777153528927755,0.6766633809654797,A,400,Correct
1,relearn,9,420,B,74.65034339862692,57.85171381166184,3.7325171699313455,0.9087325955414801,A,470,Correct
1,relearn,9,421,A,19.583889112615715,49.843712356435034,0.9791944556307857,0.7829432028330956,A,769,Correct
1,relearn,9,422,A,37.24071660219252,60.623873944108425,1.862035830109626,0.9522775850748235,A,360,Correct
1,relearn,9,423,A,38.97667370820372,56.59364779913503,1.948833685410186,0.8889709408280536,A,1224,Incorrect
1,relearn,9,424,B,55.756738810228285,42.697173072945255,2.787836940511414,0.6706856262750837,B,438,Incorrect
1,relearn,9,425,A,41.800238650107765,55.386561792787575,2.090011932505388,0.8700100781790929,A,491,Correct
1,relearn,9,426,A,16.16592447707677,36.3572715851474,0.8082962238538386,0.5710986865823401,A,902,Incorrect
1,relearn,9,427,B,61.99938344156567,31.445536461748034,3.0999691720782834,0.49394533168208793,A,439,Correct
1,relearn,9,428,B,66.26993033145283,33.93734673393668,3.3134965165726413,0.5330865959083251,B,489,Correct
1,relearn,9,429,A,58.32868814749314,68.4818542501308,2.9164344073746573,1.0757104510820892,B,838,Correct
1,relearn,9,430,A,50.65796646033875,66.30460747977858,2.5328983230169375,1.0415103387881361,B,460,Correct
1,relearn,9,431,A,48.5934593584345,59.07134301910631,2.429672967921725,0.9278904863325355,B,496,Correct
1,relearn,9,432,B,74.57450413921417,54.113642851727384,3.728725206960709,0.8500151142098427,A,739,Incorrect
1,relearn,9,433,A,25.120686498123234,50.99551589709876,1.2560343249061616,0.8010356905417348,B,417,Incorrect
1,relearn,9,434,A,20.57787968706777,43.896850427263495,1.0288939843533884,0.6895301140901049,A,489,Correct
1,relearn,9,435,B,47.845994733575935,35.36398525984936,2.3922997366787966,0.5554961814700023,A,2482,Correct
1,relearn,9,436,B,38.39831393628218,17.51742407285353,1.9199156968141091,0.2751630538854682,A,763,Correct
1,relearn,9,437,A,50.12303875606623,79.74794411625483,2.5061519378033115,1.2526777768725776,A,2980,Incorrect
1,relearn,9,438,A,61.287593410268656,87.08422898063347,3.0643796705134325,1.3679158700454472,B,1086,Correct
1,relearn,9,439,B,69.31655124480764,54.36708152564424,3.4658275622403822,0.8539961195904066,B,652,Incorrect
1,relearn,9,440,A,56.67651736916214,72.74505539372431,2.833825868458107,1.1426766580495344,A,674,Correct
1,relearn,9,441,A,27.78454827684161,56.81323966643738,1.3892274138420806,0.8924202818135795,A,674,Correct
1,relearn,9,442,A,54.64489378235113,81.79724920976716,2.7322446891175565,1.28486818600629,A,606,Correct
1,relearn,9,443,B,78.34743334183268,56.981146328688816,3.9173716670916345,0.8950577534966689,A,432,Correct
1,relearn,9,444,A,49.9700607161765,69.67072795765044,2.498503035808825,1.0943852356100383,A,393,Incorrect
1,relearn,9,445,A,23.55508000473574,35.034051217043796,1.177754000236787,0.5503135896447667,A,638,Correct
1,relearn,9,446,B,44.102327305697514,18.959099994422765,2.2051163652848755,0.29780884630576426,A,379,Correct
1,relearn,9,447,B,70.13247124597393,52.86235418357573,3.5066235622986968,0.8303599177729161,A,875,Correct
1,relearn,9,448,A,52.80699738513172,74.28673482688252,2.640349869256586,1.1668933019565357,A,923,Incorrect
1,relearn,9,449,A,22.564596603913863,39.0042782435257,1.128229830195693,0.6126777699421626,A,738,Correct
1,relearn,9,450,B,62.241920687694865,37.90255021526988,3.1120960343847432,0.5953718665430505,A,356,Correct
1,relearn,9,451,B,49.349861111254114,18.49091597540677,2.4674930555627057,0.29045462893242024,A,548,Incorrect
1,relearn,9,452,A,50.74149619010127,67.7759852570704,2.5370748095050635,1.0646226868671125,A,503,Incorrect
1,relearn,9,453,A,20.60361267170295,46.88653492592165,1.0301806335851476,0.7364919683777835,A,665,Incorrect
1,relearn,9,454,A,46.907557432304515,60.70082741965539,2.345377871615226,0.9534863674420564,A,965,Correct
1,relearn,9,455,B,50.74123836319594,21.339264042722995,2.537061918159797,0.33519637574815697,A,397,Incorrect
1,relearn,9,456,B,85.30225917770608,58.55272278304024,4.265112958885304,0.9197440187143946,A,607,Correct
1,relearn,9,457,B,66.86200478517941,40.81870126501129,3.3431002392589706,0.6411786601161793,B,409,Incorrect
1,relearn,9,458,B,58.31748181752563,34.940551399752195,2.9158740908762812,0.5488448979491903,A,362,Incorrect
1,relearn,9,459,A,39.732989936759104,51.12364190380857,1.9866494968379553,0.8030482891488014,B,450,Incorrect
1,relearn,9,460,A,63.666130507126425,78.80275586031004,3.183306525356321,1.2378307944669003,A,702,Incorrect
1,relearn,9,461,A,59.73670709980057,74.41073583572476,2.9868353549900286,1.1688411052486183,B,1443,Correct
1,relearn,9,462,B,79.76462200013395,49.73166712900732,3.988231100006698,0.7811832005163121,B,1084,Correct
1,relearn,9,463,A,40.586050964155326,58.946815484808724,2.0293025482077662,0.9259344123979408,B,404,Incorrect
1,relearn,9,464,A,31.547802674612,58.39385041944033,1.5773901337306,0.9172484574626749,A,347,Correct
1,relearn,9,465,B,73.19793613210369,56.80324222817778,3.6598968066051842,0.892263242420624,A,734,Correct
1,relearn,9,466,B,74.31067020079433,61.48169664883876,3.715533510039717,0.9657522326111403,A,374,Incorrect
1,relearn,9,467,A,58.94598794547643,66.99104948648956,2.9472993972738215,1.0522929446151292,B,378,Correct
1,relearn,9,468,A,39.8192161695855,53.17090719824735,1.9909608084792751,0.8352066571935927,B,578,Correct
1,relearn,9,469,B,39.99888245229688,14.051220733742543,1.999944122614844,0.2207160591554708,B,433,Correct
1,relearn,9,470,A,61.77426191260463,85.28847978736964,3.0887130956302316,1.3397083076792102,A,439,Correct
1,relearn,9,471,A,65.56434052056552,81.75029619676418,3.278217026028276,1.28413064980272,A,347,Correct
1,relearn,9,472,B,64.77750004795348,34.70271202682903,3.2388750023976742,0.5451089258156412,A,368,Incorrect
1,relearn,9,473,A,51.33189077076171,67.12237858576509,2.5665945385380855,1.0543558572825624,B,428,Correct
1,relearn,9,474,A,56.466615016949774,80.75810723110362,2.823330750847489,1.2685453819752595,B,341,Correct
1,relearn,9,475,A,49.324377524836834,76.04004694651982,2.4662188762418418,1.1944342643290482,B,353,Correct
1,relearn,9,476,A,22.352642859497852,34.033204791207694,1.1176321429748926,0.5345923307508752,A,655,Correct
1,relearn,9,477,A,53.972204975803976,80.97791048848325,2.6986102487901986,1.2719980434683542,A,630,Correct
1,relearn,9,478,A,48.02054549434817,65.43308877084523,2.4010272747174084,1.0278205549208808,A,360,Incorrect
1,relearn,9,479,B,30.73553525376301,14.304710397680388,1.5367767626881506,0.22469786548541115,B,1764,Incorrect
1,relearn,9,480,B,38.3443651197577,24.593665799969358,1.9172182559878848,0.3863163990101314,A,428,Correct
1,relearn,9,481,B,58.01175646597951,48.323097276570785,2.9005878232989755,0.7590574370138986,A,1462,Correct
1,relearn,9,482,B,81.24301262889952,64.38021496806948,4.062150631444976,1.0112820519010937,A,454,Incorrect
1,relearn,9,483,A,22.169896752364863,52.19850002868981,1.108494837618243,0.8199321210926925,B,398,Correct
1,relearn,9,484,B,59.959114458482574,29.57501545928544,2.9979557229241287,0.4645632564834784,A,490,Incorrect
1,relearn,9,485,A,42.62995520672859,60.5180992066767,2.1314977603364293,0.9506160793845689,B,364,Correct
1,relearn,9,486,A,28.18600760092754,51.59223873256415,1.409300380046377,0.8104089909223715,B,716,Correct
1,relearn,9,487,B,67.87583699531908,48.826655450537466,3.3937918497659543,0.7669673103138428,B,527,Incorrect
1,relearn,9,488,B,62.57552686616515,52.61068209862216,3.1287763433082576,0.8264066619068972,A,320,Incorrect
1,relearn,9,489,A,51.0445301964084,76.27527990435817,2.55222650982042,1.1981292949901843,B,442,Correct
1,relearn,9,490,B,41.781596194761775,20.276839116746743,2.089079809738089,0.3185078440359686,B,1433,Correct
1,relearn,9,491,B,56.36472924613654,41.767394330556904,2.818236462306827,0.6560806959423277,B,435,Incorrect
1,relearn,9,492,A,25.55035797423188,52.61264293569659,1.2775178987115938,0.8264374626636366,A,433,Incorrect
1,relearn,9,493,A,42.69968909907039,72.0919311346284,2.1349844549535195,1.1324174061782495,B,399,Incorrect
1,relearn,9,494,A,32.420568124201495,43.14597870065919,1.6210284062100748,0.6777354485896631,A,456,Incorrect
1,relearn,9,495,B,49.516670651369715,25.535877386450068,2.4758335325684855,0.40111662400120635,B,4361,Correct
1,relearn,9,496,B,41.084160801462154,28.996893570063783,2.054208040073108,0.4554821390831874,B,3631,Correct
1,relearn,9,497,B,77.26481669685089,53.70002760934373,3.863240834842544,0.8435180611754166,A,730,Correct
1,relearn,9,498,A,18.35899000372406,46.31749764321416,0.917949500186203,0.7275535516429208,A,690,Correct
1,relearn,9,499,A,13.619134127803061,33.18158059975565,0.6809567063901532,0.5212150492334497,A,451,Correct
1,relearn,9,500,B,35.37441277460445,14.383579627540325,1.7687206387302226,0.2259367404510225,A,2639,Correct
1,relearn,9,501,A,56.00062456838382,77.1603708209592,2.800031228419191,1.2120322705969482,A,383,Correct
1,relearn,9,502,A,43.74915886386588,57.485467826389595,2.187457943193294,0.9029796170577897,A,474,Correct
1,relearn,9,503,A,42.62906651575061,62.669321541514826,2.1314533257875303,0.9844074008013978,A,536,Correct
1,relearn,9,504,A,48.01089209271717,73.44710176954817,2.4005446046358587,1.153704376733372,A,488,Correct
1,relearn,9,505,A,17.563494337848642,38.59232208194405,0.8781747168924321,0.6062067776880329,A,290,Correct
1,relearn,9,506,A,54.95373163714124,72.18938636312795,2.747686581857062,1.1339482293277898,A,103,Correct
1,relearn,9,507,B,79.26536804993924,57.560734764703874,3.963268402496962,0.9041619073601215,A,395,Correct
1,relearn,9,508,B,73.79705650951512,59.89820518644764,3.689852825475756,0.9408788068847898,B,620,Correct
1,relearn,9,509,B,59.38908328544511,39.04446550456993,2.9694541642722556,0.6133090299624848,B,341,Correct
1,relearn,9,510,B,86.91873513643283,67.73406729675943,4.345936756821641,1.0639642410862804,B,440,Correct
1,relearn,9,511,A,39.56883906132113,57.300433698088675,1.9784419530660562,0.900073107767122,A,735,Incorrect
1,relearn,9,512,B,59.705425926109044,48.5941308238548,2.985271296305452,0.7633148220190179,B,459,Correct
1,relearn,9,513,A,47.091811455267745,57.423897795797394,2.3545905727633873,0.9020124772788409,A,1255,Incorrect
1,relearn,9,514,A,50.088246892541335,79.14477337953178,2.5044123446270667,1.2432031930958303,B,653,Correct
1,relearn,9,515,B,59.10865601303772,46.84955159715251,2.9554328006518857,0.7359110356079515,B,428,Correct
1,relearn,9,516,B,56.5409863141332,32.502099283882416,2.82704931570666,0.5105417816824553,B,491,Correct
1,relearn,9,517,A,28.412848516683958,53.89691745853947,1.420642425834198,0.8466107996944154,B,599,Incorrect
1,relearn,9,518,A,37.69600022308276,59.95829697822484,1.884800011154138,0.9418227265427311,B,641,Correct
1,relearn,9,519,A,49.04671904542381,71.68634816026648,2.45233595227119,1.1260465237148667,B,2216,Incorrect
1,relearn,9,520,A,67.8915957922844,86.29767111851088,3.3945797896142205,1.3555606480391094,A,298,Incorrect
1,relearn,9,521,B,62.87195519846113,45.55086327898515,3.1435977599230562,0.7155112872096642,B,372,Correct
1,relearn,9,522,A,22.071390482661524,38.94161058379174,1.1035695241330763,0.6116933886449734,B,378,Correct
1,relearn,9,523,A,38.94274713905067,71.33561080662768,1.9471373569525332,1.120537154247211,B,397,Incorrect
1,relearn,9,524,A,14.548702680620082,42.658325632559595,0.7274351340310041,0.670075412108452,A,607,Correct
1,relearn,9,525,A,28.155255234202436,55.548535390279305,1.4077627617101216,0.8725543534988706,A,487,Correct
1,relearn,9,526,B,56.322013095080166,29.192983703565783,2.816100654754008,0.4585623156974441,A,836,Correct
1,relearn,9,527,B,64.80281937598863,41.7131817720881,3.2401409687994316,0.6552291270652382,A,303,Incorrect
1,relearn,9,528,B,57.12711580335662,36.124261880816924,2.856355790167831,0.5674385787056413,B,445,Correct
1,relearn,9,529,B,32.62324806158027,17.832110011808787,1.6311624030790137,0.28010612905551746,A,379,Incorrect
1,relearn,9,530,B,59.97466360575734,29.00235157530752,2.998733180287867,0.45556787322907233,B,413,Incorrect
1,relearn,9,531,B,38.26548411259587,23.472743936149673,1.9132742056297933,0.36870899954701086,A,971,Correct
1,relearn,9,532,A,46.01806961906588,66.67566202713684,2.3009034809532936,1.047338849988445,A,340,Correct
1,relearn,9,533,B,85.29834535817758,67.68682694380928,4.26491726790888,1.0632221913573745,A,444,Correct
1,relearn,9,534,A,52.71780080430179,74.43031705256087,2.6358900402150893,1.1691486862834215,A,454,Correct
1,relearn,9,535,B,68.62082241473186,52.30839727647448,3.4310411207365927,0.821658383024143,A,346,Correct
1,relearn,9,536,A,67.4021284705151,85.37663093012596,3.3701064235257547,1.341092982591654,A,382,Incorrect
1,relearn,9,537,A,35.547351205066605,57.66756004706436,1.7773675602533303,0.9058399149715282,B,909,Incorrect
1,relearn,9,538,B,65.38956407714824,53.37366934991101,3.2694782038574117,0.8383916376240557,A,383,Incorrect
1,relearn,9,539,A,62.497368168529235,73.00079876250021,3.1248684084264617,1.1466938654922876,B,414,Incorrect
1,relearn,9,540,B,59.51895661240224,51.72397366679584,2.9759478306201124,0.8124782784303888,A,448,Incorrect
1,relearn,9,541,B,77.24377176893496,56.57379722603532,3.862188588446748,0.8886591287549559,B,509,Incorrect
1,relearn,9,542,A,33.05057539282681,65.51178374730526,1.6525287696413402,1.0290566927204872,A,534,Incorrect
1,relearn,9,543,B,64.45687765161355,44.95594036564661,3.222843882580678,0.7061662599396812,B,411,Correct
1,relearn,9,544,A,21.3771728957609,39.82079330818273,1.068858644788045,0.6255035585855223,A,317,Incorrect
1,relearn,9,545,B,58.8979772391588,45.092593380527916,2.94489886195794,0.7083128004778911,B,383,Incorrect
1,relearn,9,546,B,46.10620076368697,25.22963951852799,2.3053100381843485,0.39630625082063126,A,361,Correct
1,relearn,9,547,B,44.15809160573351,22.721073923266562,2.2079045802866757,0.35690179459502425,A,358,Correct
1,relearn,9,548,B,67.81126860865568,49.82460835763246,3.390563430432784,0.7826431179216337,A,607,Incorrect
1,relearn,9,549,A,43.5000538321917,51.67724929183189,2.1750026916095853,0.811744333664737,A,431,Correct
1,relearn,9,550,B,85.69731215445414,60.88438734342452,4.284865607722707,0.9563697199820892,A,369,Correct
1,relearn,9,551,B,47.2935504475056,36.844098372232246,2.36467752237528,0.5787457438717224,A,421,Incorrect
1,relearn,9,552,A,39.70464527620148,50.15288677871724,1.9852322638100741,0.7877997033016938,A,1022,Incorrect
1,relearn,9,553,B,76.45681653611699,46.928198507931064,3.82284082680585,0.7371464183935987,B,587,Correct
1,relearn,9,554,B,63.417095641354194,35.14968586303961,3.1708547820677095,0.5521299744165712,B,568,Incorrect
1,relearn,9,555,B,55.76651825856215,47.03395125430332,2.7883259129281077,0.7388075786490986,A,955,Correct
1,relearn,9,556,A,65.75787591026267,79.42402636749948,3.2878937955131335,1.247589688773292,A,388,Incorrect
1,relearn,9,557,B,41.859685923992096,16.92016290789845,2.092984296199605,0.2657812974449814,B,445,Incorrect
1,relearn,9,558,B,47.037069244776816,22.513145653734835,2.351853462238841,0.35363566497485166,A,383,Incorrect
1,relearn,9,559,B,84.6041726268202,64.33210147168786,4.23020863134101,1.0105262868672387,B,551,Correct
1,relearn,9,560,A,38.375318408357636,53.31388574068221,1.9187659204178817,0.8374525588862642,A,1327,Correct
1,relearn,9,561,A,62.37535546997913,73.99247838185163,3.1187677734989565,1.1622711325266333,A,505,Incorrect
1,relearn,9,562,B,81.01488422641097,55.49231040077248,4.0507442113205485,0.8716711734289565,B,357,Correct
1,relearn,9,563,A,29.936214846237633,53.85333154067678,1.4968107423118817,0.8459261536976282,B,1421,Incorrect
1,relearn,9,564,B,74.59836689370786,49.2601022977679,3.729918344685393,0.7737758774687467,A,355,Incorrect
1,relearn,9,565,A,40.08274518845611,56.043224894722314,2.0041372594228055,0.8803249180637012,B,568,Correct
1,relearn,9,566,B,55.873188333946594,41.532217653272305,2.79365941669733,0.6523865493340629,B,378,Correct
1,relearn,9,567,B,31.649991205352027,18.304358957510697,1.5824995602676015,0.2875241981479307,B,383,Correct
1,relearn,9,568,A,38.437257657493106,50.23156594037097,1.9218628828746551,0.7890355926829036,B,1135,Incorrect
1,relearn,9,569,B,66.67225450603358,44.009102832110464,3.333612725301679,0.6912933707421799,A,475,Incorrect
1,relearn,9,570,A,54.81606326534918,80.82545862718098,2.740803163267459,1.2696033352308878,B,539,Incorrect
1,relearn,9,571,A,22.145963418446684,40.084605095427925,1.1072981709223342,0.6296475044492218,B,384,Correct
1,relearn,9,572,A,48.49642306539396,61.57808639936587,2.4248211532696984,0.9672663192718269,B,362,Incorrect
1,relearn,9,573,B,61.12647277915367,31.94142669139382,3.056323638957684,0.5017347571942987,B,338,Incorrect
1,relearn,9,574,A,39.39684186771966,62.23502538164095,1.969842093385983,0.9775854926746876,B,303,Incorrect
1,relearn,9,575,B,44.4968450388818,18.818555565066074,2.2248422519440902,0.29560117957191445,B,318,Incorrect
1,relearn,9,576,B,74.91926860823494,45.47440870465438,3.745963430411747,0.7143103415644098,A,498,Incorrect
1,relearn,9,577,A,47.42337755001674,75.82526040841759,2.371168877500837,1.1910604052780887,B,418,Incorrect
1,relearn,9,578,B,40.46409705286706,14.047858708108436,2.023204852643353,0.22066324858030428,A,317,Correct
1,relearn,9,579,A,45.77587696923405,72.63455039028925,2.2887938484617023,1.1409408495146518,A,474,Correct
1,relearn,9,580,B,81.28360660352763,54.60356346628599,4.064180330176382,0.8577107692275405,A,358,Correct
1,relearn,9,581,A,55.51687486076927,62.98431079692187,2.7758437430384633,0.9893552404551302,A,424,Correct
1,relearn,9,582,B,59.467065739159295,51.033662714791184,2.973353286957965,0.8016348993528366,A,250,Correct
1,relearn,9,583,B,52.42441955446208,20.862463758059388,2.621220977723104,0.3277068143905134,A,1154,Correct
1,relearn,9,584,B,57.38670048029995,24.911165294966565,2.8693350240149975,0.3913036694151399,A,321,Incorrect
1,relearn,9,585,B,53.64096418483671,31.601198503052842,2.6820482092418354,0.49639046530911785,B,610,Correct
1,relearn,9,586,A,37.28637024720308,65.89306320015125,1.864318512360154,1.0350458163606158,B,344,Incorrect
1,relearn,9,587,A,56.35195665211272,84.75142734244439,2.817597832605636,1.331272307601362,A,350,Incorrect
1,relearn,9,588,A,19.776016870364217,45.719689532736545,0.9888008435182108,0.7181632038022564,B,334,Incorrect
1,relearn,9,589,B,53.98003558442389,45.11894506722497,2.699001779221194,0.708726731804577,A,506,Correct
1,relearn,9,590,B,56.341441053897384,24.351491298397352,2.817072052694869,0.38251233083500447,A,678,Correct
1,relearn,9,591,A,27.816220541120586,58.50857992817821,1.3908110270560292,0.9190506243716794,A,731,Incorrect
1,relearn,9,592,A,36.38896203239992,67.93248645934601,1.819448101619996,1.0670810020038477,B,2077,Correct
1,relearn,9,593,B,71.66732666952122,60.37739950040039,3.583366333476061,0.9484059735665694,A,1054,Correct
1,relearn,9,594,A,30.473961285966574,48.28517155486857,1.5236980642983287,0.7584617011704897,B,797,Correct
1,relearn,9,595,A,46.0873863997104,55.40637002306802,2.3043693199855197,0.8703212251327411,B,472,Incorrect
1,relearn,9,596,B,58.365789326992825,39.70576343036639,2.9182894663496417,0.6236966734900665,A,809,Correct
1,relearn,9,597,B,52.49520627936415,38.352740965456256,2.6247603139682076,0.6024434463105485,A,630,Incorrect
1,relearn,9,598,B,33.349109172545994,19.17612662783319,1.6674554586272996,0.3012178926915418,A,868,Correct
1,relearn,9,599,A,34.51974419672205,50.74703263748047,1.7259872098361027,0.7971325246269506,B,3115,Incorrect
1,relearn,9,600,B,88.44489317825193,66.75912070422501,4.4222446589125965,1.048649815822538,A,3465,Incorrect
1,relearn,9,601,B,79.64051995997929,59.32806797092741,3.9820259979989645,0.9319231124457072,B,7294,Correct
1,relearn,9,602,A,48.46175315449532,68.76959305915905,2.423087657724766,1.0802302417250684,B,3592,Incorrect
1,relearn,9,603,A,63.282689433860924,76.24921724238949,3.164134471693046,1.1977199036533148,A,12528,Correct
1,relearn,9,604,A,69.73076984709508,88.07546253935698,3.4865384923547538,1.3834861303758346,A,9539,Correct
1,relearn,9,605,A,40.12592717455475,51.64010174405467,2.0062963587277376,0.8111608213487581,A,5199,Correct
1,relearn,9,606,A,51.25243616772876,77.86808543332809,2.5626218083864383,1.2231490257322295,A,7998,Correct
1,relearn,9,607,A,48.525553917223576,59.9241770376964,2.426277695861179,0.9412867717702059,B,6555,Incorrect
1,relearn,9,608,A,21.932521281708656,41.30824296446953,1.0966260640854328,0.6488683631493987,B,6725,Incorrect
1,relearn,9,609,B,55.37757625801992,38.598710111680624,2.768878812900996,0.6063071206244897,A,8561,Incorrect
1,relearn,9,610,B,56.769597917097435,31.152616324575195,2.838479895854872,0.48934415292693445,A,7486,Incorrect
1,relearn,9,611,A,30.27045180486857,46.789427991723734,1.5135225902434286,0.7349666162223395,A,5344,Correct
1,relearn,9,612,B,58.22375169141017,51.31727169486887,2.9111875845705084,0.8060898187943574,B,2161,Correct
1,relearn,9,613,B,65.50131791298139,33.480942099216236,3.2750658956490697,0.5259174086708147,A,14314,Incorrect
1,relearn,9,614,B,36.62271597238065,15.892378322620939,1.8311357986190324,0.24963689493207808,B,6264,Correct
1,relearn,9,615,B,47.538218657566375,23.022334931043797,2.3769109328783187,0.36163399143925434,B,8360,Correct
1,relearn,9,616,B,59.1684004445642,37.90381668896979,2.95842002222821,0.5953917602654085,B,32221,Correct
1,relearn,9,617,B,34.932455732401664,15.059631959189055,1.746622786620083,0.23655614564377198,B,6169,Correct
1,relearn,9,618,B,67.51047596483052,53.62886138341528,3.3755237982415256,0.8424001847126138,A,19662,Incorrect
1,relearn,9,619,B,72.9053131696025,40.499664331074555,3.645265658480125,0.636167239676782,B,2480,Correct
1,relearn,9,620,B,53.3552661360604,26.080878165996204,2.66776330680302,0.40967747622732054,A,8119,Incorrect
1,relearn,9,621,A,21.437224229844535,37.30114512324798,1.0718612114922268,0.5859250174484129,A,538,Correct
1,relearn,9,622,B,89.61691729679565,65.48994155367389,4.480845864839782,1.028713596345234,B,933,Correct
1,relearn,9,623,B,50.13302397456918,29.65479784155069,2.5066511987284588,0.4658164752135305,B,999,Correct
1,relearn,9,624,A,59.82942699032592,84.40032640544791,2.991471349516296,1.3257572269796791,B,12702,Incorrect
1,relearn,9,625,B,35.592572990965124,24.506238817231083,1.7796286495482563,0.384943099176651,B,6208,Correct
1,relearn,9,626,A,42.5741035200383,58.21199258734171,2.128705176001915,0.9143918413160811,B,6701,Incorrect
1,relearn,9,627,A,18.185209511114326,47.8164493077162,0.9092604755557163,0.7510990293293498,A,514,Correct
1,relearn,9,628,B,68.14009170754825,57.04468904600627,3.407004585377413,0.8960558801662373,B,1787,Correct
1,relearn,9,629,B,86.44050319161336,64.85702867493161,4.322025159580668,1.0187718240941386,B,731,Correct
1,relearn,9,630,B,65.883446054732,34.509209723411274,3.2941723027366003,0.5420693987412916,A,1484,Incorrect
1,relearn,9,631,A,30.18833236545813,44.097911939996294,1.5094166182729065,0.6926883809467099,A,2577,Correct
1,relearn,9,632,A,29.314732386347806,43.129328236344314,1.4657366193173902,0.6774739037078106,A,875,Correct
1,relearn,9,633,B,41.93256973485166,30.38429596423682,2.096628486742583,0.477275404928722,B,2096,Correct
1,relearn,9,634,B,67.74302631420564,55.738230876764355,3.3871513157102817,0.8755340832326733,B,739,Correct
1,relearn,9,635,B,60.079364872069505,36.08028752027726,3.003968243603475,0.5667478310655526,B,821,Correct
1,relearn,9,636,A,18.144941462044514,44.40287897967512,0.9072470731022257,0.69747879200392,B,2484,Incorrect
1,relearn,9,637,A,46.503017247059795,60.55603974506642,2.3251508623529897,0.9512120479679611,B,1114,Incorrect
1,relearn,9,638,B,76.84195062810514,48.2367085926283,3.8420975314052566,0.7577004467397634,B,617,Correct
1,relearn,9,639,A,47.388597409072595,68.02100260626602,2.36942987045363,1.0684714103882875,A,835,Correct
1,relearn,9,640,B,61.79196919661742,34.533054756348896,3.0895984598308712,0.5424439556427988,B,1154,Correct
1,relearn,9,641,B,57.49370062526689,41.26855302461948,2.8746850312633443,0.648244915032127,B,517,Correct
1,relearn,9,642,B,53.067897520478105,40.642608441345914,2.6533948760239054,0.6384126005102941,B,822,Correct
1,relearn,9,643,B,80.31155175941123,60.85699646434703,4.0155775879705615,0.9559394650596632,B,3516,Correct
1,relearn,9,644,B,76.2668275187956,48.61229698780625,3.8133413759397796,0.763600175455087,B,623,Correct
1,relearn,9,645,A,38.39736212061434,71.47292908837713,1.9198681060307168,1.122694144772949,B,409,Incorrect
1,relearn,9,646,A,44.33969082679982,76.00004687437433,2.216984541339991,1.1938059446650717,A,2090,Correct
1,relearn,9,647,A,10.19898448887973,32.91091642254404,0.5099492244439865,0.5169634662798602,A,928,Correct
1,relearn,9,648,A,68.06003213966828,80.85716754979676,3.4030016069834144,1.2701014178226027,A,702,Correct
1,relearn,9,649,A,65.7063333323965,86.23185302866864,3.285316666619825,1.3545267799015006,A,564,Correct
1,relearn,9,650,B,70.89100120122252,50.78765163524703,3.5445500600611264,0.7977705663518486,B,720,Correct
1,relearn,9,651,A,32.52158092585192,60.71076945251424,1.6260790462925963,0.9536425365290118,A,1422,Correct
1,relearn,9,652,A,52.052391859071385,59.44280245658354,2.602619592953569,0.9337253575319607,B,822,Incorrect
1,relearn,9,653,B,78.3659485199779,58.90844727459392,3.918297425998895,0.9253317259612296,A,587,Incorrect
1,relearn,9,654,B,78.76316567224829,65.89577548183986,3.938158283612415,1.0350884207817526,B,639,Correct
1,relearn,9,655,A,40.97925825894204,55.53627159719203,2.048962912947102,0.8723617142875298,B,849,Incorrect
1,relearn,9,656,B,45.341722257142465,28.644583767326225,2.267086112857123,0.44994806964284756,B,2032,Correct
1,relearn,9,657,A,40.15311555260071,53.0619249595665,2.007655777630035,0.8334947681915349,B,586,Incorrect
1,relearn,9,658,A,31.183125771636284,48.62385409843978,1.5591562885818144,0.7637817141244017,A,386,Correct
1,relearn,9,659,B,61.22750464053254,51.98832680273654,3.0613752320266268,0.8166307277795123,B,1735,Correct
1,relearn,9,660,B,38.86212108548963,27.553817217750627,1.9431060542744816,0.4328143487482066,A,1173,Incorrect
1,relearn,9,661,A,46.42330572390134,76.84158267024037,2.321165286195067,1.2070247580351996,B,678,Incorrect
1,relearn,9,662,B,49.714874843448186,31.06344148823061,2.485743742172409,0.48794339787320834,A,381,Incorrect
1,relearn,9,663,A,46.9638685940945,56.74265619431988,2.348193429704725,0.8913115592262335,B,528,Incorrect
1,relearn,9,664,A,40.4848580136918,64.00093505110848,2.0242429006845897,1.0053243368971996,B,532,Incorrect
1,relearn,9,665,B,34.971860548569325,12.09725666951027,1.7485930274284665,0.19002326340761794,A,679,Incorrect
1,relearn,9,666,B,59.815376505176566,34.915205066901144,2.990768825258828,0.5484467586837888,B,1069,Correct
1,relearn,9,667,B,66.48135611968665,36.383039528603234,3.324067805984333,0.5715034484916348,B,493,Correct
1,relearn,9,668,A,12.497877696014836,36.566144718601294,0.6248938848007418,0.5743796580902951,A,686,Correct
1,relearn,9,669,B,69.72900802380508,51.12827377696044,3.486450401190254,0.803121046442133,B,433,Correct
1,relearn,9,670,B,57.82553397639058,35.916791253506105,2.891276698819529,0.5641796377126646,B,560,Correct
1,relearn,9,671,B,31.93108201710859,17.391541518689234,1.5965541008554294,0.27318569534857984,B,734,Correct
1,relearn,9,672,A,43.24238928301195,69.23655227129197,2.1621194641505976,1.0875652198768828,B,598,Incorrect
1,relearn,9,673,A,34.4318522703563,67.62589864180121,1.721592613517815,1.0622651318274534,B,377,Incorrect
1,relearn,9,674,A,55.29302791378573,70.45153022746032,2.7646513956892864,1.106650048983743,B,412,Incorrect
1,relearn,9,675,B,88.97181900634507,66.39434734083599,4.448590950317254,1.042919969229297,B,369,Correct
1,relearn,9,676,B,37.8030284407766,15.353240530141864,1.8901514220388298,0.24116813829145373,A,1084,Incorrect
1,relearn,9,677,B,63.05750139324953,42.09467063234559,3.1528750696624765,0.6612215400692947,B,409,Correct
1,relearn,9,678,B,57.174229526568304,40.360159806052174,2.8587114763284154,0.6339759077220178,B,446,Correct
1,relearn,9,679,A,48.881815996716306,79.35534211300093,2.4440907998358155,1.246510799026542,B,392,Incorrect
1,relearn,9,680,A,17.298739348850617,37.815369841053446,0.8649369674425309,0.5940024404271727,A,748,Correct
1,relearn,9,681,B,69.73686601201871,50.52418293023602,3.4868433006009356,0.7936320096112814,A,416,Incorrect
1,relearn,9,682,B,44.19966210991808,18.459305287694775,2.209983105495904,0.2899580894109656,B,568,Correct
1,relearn,9,683,A,27.160267234799512,36.72680534032462,1.3580133617399754,0.576903309234931,B,586,Incorrect
1,relearn,9,684,A,63.27209889456596,87.33730813850283,3.1636049447282977,1.3718912281611426,A,396,Correct
1,relearn,9,685,A,11.655368756940362,37.94723763964966,0.5827684378470182,0.5960738149637472,A,844,Correct
1,relearn,9,686,B,70.92810006911542,55.622627906360265,3.546405003455771,0.8737181960199002,B,506,Correct
1,relearn,9,687,B,41.58733018288558,13.258704836675438,2.079366509144279,0.20826724855507509,B,452,Correct
1,relearn,9,688,B,76.99755734994888,50.529670165501145,3.849877867497444,0.7937182029012687,B,815,Correct
1,relearn,9,689,B,43.055585341658755,16.398029871733467,2.1527792670829378,0.2575796508919192,B,669,Correct
1,relearn,9,690,B,44.588062103116826,24.310918079371294,2.2294031051558414,0.3818750082008808,B,430,Correct
1,relearn,9,691,A,27.3914378554178,55.94559447288638,1.3695718927708898,0.8787913429836679,B,384,Incorrect
1,relearn,9,692,A,38.34757498479363,67.08606805128706,1.9173787492396814,1.0537854927407417,B,368,Incorrect
1,relearn,9,693,B,61.72639460524979,32.706337430880176,3.0863197302624896,0.5137499469934101,A,417,Incorrect
1,relearn,9,694,A,25.673033988193417,46.21923449524772,1.283651699409671,0.7260100377240709,B,3783,Incorrect
1,relearn,9,695,B,58.501534761302786,48.2629974814484,2.9250767380651395,0.7581133916397048,B,925,Correct
1,relearn,9,696,A,20.333108414942032,43.97083909486658,1.0166554207471017,0.6906923253630585,A,1253,Correct
1,relearn,9,697,A,41.628474751328405,67.97196310786126,2.0814237375664204,1.067701099748667,B,537,Incorrect
1,relearn,9,698,B,85.94060731413322,59.42578992932165,4.297030365706661,0.9334581253786361,A,389,Incorrect
1,relearn,9,699,B,45.05642450027644,25.132019785599752,2.252821225013822,0.39477284364156756,B,415,Correct
1,relearn,9,700,B,74.48556900792411,58.53894842082806,3.724278450396206,0.9195276515387263,B,1141,Correct
1,relearn,9,701,B,43.91992453978544,33.57472036648261,2.195996226989272,0.5273904742483668,B,153,Correct
1,relearn,9,702,A,41.49472921187543,66.62967133371257,2.0747364605937717,1.0466164298654692,A,354,Correct
1,relearn,9,703,A,56.01931779649975,84.2441660345832,2.8009658898249876,1.3233042656102267,B,494,Incorrect
1,relearn,9,704,B,74.17619700784454,57.545230394042456,3.7088098503922264,0.9039183652752792,B,389,Correct
1,relearn,9,705,A,33.80025800386518,53.352209882057394,1.690012900193259,0.8380545530912614,B,1487,Incorrect
1,relearn,9,706,B,58.544421990799314,50.77272187915205,2.9272210995399655,0.7975360502915092,A,341,Incorrect
1,relearn,9,707,A,16.431144736591477,39.40400377516777,0.8215572368295738,0.6189566439104577,A,864,Correct
1,relearn,9,708,B,82.1349432678103,60.58409898255849,4.106747163390515,0.951652801439813,B,446,Correct
1,relearn,9,709,A,41.86172421420339,49.7337356867705,2.0930862107101693,0.7812156933456738,A,1018,Correct
1,relearn,9,710,A,24.194731736438868,56.34537284920531,1.2097365868219434,0.8850710470342059,A,436,Correct
1,relearn,9,711,A,33.73602657828612,48.52195150715255,1.6868013289143062,0.7621810319635531,A,1034,Correct
1,relearn,9,712,A,41.955392224096435,58.83669851872095,2.097769611204822,0.9242046991394561,A,381,Correct
1,relearn,9,713,A,27.001076329921766,47.70335034780425,1.3500538164960885,0.7493224750214097,B,408,Incorrect
1,relearn,9,714,A,51.10031213454901,60.07582998346607,2.55501560672745,0.9436689306718321,A,365,Correct
1,relearn,9,715,A,63.14237051225928,80.08663145247323,3.1571185256129644,1.2579978651092156,A,520,Correct
1,relearn,9,716,A,36.46029007295852,64.85532902368666,1.823014503647926,1.0187451260348146,A,567,Correct
1,relearn,9,717,B,41.447929946343784,25.665837484366115,2.072396497317189,0.40315803244557064,A,507,Incorrect
1,relearn,9,718,B,80.75911029551617,52.020446872413515,4.037955514775808,0.8171352686541621,B,594,Correct
1,relearn,9,719,B,64.6705183401579,48.144370987891236,3.233525917007895,0.7562500110363034,B,1149,Correct
1,relearn,9,720,A,24.961071744551703,43.834910691018294,1.248053587227585,0.6885571669883388,A,923,Correct
1,relearn,9,721,A,36.75593169532327,48.235199361115185,1.8377965847661637,0.7576767397865928,A,783,Correct
1,relearn,9,722,A,37.4279052839919,56.51241490140761,1.8713952641995948,0.8876949374544024,A,470,Correct
1,relearn,9,723,A,36.63435622072606,69.11661982624469,1.831717811036303,1.0856813254354447,A,1209,Correct
1,relearn,9,724,A,24.980472047462847,41.43098608478001,1.2490236023731425,0.6507964075746292,A,1803,Correct
1,relearn,9,725,A,53.31699713656723,77.69544575109771,2.6658498568283613,1.2204372079451642,B,640,Incorrect
1,relearn,9,726,A,33.50469292719199,63.74979623668828,1.6752346463595995,1.0013794576251307,A,951,Correct
1,relearn,9,727,B,67.09409262280832,53.13308847379472,3.354704631140416,0.8346126020590501,A,445,Incorrect
1,relearn,9,728,A,45.35763879905776,68.9607018284893,2.267881939952888,1.083232171253891,B,783,Incorrect
1,relearn,9,729,A,28.201870031690618,37.78350590709524,1.4100935015845308,0.5935019229229849,A,450,Correct
1,relearn,9,730,B,84.15179189002085,54.176087489322015,4.207589594501042,0.8509959922834597,A,475,Incorrect
1,relearn,9,731,B,62.22736539016749,37.223849392540345,3.111368269508375,0.5847108589496881,B,636,Correct
1,relearn,9,732,A,50.77541725623321,76.55484157902234,2.5387708628116603,1.202520639506935,A,571,Correct
1,relearn,9,733,A,22.212589058637167,44.811479515986484,1.1106294529318583,0.7038970742195632,A,657,Correct
1,relearn,9,734,B,89.45622909597165,68.06641872654876,4.472811454798583,1.0691848051374615,A,490,Incorrect
1,relearn,9,735,B,54.552987430488926,42.152204104137745,2.7276493715244463,0.6621252737308833,B,363,Correct
1,relearn,9,736,A,67.99557573229288,87.75132709877795,3.399778786614644,1.3783946227813788,B,662,Incorrect
1,relearn,9,737,A,65.2056621476772,84.90359855783434,3.2602831073838603,1.3336626074631468,A,453,Correct
1,relearn,9,738,A,39.92014659429077,60.7440065782734,1.9960073297145384,0.9541646240795689,A,339,Correct
1,relearn,9,739,B,67.11569891250366,47.54925618851203,3.355784945625183,0.7469019696274422,A,789,Incorrect
1,relearn,9,740,B,74.85456135594605,54.46084614850021,3.742728067797302,0.8554689708420612,B,454,Correct
1,relearn,9,741,A,55.621057174934606,80.12415359057775,2.7810528587467305,1.2585872614762965,B,1625,Incorrect
1,relearn,9,742,B,52.09692385956777,44.28390146415047,2.604846192978388,0.695609897560347,A,390,Incorrect
1,relearn,9,743,A,46.6385464491673,57.26085821416941,2.331927322458365,0.8994514575194068,B,422,Incorrect
1,relearn,9,744,B,85.68976066803523,63.212082638100696,4.284488033401761,0.9929330721698403,A,318,Incorrect
1,relearn,9,745,B,55.239336219723576,46.26437618452346,2.761966810986179,0.7267191217210672,B,305,Correct
1,relearn,9,746,A,38.710189057706216,59.7404396066114,1.9355094528853107,0.9384006309517755,B,3067,Incorrect
1,relearn,9,747,B,40.606303115838585,30.080738629664538,2.0303151557919294,0.47250713746754414,A,370,Incorrect
1,relearn,9,748,A,63.97976048833533,77.24429671461056,3.1989880244167663,1.2133505754516536,B,414,Incorrect
1,relearn,9,749,A,35.66596915590381,65.4381420470583,1.7832984577951905,1.0278999315980184,A,1433,Correct
1,relearn,9,750,B,68.51838390915324,46.25566524504245,3.4259191954576624,0.7265822906036705,A,385,Incorrect
1,relearn,9,751,A,31.597212274369575,58.21826434973055,1.5798606137184787,0.9144903579293103,B,793,Incorrect
1,relearn,9,752,A,27.711283086841874,53.02477487904443,1.3855641543420938,0.8329112160912929,A,459,Correct
1,relearn,9,753,A,36.05534879450981,55.14037731955906,1.8027674397254907,0.8661430215164799,A,716,Correct
1,relearn,9,754,A,50.63090567764762,66.3712967256483,2.5315452838823806,1.0425578910126252,A,965,Correct
1,relearn,9,755,A,34.19954752297223,63.32500381957037,1.7099773761486117,0.9947068339405393,A,662,Correct
1,relearn,9,756,A,26.93512042046269,45.71070516594406,1.3467560210231346,0.7180220776986943,A,569,Correct
1,relearn,9,757,B,72.51239001385957,41.237117858747325,3.6256195006929786,0.6477511326012853,A,502,Incorrect
1,relearn,9,758,A,35.05092499785491,43.60714836001441,1.7525462498927453,0.6849794846591074,A,373,Correct
1,relearn,9,759,B,34.87860799700083,21.056396335784296,1.7439303998500413,0.3307531001978749,A,413,Incorrect
1,relearn,9,760,A,22.75210431901393,46.537748611532656,1.1376052159506966,0.7310132457629979,A,365,Correct
1,relearn,9,761,B,58.73604240916026,37.700560750139246,2.9368021204580135,0.5921990234442658,A,700,Incorrect
1,relearn,9,762,A,35.688101529375544,62.16396673468999,1.7844050764687773,0.9764693060585118,A,467,Correct
1,relearn,9,763,B,55.02666770144802,41.41455219309149,2.751333385072401,0.6505382646076363,A,828,Incorrect
1,relearn,9,764,A,26.975233727965264,51.48079405930589,1.3487616863982632,0.8086584220884223,B,464,Incorrect
1,relearn,9,765,A,61.408448132726235,72.96206097517391,3.0704224066363115,1.1460853737518844,A,608,Correct
1,relearn,9,766,A,34.241968892151476,51.79397380753173,1.7120984446075738,0.8135778380698192,A,364,Correct
1,relearn,9,767,A,25.874596179163404,42.6360975868921,1.2937298089581701,0.6697262547835885,A,2268,Correct
1,relearn,9,768,B,50.202358080166405,30.30108560132632,2.51011790400832,0.47596833960461116,A,400,Incorrect
1,relearn,9,769,B,37.94462859044064,20.71685309143224,1.8972314295220318,0.32541956738771266,A,531,Incorrect
1,relearn,9,770,A,41.66713821469566,64.3488016416977,2.083356910734783,1.0107886125243217,B,406,Incorrect
1,relearn,9,771,B,46.394579952737246,23.901804501221157,2.3197289976368625,0.3754486671428793,A,453,Incorrect
1,relearn,9,772,B,47.16696729619476,28.091586268851575,2.3583483648097383,0.4412616052495401,B,334,Correct
1,relearn,9,773,A,19.714157729315033,33.848517821710644,0.9857078864657517,0.5316912746179467,A,481,Correct
1,relearn,9,774,B,42.20292975800605,29.387084406973123,2.1101464879003027,0.46161124241684964,A,356,Incorrect
1,relearn,9,775,B,49.534195099071944,36.48269914763315,2.4767097549535975,0.5730688981266546,A,292,Incorrect
1,relearn,9,776,B,66.9404734934072,53.92049483384253,3.3470236746703597,0.8469811522396304,B,371,Correct
1,relearn,9,777,A,40.32559512332106,47.65905444446792,2.016279756166053,0.748626676598882,B,327,Incorrect
1,relearn,9,778,B,54.45049838311851,32.100936161600785,2.7225249191559255,0.5042403260931998,A,344,Incorrect
1,relearn,9,779,B,52.27614278363427,36.528974734317416,2.6138071391817137,0.5737957933424938,B,458,Correct
1,relearn,9,780,B,69.31886565802331,58.516161829241284,3.4659432829011654,0.9191697205950795,B,543,Correct
1,relearn,9,781,A,43.92205313373712,65.21593946149339,2.196102656686856,1.0244095815459215,B,372,Incorrect
1,relearn,9,782,B,81.58582567929797,60.00006102887321,4.079291283964898,0.9424787547162365,A,416,Incorrect
1,relearn,9,783,A,32.89770319738241,49.54720892298238,1.6448851598691205,0.7782857377916006,B,316,Incorrect
1,relearn,9,784,A,48.60350695759167,74.67989865766707,2.4301753478795836,1.1730691049687856,A,391,Correct
1,relearn,9,785,B,56.97609047857729,46.65235257074985,2.8488045239288646,0.7328134405447432,A,779,Incorrect
1,relearn,9,786,A,66.83370734277321,87.97207665095581,3.3416853671386604,1.3818621486384048,B,372,Incorrect
1,relearn,9,787,B,52.78038435052536,38.71538360841563,2.639019217526268,0.6081398236255462,A,383,Incorrect
1,relearn,9,788,A,48.00811148786964,56.201237529029676,2.4004055743934822,0.8828069747192732,B,1045,Incorrect
1,relearn,9,789,A,15.619401823888943,33.13244062745932,0.7809700911944472,0.5204431603536309,A,630,Correct
1,relearn,9,790,A,41.20478144232555,59.008313367172306,2.0602390721162775,0.9269004188751645,A,634,Correct
1,relearn,9,791,B,73.96762200034411,62.29232301135957,3.6983811000172055,0.9784855217376482,A,381,Incorrect
1,relearn,9,792,B,56.733192700839545,26.437383893112436,2.8366596350419773,0.4152774550936758,B,1036,Correct
1,relearn,9,793,A,22.452119630560016,41.35646634949396,1.122605981528001,0.6496258543100185,B,342,Incorrect
1,relearn,9,794,B,40.42554082814458,22.964059522922234,2.0212770414072287,0.36071860346905604,A,372,Incorrect
1,relearn,9,795,A,61.49460068106297,84.37975677875691,3.0747300340531485,1.3254341200391815,B,456,Incorrect
1,relearn,9,796,B,60.47859663824519,28.66412956109533,3.02392983191226,0.45025509425341553,A,361,Incorrect
1,relearn,9,797,A,22.449869303503753,44.93015874502065,1.1224934651751877,0.7057612831899003,B,463,Incorrect
1,relearn,9,798,A,61.73519293921652,85.4287701729481,3.086759646960826,1.341911983902723,B,749,Incorrect
1,relearn,9,799,A,22.228926570635235,51.1719410699854,1.1114463285317617,0.8038069706769797,A,367,Correct
1,relearn,9,800,B,61.377528142236635,33.15712036598307,3.0688764071118317,0.5208308287798247,A,808,Incorrect
1,relearn,9,801,B,58.38049664354947,51.29481428336541,2.919024832177474,0.805737058599368,B,365,Correct
1,relearn,9,802,B,87.50849956351283,59.94910977974952,4.375424978175642,0.9416784143665455,B,566,Correct
1,relearn,9,803,A,65.15216405561817,86.59879676233075,3.257608202780909,1.3602907185912692,B,426,Incorrect
1,relearn,9,804,B,68.15452822018429,49.718350318469845,3.407726411009214,0.7809740205455431,B,665,Correct
1,relearn,9,805,B,53.903000476147156,24.53403827753873,2.695150023807358,0.38537977207803226,B,1361,Correct
1,relearn,9,806,B,71.38513867270214,49.80966493566389,3.569256933635107,0.7824083871982541,B,1216,Correct
1,relearn,9,807,B,48.89661539712093,29.98623864627391,2.4448307698560465,0.4710227351996223,B,523,Correct
1,relearn,9,808,A,46.94133131417798,61.031381822250154,2.3470665657088987,0.9586787038560736,B,586,Incorrect
1,relearn,9,809,B,45.528445549737725,18.205220525965135,2.2764222774868865,0.2859669353067709,B,367,Correct
1,relearn,9,810,B,53.486007333973255,32.433913005020095,2.674300366698663,0.5094707141187079,B,383,Correct
1,relearn,9,811,A,20.270907322112702,36.42782343511239,1.013545366105635,0.5722069124500758,B,568,Incorrect
1,relearn,9,812,B,55.98355007700573,35.436770961525454,2.799177503850286,0.5566394965983624,A,647,Incorrect
1,relearn,9,813,B,75.01286733653401,49.270292388249885,3.7506433668267003,0.7739359430357345,B,491,Correct
1,relearn,9,814,B,79.92939605004037,50.47199187197044,3.9964698025020184,0.7928121943851304,B,481,Correct
1,relearn,9,815,A,30.39189810367636,51.38479943595471,1.5195949051838182,0.8071505420709013,B,528,Incorrect
1,relearn,9,816,B,60.64324962119818,52.41997554342913,3.032162481059909,0.823411050342968,A,393,Incorrect
1,relearn,9,817,A,52.32280679254677,79.65163914692278,2.6161403396273384,1.2511650219517887,B,2697,Incorrect
1,relearn,9,818,B,67.17403467601038,54.60576651004445,3.358701733800519,0.857745374557976,A,530,Incorrect
1,relearn,9,819,A,32.35061352086457,60.913960037022406,1.6175306760432284,0.9568342467668592,B,2942,Incorrect
1,relearn,9,820,A,49.2575559109051,57.58149982410028,2.4628777955452548,0.9044880841503771,A,995,Correct
1,relearn,9,821,B,39.48765408578174,14.3133504972695,1.9743827042890871,0.22483358385238839,A,756,Incorrect
1,relearn,9,822,A,44.431939539680634,52.60145284842045,2.221596976984032,0.8262616891837379,B,1886,Incorrect
1,relearn,9,823,B,50.43789831406415,39.957207004878484,2.5218949157032076,0.6276463399224644,A,906,Incorrect
1,relearn,9,824,B,52.636857633979595,41.36400471701911,2.63184288169898,0.6497442667102038,B,2447,Correct
1,relearn,9,825,B,40.9054035274397,22.934772686434844,2.0452701763719854,0.36025856691727776,B,611,Correct
1,relearn,9,826,B,58.550887614484566,45.366276052347764,2.9275443807242283,0.7126117978339115,B,512,Correct
1,relearn,9,827,B,67.4919921435618,50.01236842447574,3.37459960717809,0.7855924461547955,A,909,Incorrect
1,relearn,9,828,B,71.75676224768125,43.807611688247526,3.5878381123840626,0.6881283552555639,B,454,Correct
1,relearn,9,829,B,57.56593671461909,26.424980659943785,2.8782968357309544,0.4150826255626588,B,599,Correct
1,relearn,9,830,B,85.67616936246289,59.55505714787792,4.283808468123144,0.9354886500994678,B,559,Correct
1,relearn,9,831,B,41.506405391264636,26.312553522650056,2.075320269563232,0.4133166242197282,A,685,Incorrect
1,relearn,9,832,A,29.887312802010058,54.36892737966964,1.494365640100503,0.8540251141976356,B,369,Incorrect
1,relearn,9,833,A,55.91281023638085,76.41089534272652,2.7956405118190424,1.200259537314641,A,375,Correct
1,relearn,9,834,A,52.18693579844768,59.95335053164697,2.609346789922384,0.9417450279415792,A,387,Correct
1,relearn,9,835,B,66.26644700256729,33.40523135151906,3.313322350128365,0.5247281470269987,A,565,Incorrect
1,relearn,9,836,B,47.25656443992909,37.12834508596134,2.3628282219964545,0.5832106808100143,B,479,Correct
1,relearn,9,837,B,41.40752001502958,22.073767420867412,2.070376000751479,0.3467339278322339,B,443,Correct
1,relearn,9,838,A,30.38830592169844,46.47693721487062,1.519415296084922,0.730058022577958,B,335,Incorrect
1,relearn,9,839,A,24.73309477212243,38.767203505643565,1.2366547386061215,0.6089538086677515,B,550,Incorrect
1,relearn,9,840,A,43.53937827629083,60.752274694793414,2.176968913814542,0.9542944993501603,A,354,Correct
1,relearn,9,841,A,42.739802979747374,60.30660314871576,2.1369901489873686,0.9472939070748027,A,426,Correct
1,relearn,9,842,B,51.99672997099161,28.612112074742804,2.5998364985495805,0.44943800548849905,A,438,Incorrect
1,relearn,9,843,B,71.8670231954388,57.526929261079275,3.5933511597719403,0.9036308917509318,B,313,Correct
1,relearn,9,844,B,49.83177103973277,39.73870063236383,2.4915885519866383,0.6242140498491914,B,433,Correct
1,relearn,9,845,A,25.310837463980274,56.3742662445739,1.2655418731990138,0.8855249034273421,B,327,Incorrect
1,relearn,9,846,A,31.695533124761212,54.866978971159604,1.5847766562380605,0.8618484903023034,A,361,Correct
1,relearn,9,847,A,17.45207645589411,42.159385268928105,0.8726038227947056,0.6622380752036314,A,495,Correct
1,relearn,9,848,A,55.65091899468272,66.02775382515023,2.782545949734136,1.0371615317506364,B,747,Incorrect
1,relearn,9,849,A,17.012981170356223,37.19309794765583,0.8506490585178113,0.5842278163830059,A,639,Correct
1,relearn,9,850,A,64.62816753064236,81.33809178166484,3.231408376532118,1.277655757991453,A,612,Correct
1,relearn,9,851,B,45.75186949847393,20.019430678020587,2.2875934749236966,0.3144644817355981,A,1245,Incorrect
1,relearn,9,852,A,45.19654108362524,69.28027939953492,2.259827054181262,1.088252084001136,A,386,Correct
1,relearn,9,853,B,52.453238012920366,38.872337523617624,2.622661900646018,0.6106052499603,A,413,Incorrect
1,relearn,9,854,A,65.47104485601514,87.66512990939177,3.2735522428007573,1.3770406404967,B,312,Incorrect
1,relearn,9,855,A,13.367565368167607,36.49555117808677,0.6683782684083803,0.5732707773489386,A,300,Correct
1,relearn,9,856,A,42.6371624502218,71.05639252900974,2.13185812251109,1.1161512037986483,A,463,Correct
1,relearn,9,857,A,43.3087212546164,66.74097720176196,2.16543606273082,1.0483648183522962,A,382,Correct
1,relearn,9,858,B,75.22663394476882,56.56976220165109,3.761331697238441,0.888595746740143,A,428,Incorrect
1,relearn,9,859,B,55.49326080027683,25.50315821470352,2.774663040013842,0.4006026724532538,B,275,Correct
1,relearn,9,860,A,13.330413442973697,34.35055905820158,0.6665206721486848,0.5395773199197421,B,324,Incorrect
1,relearn,9,861,B,64.96811464574552,39.51047909861655,3.2484057322872757,0.6206291543801341,A,342,Incorrect
1,relearn,9,862,A,52.57916191110746,62.871250127594756,2.6289580955553733,0.9875792876142901,B,398,Incorrect
1,relearn,9,863,A,54.71991294946669,67.80296335465654,2.7359956474733345,1.0650464578330345,A,334,Correct
1,relearn,9,864,B,55.795961335530656,48.028635279530434,2.789798066776533,0.754432038780582,A,728,Incorrect
1,relearn,9,865,A,35.247368484332505,52.982112171099175,1.762368424216625,0.8322410718419776,B,328,Incorrect
1,relearn,9,866,B,54.91276778722093,43.47016682089841,2.745638389361046,0.6828277836742862,A,384,Incorrect
1,relearn,9,867,A,23.6111171295957,55.91091020552861,1.1805558564797851,0.8782465237860363,A,691,Correct
1,relearn,9,868,A,40.40327404820659,52.72819374386153,2.0201637024103296,0.8282525305138734,A,391,Correct
1,relearn,9,869,A,29.264094742196527,61.86824662961348,1.4632047371098265,0.9718241455103759,A,351,Correct
1,relearn,9,870,A,48.18121803900776,60.92673454759064,2.4090609019503884,0.9570349083096311,A,350,Correct
1,relearn,9,871,A,22.203891960659373,36.899381787732466,1.1101945980329686,0.5796141337317267,A,358,Correct
1,relearn,9,872,A,30.279157065449684,56.189498810527944,1.5139578532724842,0.882622583360235,A,370,Correct
1,relearn,9,873,B,49.374368508378595,31.06169342573712,2.46871842541893,0.48791593937177047,A,319,Incorrect
1,relearn,9,874,A,14.363872905138173,35.96631005803267,0.7181936452569088,0.5649574772752406,A,320,Correct
1,relearn,9,875,B,60.070058779782,28.13348450174211,3.0035029389891004,0.4419197411527765,B,344,Correct
1,relearn,9,876,A,41.4141205322175,73.86197332624667,2.070706026610875,1.1602211639069089,B,398,Incorrect
1,relearn,9,877,A,15.685214555719902,33.710149803913176,0.7842607277859952,0.5295177948769252,A,347,Correct
1,relearn,9,878,A,57.53609891157427,75.78357189652927,2.876804945578714,1.1904055636646513,B,725,Incorrect
1,relearn,9,879,B,81.52987963252431,58.54532704836109,4.076493981626215,0.9196278467857151,A,442,Incorrect
1,relearn,9,880,A,14.956416566179353,42.616861963891395,0.7478208283089677,0.6694241023240575,A,470,Correct
1,relearn,9,881,B,49.260808967495834,34.37302030753415,2.463040448374792,0.5399301403992104,A,468,Incorrect
1,relearn,9,882,A,50.197683733887764,62.47791143059386,2.5098841866943884,0.9814007378099371,A,334,Correct
1,relearn,9,883,B,62.25433048955696,41.24325117030569,3.1127165244778485,0.6478474744339551,A,448,Incorrect
1,relearn,9,884,A,16.968144829245613,42.5425191251538,0.8484072414622807,0.6682563277439323,A,273,Correct
1,relearn,9,885,B,63.53390129065794,33.87091801157238,3.176695064532897,0.53204313597749,A,349,Incorrect
1,relearn,9,886,B,83.27415234209644,65.61397489256132,4.163707617104822,1.030661907476479,A,369,Incorrect
1,relearn,9,887,A,42.689650130789346,66.08605490353156,2.1344825065394675,1.0380773229483322,A,293,Correct
1,relearn,9,888,A,20.283378752609373,34.3803790086496,1.0141689376304686,0.5400457306060316,A,402,Correct
1,relearn,9,889,A,33.059084021933785,59.207176218678995,1.6529542010966893,0.9300241492419913,A,345,Correct
1,relearn,9,890,B,66.15856558639065,52.962281085273226,3.3079282793195324,0.83192956587426,A,360,Incorrect
1,relearn,9,891,B,84.12651395636328,60.370580245266545,4.206325697818164,0.9482988569574123,A,283,Incorrect
1,relearn,9,892,A,35.04149543274363,50.213804289094014,1.7520747716371816,0.7887565933170669,A,370,Correct
1,relearn,9,893,B,40.32816636972842,13.109120261495239,2.016408318486421,0.20591757954269277,A,398,Incorrect
1,relearn,9,894,B,67.30496451915882,48.19605240734026,3.365248225957941,0.7570618208746441,A,340,Incorrect
1,relearn,9,895,B,49.433746434239154,31.44416348976281,2.4716873217119577,0.4939237650885762,A,446,Incorrect
1,relearn,9,896,B,78.88477900587675,57.089898103965496,3.9442389502938373,0.8967660223880393,A,309,Incorrect
1,relearn,9,897,A,31.944512088428283,59.829498090191194,1.597225604421414,0.939799558340546,A,289,Correct
1,relearn,9,898,A,16.195110125312997,36.13087976804508,0.8097555062656498,0.5675425322351325,A,276,Correct
