experiment,condition,subject,trial,cat,x,y,xt,yt,resp,rt,fb
1,new_learn,18,0,A,21.21580128158456,52.70160689413441,1.060790064079228,0.8278349052549493,B,5331,Incorrect
1,new_learn,18,1,B,58.11876475319482,46.09657635141079,2.905938237659741,0.7240833281061657,B,758,Correct
1,new_learn,18,2,B,84.57636423289817,57.653897355141225,4.228818211644909,0.9056253019086584,B,709,Correct
1,new_learn,18,3,B,87.84773653709316,61.34433942162367,4.392386826854658,0.9635946303314583,B,550,Correct
1,new_learn,18,4,B,71.5931599023355,43.01907568406101,3.5796579951167753,0.6757420606663468,B,490,Correct
1,new_learn,18,5,B,64.28837795781915,49.44888135384819,3.2144188978909574,0.7767412119474139,B,493,Correct
1,new_learn,18,6,A,61.09281350628976,84.0327518421003,3.054640675314488,1.3199833792403823,B,624,Incorrect
1,new_learn,18,7,A,48.906230144280634,79.76199969593424,2.445311507214032,1.2528985614018915,A,1394,Correct
1,new_learn,18,8,B,72.17870433705089,48.000326889602285,3.608935216852544,0.7539873716314157,B,938,Correct
1,new_learn,18,9,A,24.39048662424766,38.72944571085422,1.219524331212383,0.6083607106141217,A,1582,Correct
1,new_learn,18,10,B,33.043126966199495,13.14828774881149,1.6521563483099748,0.20653282099475428,A,1144,Incorrect
1,new_learn,18,11,A,58.700101377453564,74.94168317889483,2.935005068872678,1.1771812066123488,B,1186,Incorrect
1,new_learn,18,12,A,36.27554963601176,49.581871494381915,1.813777481800588,0.7788302161899169,A,2498,Correct
1,new_learn,18,13,B,47.36505980843332,24.632243400459263,2.368252990421666,0.3869223745415924,A,956,Incorrect
1,new_learn,18,14,A,33.98851057435646,65.48622567072447,1.699425528717823,1.0286552273923564,A,2603,Correct
1,new_learn,18,15,A,29.903717189196833,51.72667214611476,1.4951858594598417,0.8125206660444095,A,1081,Correct
1,new_learn,18,16,B,69.80294831228709,45.452079146917406,3.490147415614354,0.7139595896916878,B,1570,Correct
1,new_learn,18,17,A,57.88743887641975,73.15556025802401,2.8943719438209876,1.1491248533792682,A,979,Correct
1,new_learn,18,18,A,46.821960665179816,70.71319332393998,2.341098033258991,1.1107602432918233,B,1243,Incorrect
1,new_learn,18,19,B,68.12944687327372,48.40799971008302,3.406472343663686,0.7603910813208681,B,1236,Correct
1,new_learn,18,20,A,40.4843748310183,55.02666952100429,2.024218741550915,0.8643569035935023,A,875,Correct
1,new_learn,18,21,B,53.545292164398525,37.2400389486365,2.6772646082199265,0.584965163902171,B,4122,Correct
1,new_learn,18,22,B,73.60106468730979,53.681270246101775,3.6800532343654893,0.8432234212026085,A,1091,Incorrect
1,new_learn,18,23,A,42.588316010913225,53.67056301495513,2.129415800545661,0.8430552324090556,B,1097,Incorrect
1,new_learn,18,24,A,56.89822147360419,78.53799792786111,2.8449110736802097,1.2336719865890944,A,1612,Correct
1,new_learn,18,25,A,29.719709273085137,60.73436078503075,1.4859854636542567,0.9540131083136231,A,1727,Correct
1,new_learn,18,26,B,58.8674934132878,29.60481748711249,2.9433746706643897,0.4650313856418962,B,1306,Correct
1,new_learn,18,27,B,33.93397780210083,13.569710173847614,1.6966988901050413,0.21315250896751167,A,1152,Incorrect
1,new_learn,18,28,B,48.746939128756416,22.82703759903786,2.4373469564378207,0.3585662681217766,B,860,Correct
1,new_learn,18,29,A,51.81991481179254,62.47844966113808,2.5909957405896273,0.9814091923155553,A,5827,Correct
1,new_learn,18,30,B,69.36703253059794,52.96321998901083,3.468351626529897,0.8319443141396825,B,1122,Correct
1,new_learn,18,31,B,78.90718018742618,53.523045036952944,3.9453590093713093,0.840738025429235,B,861,Correct
1,new_learn,18,32,B,46.40248373612017,25.559329668695568,2.3201241868060083,0.40148501158926825,B,2610,Correct
1,new_learn,18,33,A,25.806747065184666,52.74356920550278,1.2903373532592333,0.8284940477005618,A,1091,Correct
1,new_learn,18,34,B,57.125726250745956,41.87541041895912,2.856286312537298,0.6577774086912973,B,900,Correct
1,new_learn,18,35,A,29.836885683862384,61.88060027346397,1.4918442841931192,0.9720181960942046,A,811,Correct
1,new_learn,18,36,B,37.83830435881909,17.37924827508392,1.8919152179409542,0.27299259352958366,A,1563,Incorrect
1,new_learn,18,37,B,53.85097956601579,30.135406161184306,2.6925489783007897,0.473365853044606,B,786,Correct
1,new_learn,18,38,B,51.57413139662489,21.084185175080616,2.578706569831245,0.3311896062648005,B,1087,Correct
1,new_learn,18,39,B,80.34320713566291,52.09289923232494,4.017160356783146,0.818273347662327,B,578,Correct
1,new_learn,18,40,A,25.262216114092382,39.71520766878676,1.2631108057046192,0.6238450232402676,A,740,Correct
1,new_learn,18,41,B,63.380978301950044,50.92078150287615,3.169048915097502,0.7998617654224336,B,698,Correct
1,new_learn,18,42,B,72.25295954738866,50.90366764105413,3.6126479773694324,0.7995929415095606,B,723,Correct
1,new_learn,18,43,B,81.12272627903712,58.358981864281255,4.056136313951856,0.9167007434790297,B,621,Correct
1,new_learn,18,44,A,28.177793023239218,40.279057604187685,1.4088896511619609,0.6327019573141806,A,680,Correct
1,new_learn,18,45,A,36.278074996777235,56.99201032625866,1.8139037498388617,0.8952284047714392,A,623,Correct
1,new_learn,18,46,B,39.93159276294682,24.62477976316275,1.996579638147341,0.38680513600109345,A,543,Incorrect
1,new_learn,18,47,B,53.68331850522928,41.670612832993555,2.684165925261464,0.6545604557335856,B,725,Correct
1,new_learn,18,48,B,78.71789026544964,60.014031311721595,3.9358945132724816,0.9426981994060619,B,689,Correct
1,new_learn,18,49,B,74.91797836292751,42.68472616345282,3.7458989181463753,0.670490110677977,B,1536,Correct
1,new_learn,18,50,B,50.348456050109995,20.118520149161135,2.5174228025054997,0.31602097550851427,B,2950,Correct
1,new_learn,18,51,A,23.079684967493048,34.01691492653461,1.1539842483746525,0.5343364501549506,A,588,Correct
1,new_learn,18,52,B,86.81705155017553,58.69380117102046,4.340852577508777,0.9219600728506894,B,709,Correct
1,new_learn,18,53,B,41.61884269215904,28.37606355046786,2.080942134607952,0.44573016393973464,B,2681,Correct
1,new_learn,18,54,A,59.045608613648405,76.42949259901735,2.95228043068242,1.2005516623333417,B,539,Incorrect
1,new_learn,18,55,A,48.15266833099563,61.199730641864726,2.4076334165497815,0.9613231209307819,B,1095,Incorrect
1,new_learn,18,56,A,54.91160883334162,77.68558165417268,2.745580441667081,1.2202822630729946,A,1153,Correct
1,new_learn,18,57,B,77.1388519654252,58.01666165325481,3.85694259827126,0.9113235901783499,B,716,Correct
1,new_learn,18,58,B,65.82181862802847,39.09081881260237,3.2910909314014236,0.6140371460224064,B,755,Correct
1,new_learn,18,59,B,61.02899897709698,40.733389441636405,3.0514499488548488,0.639838585128285,B,695,Correct
1,new_learn,18,60,B,60.96897417890191,37.70992573253656,3.0484487089450956,0.5923461282437678,B,1006,Correct
1,new_learn,18,61,B,54.48608731038516,39.27948457693779,2.724304365519258,0.6170007009185068,B,567,Correct
1,new_learn,18,62,B,87.55120196307313,61.41603774462622,4.377560098153657,0.964720864955556,B,728,Correct
1,new_learn,18,63,A,39.446669043539295,52.96037638496522,1.9723334521769647,0.8318996469117855,B,1612,Incorrect
1,new_learn,18,64,B,57.436920563956164,45.149075620442964,2.871846028197808,0.7092000214277683,B,1063,Correct
1,new_learn,18,65,B,37.35335093238221,15.237583516512363,1.8676675466191108,0.23935140216968082,A,675,Incorrect
1,new_learn,18,66,B,73.25526501983566,56.975287724538106,3.662763250991783,0.8949657267578682,B,547,Correct
1,new_learn,18,67,B,45.45814118397388,19.27897054780838,2.272907059198694,0.30283336120884397,B,1511,Correct
1,new_learn,18,68,A,42.3511909206664,66.80890664585424,2.11755954603332,1.04943185156491,A,2779,Correct
1,new_learn,18,69,B,82.25573958307133,62.9326824006252,4.112786979153566,0.9885442635025189,B,654,Correct
1,new_learn,18,70,A,54.28765618256516,74.74551980296002,2.7143828091282582,1.174099879508648,B,2197,Incorrect
1,new_learn,18,71,A,52.10441954555306,64.54260807305384,2.605220977277653,1.013832916829156,B,1094,Incorrect
1,new_learn,18,72,A,31.37165985110522,49.57383225104919,1.568582992555261,0.7787039360509443,A,1176,Correct
1,new_learn,18,73,B,50.68090242578896,22.576336914387173,2.5340451212894477,0.35462827097603405,B,896,Correct
1,new_learn,18,74,B,76.72647622431433,52.893225802711534,3.836323811215716,0.8308448480323233,B,614,Correct
1,new_learn,18,75,B,41.88243189513383,21.951617681488763,2.0941215947566914,0.34481520421288453,A,990,Incorrect
1,new_learn,18,76,A,63.79634934861632,85.66350873483653,3.189817467430816,1.3455992486104376,A,1264,Correct
1,new_learn,18,77,B,62.54142745544353,41.183819542705606,3.1270713727721766,0.6469139246106584,B,761,Correct
1,new_learn,18,78,A,52.679269127307364,62.11660108629913,2.633963456365368,0.9757252881934254,B,819,Incorrect
1,new_learn,18,79,B,66.03850656802229,38.07066915716838,3.301925328401114,0.5980126727070385,B,656,Correct
1,new_learn,18,80,B,58.6840936813441,33.91060171931039,2.934204684067205,0.5326664862009747,B,1690,Correct
1,new_learn,18,81,A,33.602464636714025,66.88657762941668,1.6801232318357011,1.0506519045216942,A,611,Correct
1,new_learn,18,82,A,35.46410736380772,46.2491371222555,1.773205368190386,0.7264797470907242,B,2155,Incorrect
1,new_learn,18,83,A,50.31429810784642,81.08270592874044,2.5157149053923207,1.2736441663945626,A,1196,Correct
1,new_learn,18,84,A,32.60363486679617,58.489438055831755,1.6301817433398085,0.9187499445439815,A,974,Correct
1,new_learn,18,85,B,56.98699203439259,31.56588263652297,2.84934960171963,0.49583572497489087,B,2050,Correct
1,new_learn,18,86,A,63.40583209511153,73.31243087019986,3.1702916047555765,1.1515889711931473,B,1344,Incorrect
1,new_learn,18,87,B,45.403306376786475,18.35199397107613,2.270165318839324,0.2882724471912847,B,2264,Correct
1,new_learn,18,88,B,58.99078090649972,31.117175604989395,2.949539045324986,0.488787451405491,B,779,Correct
1,new_learn,18,89,B,66.70630096637757,57.78609766057954,3.3353150483188783,0.9077018994504951,B,725,Correct
1,new_learn,18,90,A,55.35370023014484,64.53748820193682,2.767685011507242,1.0137524940817135,B,951,Incorrect
1,new_learn,18,91,A,41.806040808785916,63.61300330864463,2.090302040439296,0.9992307193361059,A,769,Correct
1,new_learn,18,92,B,58.84029871344834,50.10952584110041,2.942014935672417,0.7871185912863446,B,843,Correct
1,new_learn,18,93,A,13.291778400002041,34.341256045930336,0.6645889200001021,0.5394311885447041,A,905,Correct
1,new_learn,18,94,B,45.69312753411229,26.007180751369606,2.2846563767056147,0.4085198399454232,B,1613,Correct
1,new_learn,18,95,B,85.59289401674948,56.793578197378714,4.2796447008374745,0.8921114401798119,B,753,Correct
1,new_learn,18,96,B,43.13004201798151,27.70853543523446,2.1565021008990755,0.43524465682532515,A,1015,Incorrect
1,new_learn,18,97,A,68.07452096540493,85.1092637748317,3.4037260482702463,1.3368931891372358,A,1282,Correct
1,new_learn,18,98,B,81.54643349089535,58.30296260681867,4.077321674544768,0.9158207950405098,B,835,Correct
1,new_learn,18,99,A,58.95628571044314,84.19850586135314,2.9478142855221567,1.3225870372863209,A,739,Correct
1,new_learn,18,100,B,75.90749545856292,48.88174867968334,3.795374772928146,0.7678327127335787,B,1048,Correct
1,new_learn,18,101,A,30.381007121431026,47.79521076737933,1.5190503560715514,0.7507654151178733,A,606,Correct
1,new_learn,18,102,B,61.75910539250193,52.6353851899489,3.0879552696250965,0.8267946971580623,A,909,Incorrect
1,new_learn,18,103,B,43.75705584721727,19.359662988807713,2.1878527923608635,0.30410087510806266,B,1922,Correct
1,new_learn,18,104,B,61.02978869296152,47.297521675836435,3.051489434648076,0.7429477331490588,B,1352,Correct
1,new_learn,18,105,A,49.5780732539541,58.58205825353475,2.478903662697705,0.9202048192073704,A,2612,Correct
1,new_learn,18,106,B,64.24172575654765,55.59725801684904,3.212086287827383,0.8733196867273458,B,1572,Correct
1,new_learn,18,107,A,46.96914126993426,73.12232380770592,2.348457063496713,1.1486027764385147,A,972,Correct
1,new_learn,18,108,A,41.71458894254868,51.77146658596476,2.085729447127434,0.8132242954601818,A,523,Correct
1,new_learn,18,109,B,53.676627540322855,37.104978244920375,2.6838313770161424,0.5828436353292547,B,2994,Correct
1,new_learn,18,110,B,41.815337677602926,28.512913584973113,2.0907668838801463,0.44787979925496074,B,1537,Correct
1,new_learn,18,111,B,31.761654506783074,13.601334234081719,1.5880827253391538,0.21364925854405242,A,781,Incorrect
1,new_learn,18,112,B,83.10950769629736,67.99001318587597,4.155475384814867,1.0679846297111055,B,750,Correct
1,new_learn,18,113,B,67.40158452804968,55.48885270201616,3.370079226402484,0.8716168600239006,B,1967,Correct
1,new_learn,18,114,A,32.157066412587454,61.74519296320925,1.6078533206293728,0.9698912230385119,B,2680,Incorrect
1,new_learn,18,115,B,74.68157591803129,59.19503052604705,3.7340787959015644,0.9298333651482648,B,600,Correct
1,new_learn,18,116,A,33.249400969641925,64.9147650094421,1.6624700484820962,1.0196787443158555,A,642,Correct
1,new_learn,18,117,A,25.90695198487876,56.69070048000547,1.295347599243938,0.8904954407742227,A,1330,Correct
1,new_learn,18,118,B,56.95925817236638,37.36986146229729,2.847962908618319,0.5870044111781074,B,1868,Correct
1,new_learn,18,119,B,80.14098375278739,48.45030487716309,4.00704918763937,0.7610556093314064,B,750,Correct
1,new_learn,18,120,A,57.84145211575582,73.67854312567297,2.892072605787791,1.157339849054065,A,4235,Correct
1,new_learn,18,121,B,55.90030320849033,30.62503392022348,2.795015160424516,0.48105690789856154,B,2034,Correct
1,new_learn,18,122,B,83.15805612897898,53.957587176725106,4.1579028064489485,0.847563797399152,B,1118,Correct
1,new_learn,18,123,A,27.951860263965703,44.54366475570448,1.3975930131982852,0.6996902498024389,A,967,Correct
1,new_learn,18,124,A,45.88648955107964,76.27652284035752,2.294324477553982,1.1981488189832061,B,1361,Incorrect
1,new_learn,18,125,A,65.8454752874114,84.81692917126365,3.2922737643705706,1.3323012079224386,B,1024,Incorrect
1,new_learn,18,126,A,56.27860476981819,78.50669923469516,2.8139302384909093,1.2331803478665089,A,590,Correct
1,new_learn,18,127,B,83.21294706637687,55.063097839799845,4.1606473533188435,0.8649291182870559,B,945,Correct
1,new_learn,18,128,B,71.85511043565377,48.86112371635657,3.5927555217826885,0.7675087365672391,B,1648,Correct
1,new_learn,18,129,B,80.3689159681937,55.95655537946748,4.018445798409686,0.8789635165016274,B,1208,Correct
1,new_learn,18,130,B,68.25702833958378,36.507399102266156,3.412851416979189,0.5734568841067499,B,3954,Correct
1,new_learn,18,131,A,16.457357387439064,32.006401517778116,0.8228678693719531,0.5027553793804848,A,1172,Correct
1,new_learn,18,132,B,85.43245358581598,65.29793741874194,4.271622679290799,1.0256976024464288,B,1064,Correct
1,new_learn,18,133,A,44.38880229529843,56.967072196387164,2.2194401147649216,0.8948366775434465,B,2487,Incorrect
1,new_learn,18,134,B,74.7899738176588,61.28980247295948,3.73949869088294,0.9627379659450952,B,635,Correct
1,new_learn,18,135,A,50.90293970549202,64.9314834217071,2.545146985274601,1.0199413565216124,A,1126,Correct
1,new_learn,18,136,B,47.49772952011213,32.97572798862548,2.3748864760056065,0.5179815239792057,B,1343,Correct
1,new_learn,18,137,A,43.58999473194629,60.43159641240154,2.1794997365973146,0.9492572966695199,A,913,Correct
1,new_learn,18,138,B,50.35832465115456,22.35760625542405,2.5179162325577282,0.351192457819467,B,573,Correct
1,new_learn,18,139,B,38.30605447425177,14.900010033482587,1.9153027237125886,0.23404881029801552,B,1076,Correct
1,new_learn,18,140,B,57.928135330189264,43.85613637228262,2.8964067665094633,0.6888905792099761,B,909,Correct
1,new_learn,18,141,B,39.59988963107061,28.43222349159634,1.9799944815535304,0.44661232223211095,B,891,Correct
1,new_learn,18,142,B,53.073765775354815,38.658280540153655,2.6536882887677407,0.6072428507267998,B,571,Correct
1,new_learn,18,143,A,15.24538384713414,44.4197477272865,0.7622691923567069,0.6977437656717759,A,1518,Correct
1,new_learn,18,144,B,38.57232386464017,22.483182217463476,1.9286161932320085,0.35316500041851967,B,1311,Correct
1,new_learn,18,145,A,29.145644986091042,53.51070660303004,1.457282249304552,0.84054421376239,A,3230,Correct
1,new_learn,18,146,B,79.83025165776199,57.385891743218394,3.9915125828880997,0.9014154796009705,B,1070,Correct
1,new_learn,18,147,B,55.09622956648106,23.3462429092328,2.7548114783240525,0.3667219260628428,B,976,Correct
1,new_learn,18,148,B,66.98518931435676,49.49666560249091,3.349259465717838,0.7774918051698801,A,857,Incorrect
1,new_learn,18,149,B,74.5977690580926,47.63562740788474,3.7298884529046297,0.7482586855687565,B,850,Correct
1,new_learn,18,150,A,56.87845177591311,71.6099023047442,2.843922588795656,1.1248457150243356,B,1416,Incorrect
1,new_learn,18,151,A,19.251879944025976,32.38464711838279,0.9625939972012988,0.5086968473810461,A,3032,Correct
1,new_learn,18,152,B,36.92276383829683,27.557972081522994,1.8461381919148414,0.4328796131957263,B,2080,Correct
1,new_learn,18,153,B,59.912903047239055,31.206558796379046,2.995645152361953,0.49019147929261175,B,961,Correct
1,new_learn,18,154,A,26.804253196883536,58.49681976319284,1.3402126598441768,0.9188658961320643,A,1005,Correct
1,new_learn,18,155,B,65.88022526205688,52.888856367251215,3.294011263102844,0.8307762131006109,B,1274,Correct
1,new_learn,18,156,A,24.881479889114587,47.14867408449099,1.2440739944557293,0.7406096406516819,B,2351,Incorrect
1,new_learn,18,157,B,67.9478841110716,40.27336721058443,3.39739420555358,0.6326125728204804,B,976,Correct
1,new_learn,18,158,A,61.19216684231624,80.12499808834221,3.059608342115812,1.2586005268161604,A,941,Correct
1,new_learn,18,159,A,47.51769184589906,64.10130039707329,2.375884592294953,1.0069008720649897,B,947,Incorrect
1,new_learn,18,160,A,61.20726651865151,85.93334605087232,3.0603633259325758,1.3498378432590497,B,825,Incorrect
1,new_learn,18,161,B,76.95060271114252,58.826303101407156,3.8475301355571263,0.9240414083061359,B,1730,Correct
1,new_learn,18,162,A,44.22632556657796,62.183165830777426,2.211316278328898,0.976770884754631,A,1682,Correct
1,new_learn,18,163,A,37.25309473961328,52.674652033980536,1.862654736980664,0.8274114993017597,B,1101,Incorrect
1,new_learn,18,164,A,57.68184959803875,65.94123529415877,2.8840924799019376,1.0358025018438257,B,1366,Incorrect
1,new_learn,18,165,B,49.35351747684481,41.227438488096915,2.4676758738422406,0.6475990894026518,B,780,Correct
1,new_learn,18,166,B,67.91292309156368,47.99495842978259,3.395646154578184,0.7539030440617625,B,803,Correct
1,new_learn,18,167,A,55.399186525268576,73.44757405714302,2.769959326263429,1.1537117954095637,A,827,Correct
1,new_learn,18,168,B,62.27421270292414,45.06524428740763,3.113710635146207,0.707883201927746,B,699,Correct
1,new_learn,18,169,A,44.301599633847964,57.40856394245429,2.2150799816923983,0.9017716136737715,B,635,Incorrect
1,new_learn,18,170,B,79.65878383782797,53.31758703103839,3.9829391918913983,0.8375106986192231,B,805,Correct
1,new_learn,18,171,A,56.799550867203116,84.29723676132943,2.8399775433601557,1.32413789863656,A,1022,Correct
1,new_learn,18,172,B,87.76953548627765,67.67031155974534,4.388476774313882,1.062962768311142,A,1739,Incorrect
1,new_learn,18,173,B,89.48427201719171,68.10372412535389,4.474213600859586,1.0697707969715888,B,443,Correct
1,new_learn,18,174,A,55.29197747783099,71.15826053002564,2.7645988738915497,1.1177513426167855,A,1075,Correct
1,new_learn,18,175,A,60.38008385386512,77.72908536236702,3.019004192693256,1.2209656177233308,A,7041,Correct
1,new_learn,18,176,B,46.85885492841122,26.39050381064495,2.342942746420561,0.4145410644802781,B,727,Correct
1,new_learn,18,177,A,51.3738774682096,73.64788287009966,2.5686938734104796,1.1568582388857331,B,1889,Incorrect
1,new_learn,18,178,B,59.38920220313821,40.639557762909526,2.9694601101569105,0.638364680565473,B,746,Correct
1,new_learn,18,179,A,45.69376247756054,76.94705385332361,2.284688123878027,1.2086814955048981,A,1473,Correct
1,new_learn,18,180,B,64.16342546170722,35.616611628050585,3.208171273085361,0.5594644271822226,B,1328,Correct
1,new_learn,18,181,A,14.856321913340516,36.0578006554762,0.7428160956670257,0.5663946082192463,A,1004,Correct
1,new_learn,18,182,B,78.61872869841193,63.82922763760648,3.9309364349205964,1.0026271631530754,B,1354,Correct
1,new_learn,18,183,A,44.95578629140568,54.80603435163585,2.247789314570284,0.8608911744574453,B,1199,Incorrect
1,new_learn,18,184,A,48.12461522610304,62.75896817496219,2.4062307613051517,0.9858155668266841,A,1276,Correct
1,new_learn,18,185,B,42.65955565590565,14.72571115892325,2.1329777827952823,0.23131092997879263,B,2058,Correct
1,new_learn,18,186,A,18.850486435592842,35.00588528307524,0.9425243217796421,0.5498711601885812,A,1187,Correct
1,new_learn,18,187,B,56.739760201330796,41.525300433715394,2.83698801006654,0.6522778939033467,B,1228,Correct
1,new_learn,18,188,A,15.469266177124226,38.39661650458206,0.7734633088562113,0.603132641667498,A,632,Correct
1,new_learn,18,189,A,38.64982132305455,64.34622096920859,1.9324910661527275,1.0107480754156561,A,2149,Correct
1,new_learn,18,190,A,60.816238402448604,74.27219485825348,3.0408119201224304,1.1666649086633938,B,1207,Incorrect
1,new_learn,18,191,A,24.763366458757226,35.603319370596395,1.2381683229378613,0.559255632890384,A,877,Correct
1,new_learn,18,192,A,50.88381329735931,78.42217331035206,2.5441906648679655,1.2318526177517377,B,2068,Incorrect
1,new_learn,18,193,B,48.764550320356065,31.07639364801335,2.4382275160178035,0.48814684992331625,B,1349,Correct
1,new_learn,18,194,B,37.70865975969133,21.819228687222772,1.8854329879845664,0.3427356427538736,A,2192,Incorrect
1,new_learn,18,195,B,43.91289136277564,29.579550084763426,2.195644568138782,0.46463448621392067,B,1047,Correct
1,new_learn,18,196,B,57.22926735907785,47.96697723901497,2.861463367953893,0.7534635165449913,B,898,Correct
1,new_learn,18,197,B,63.52144802399183,39.97570407329063,3.1760724011995918,0.627936891193647,B,737,Correct
1,new_learn,18,198,A,28.160725781778417,39.21993547525014,1.4080362890889209,0.6160653058165577,A,1199,Correct
1,new_learn,18,199,A,68.0890857080075,88.13067607091993,3.4044542854003748,1.3843534225015193,B,2218,Incorrect
1,new_learn,18,200,B,48.227642912498354,20.64521899641591,2.411382145624918,0.32429434165446336,B,1011,Correct
1,new_learn,18,201,A,64.69774647385631,75.73411796130955,3.2348873236928157,1.1896287430667645,A,1885,Correct
1,new_learn,18,202,B,72.06478986087366,51.86019086111328,3.6032394930436826,0.81461797311519,B,4060,Correct
1,new_learn,18,203,A,39.54563031950552,47.908749857000934,1.977281515975276,0.7525488829671257,A,4894,Correct
1,new_learn,18,204,A,26.26706333787977,41.540944890382605,1.3133531668939884,0.6525236364540223,A,983,Correct
1,new_learn,18,205,A,43.77794153705631,64.18639420585792,2.1888970768528155,1.0082375224877085,A,917,Correct
1,new_learn,18,206,B,79.91542165111326,55.169625542011005,3.995771082555663,0.8666024515204082,A,1475,Incorrect
1,new_learn,18,207,B,63.29183753789576,46.47815397438861,3.1645918768947876,0.7300771353917724,B,702,Correct
1,new_learn,18,208,A,56.272654629205874,65.22132971647714,2.813632731460294,1.0244942514732114,B,592,Incorrect
1,new_learn,18,209,B,48.44175088200469,25.662665299101015,2.4220875441002345,0.40310820387594726,A,1622,Incorrect
1,new_learn,18,210,A,26.571549815198317,55.18212450477356,1.328577490759916,0.8667987847683695,A,1505,Correct
1,new_learn,18,211,B,52.628342798211094,27.37331475171913,2.6314171399105546,0.4299790226420097,B,1159,Correct
1,new_learn,18,212,B,38.95163102874224,21.164354418112108,1.947581551437112,0.33244890178955844,A,1650,Incorrect
1,new_learn,18,213,B,46.17297180477121,16.879935964623808,2.3086485902385605,0.2651494140976415,B,616,Correct
1,new_learn,18,214,A,48.86586854280578,75.09574730595051,2.4432934271402886,1.179601240261048,A,1007,Correct
1,new_learn,18,215,A,37.36206097097687,65.85357437155936,1.8681030485488435,1.0344255272915999,A,716,Correct
1,new_learn,18,216,A,49.73363299045644,65.81962726275592,2.486681649522822,1.0338922873534622,A,866,Correct
1,new_learn,18,217,A,28.79812120504093,44.377005332443574,1.4399060602520464,0.6970723697035991,A,663,Correct
1,new_learn,18,218,B,65.47678965560969,37.217788697578726,3.2738394827804846,0.5846156577758529,B,1406,Correct
1,new_learn,18,219,A,57.60678624847351,85.57390685845856,2.8803393124236756,1.344191785627553,A,2077,Correct
1,new_learn,18,220,A,30.94885717253868,52.73007621782681,1.547442858626934,0.8282821003457729,A,2119,Correct
1,new_learn,18,221,A,46.3749667823516,62.12951704011177,2.31874833911758,0.9759281715214851,A,1027,Correct
1,new_learn,18,222,B,44.50660173075116,30.828080911297462,2.225330086537558,0.4842463625760192,B,928,Correct
1,new_learn,18,223,A,37.057400891224134,63.69863539312342,1.8528700445612065,1.0005758249736565,A,866,Correct
1,new_learn,18,224,A,50.2530645937729,57.64583901709152,2.512653229688645,0.9054987218305729,A,848,Correct
1,new_learn,18,225,A,34.6590742754466,63.8135070975498,1.7329537137723299,1.0023802254873129,A,1130,Correct
1,new_learn,18,226,A,39.020950152918616,63.34508576863893,1.9510475076459306,0.9950222804588571,A,1670,Correct
1,new_learn,18,227,B,85.84305880849661,63.915890328277904,4.29215294042483,1.003988457514844,B,962,Correct
1,new_learn,18,228,B,75.19822671670686,54.90624898406474,3.759911335835343,0.8624653422225491,B,684,Correct
1,new_learn,18,229,A,13.464632744160145,39.76955259455296,0.6732316372080072,0.6246986713380024,A,746,Correct
1,new_learn,18,230,A,55.97762045453123,73.25581601771852,2.7988810227265613,1.1506996671699499,A,1604,Correct
1,new_learn,18,231,A,12.941393219606194,35.108932162444475,0.6470696609803097,0.5514898167845899,A,652,Correct
1,new_learn,18,232,A,59.25814841101595,77.9549647027918,2.9629074205507977,1.2245137221057119,A,1262,Correct
1,new_learn,18,233,A,38.75075220355832,50.39922070346085,1.9375376101779158,0.7916691075432161,B,7659,Incorrect
1,new_learn,18,234,A,41.65771328113951,67.6621727797759,2.0828856640569753,1.062834924654336,A,1422,Correct
1,new_learn,18,235,B,61.581822785522945,34.38757981200085,3.079091139276147,0.5401588405605728,B,1620,Correct
1,new_learn,18,236,B,63.71415638549883,31.769033290748432,3.185707819274942,0.49902680798932425,B,1054,Correct
1,new_learn,18,237,A,23.764878109656724,42.28172529794632,1.1882439054828362,0.6641597878856493,A,1047,Correct
1,new_learn,18,238,B,51.26142886240279,39.88995783825749,2.563071443120139,0.6265899924833815,B,1104,Correct
1,new_learn,18,239,B,31.73602221868535,15.409224207550515,1.5868011109342675,0.2420475278397935,A,1896,Incorrect
1,new_learn,18,240,B,71.58311920191889,46.824175901377345,3.579155960095944,0.7355124351108165,B,1355,Correct
1,new_learn,18,241,B,60.10407659140102,49.92494075276664,3.005203829570051,0.7842191354989866,B,1024,Correct
1,new_learn,18,242,A,45.327960004114814,60.80653530315829,2.2663980002057404,0.9551468229932523,A,2259,Correct
1,new_learn,18,243,A,42.11255727540684,60.99255306272877,2.1056278637703425,0.9580687831277716,A,646,Correct
1,new_learn,18,244,B,55.858131919775374,27.01161467433992,2.7929065959887684,0.42429745111252265,B,663,Correct
1,new_learn,18,245,A,13.811764932859202,42.69329508337958,0.6905882466429601,0.6706247109574327,A,642,Correct
1,new_learn,18,246,A,34.194320927530995,47.305140445700765,1.70971604637655,0.7430674085062347,A,1316,Correct
1,new_learn,18,247,A,25.232749781897475,36.1063406204444,1.2616374890948736,0.5671570722059943,A,1094,Correct
1,new_learn,18,248,A,48.55623226443933,58.42826251626843,2.4278116132219667,0.9177890014156239,A,3921,Correct
1,new_learn,18,249,A,24.883212274739428,42.863645652227426,1.2441606137369714,0.6733005714355689,A,647,Correct
1,new_learn,18,250,A,35.665754424737614,51.40926090354494,1.7832877212368805,0.8075347819052889,A,1131,Correct
1,new_learn,18,251,A,45.887786935523984,68.8942770063161,2.294389346776199,1.0821887725871144,A,3084,Correct
1,new_learn,18,252,A,58.69750382920249,75.84966875993507,2.9348751914601245,1.191443810767156,B,1335,Incorrect
1,new_learn,18,253,B,60.8002306596846,49.643897236905474,3.04001153298423,0.7798045142751443,B,785,Correct
1,new_learn,18,254,B,67.84306165866725,35.97869946650581,3.3921530829333624,0.5651520896484482,B,669,Correct
1,new_learn,18,255,A,39.407411588159384,59.718159542973034,1.9703705794079693,0.9380506565305364,A,943,Correct
1,new_learn,18,256,A,22.72108277477968,51.81871631554145,1.1360541387389842,0.813966492476793,A,1121,Correct
1,new_learn,18,257,A,30.914953789526837,46.50810233355494,1.545747689476342,0.7305475631174926,A,2612,Correct
1,new_learn,18,258,B,45.993057623226846,20.144224476965714,2.299652881161342,0.31642473814549593,B,1532,Correct
1,new_learn,18,259,B,51.56034809145999,20.587870186225935,2.5780174045729995,0.3233935086505386,B,942,Correct
1,new_learn,18,260,A,25.489711711310598,47.08521184024064,1.27448558556553,0.7396127780500958,A,719,Correct
1,new_learn,18,261,A,43.95867760720117,74.5175297182636,2.1979338803600585,1.17051861963278,A,986,Correct
1,new_learn,18,262,A,52.162486076722345,70.13253884329835,2.6081243038361173,1.1016393440385344,A,4628,Correct
1,new_learn,18,263,B,82.85571808892874,56.69303605068639,4.142785904446437,0.8905321278326883,B,688,Correct
1,new_learn,18,264,A,53.44910362716982,83.53368382020533,2.672455181358491,1.312144037084248,A,1454,Correct
1,new_learn,18,265,A,15.196019783852293,37.05206735883234,0.7598009891926146,0.5820125130741093,A,678,Correct
1,new_learn,18,266,A,49.439433663593874,71.84814562789532,2.471971683179694,1.1285880323932276,A,873,Correct
1,new_learn,18,267,A,68.85584982064238,88.67463908980696,3.442792491032119,1.3928979736213192,A,874,Correct
1,new_learn,18,268,B,44.879446105334935,22.522863544956305,2.2439723052667464,0.3537883132532004,B,1509,Correct
1,new_learn,18,269,B,47.32676605929097,23.155303757216725,2.3663383029645484,0.36372266087656097,B,899,Correct
1,new_learn,18,270,B,37.29136698794544,22.62935011538101,1.8645683493972718,0.35546100038996153,B,1115,Correct
1,new_learn,18,271,A,33.978143364240594,54.52999981503085,1.6989071682120298,0.8565552340957685,A,1141,Correct
1,new_learn,18,272,B,63.95556388124285,51.76743620418407,3.1977781940621424,0.8131609863712149,B,1174,Correct
1,new_learn,18,273,B,82.63882029813536,54.21819176851139,4.131941014906768,0.8516573647543898,B,633,Correct
1,new_learn,18,274,B,63.469865195520455,38.18354614720337,3.173493259776023,0.5997857403203048,B,676,Correct
1,new_learn,18,275,A,28.173999609157164,38.63858067074481,1.4086999804578582,0.6069334059017423,A,1146,Correct
1,new_learn,18,276,A,51.31394378983215,73.19283915450342,2.5656971894916074,1.1497104289158366,A,1531,Correct
1,new_learn,18,277,A,54.479293563962734,75.51486596704375,2.723964678198137,1.1861847407944126,A,938,Correct
1,new_learn,18,278,A,26.05203997686811,38.415446925117685,1.3026019988434054,0.6034284292215917,A,750,Correct
1,new_learn,18,279,A,33.616122926272126,54.44251831246777,1.6808061463136061,0.8551810778668825,A,621,Correct
1,new_learn,18,280,B,54.11100810609699,47.35116690996506,2.7055504053048494,0.7437903905162517,B,1518,Correct
1,new_learn,18,281,A,59.40290537584201,71.50841537278087,2.9701452687921006,1.1232515620248793,A,916,Correct
1,new_learn,18,282,B,81.08326679318456,66.63468053286883,4.054163339659229,1.0466951141818175,B,1102,Correct
1,new_learn,18,283,A,22.068994856633587,37.634807020687205,1.1034497428316794,0.5911661662773025,A,667,Correct
1,new_learn,18,284,A,61.8760531291901,72.4052893842799,3.0938026564595047,1.1373396260534838,A,1513,Correct
1,new_learn,18,285,A,22.907695846075296,45.21118519322695,1.1453847923037648,0.7101756363156471,A,732,Correct
1,new_learn,18,286,B,87.94975999926244,67.90960969476721,4.397487999963122,1.0667216546261544,B,1281,Correct
1,new_learn,18,287,A,33.0225880222794,62.19174762187668,1.6511294011139699,0.9769056872139913,A,2187,Correct
1,new_learn,18,288,A,53.96534663129077,76.74034437483192,2.698267331564539,1.2054345106096138,A,1840,Correct
1,new_learn,18,289,B,71.04350464517272,40.392176325703566,3.552175232258636,0.6344788220366694,B,741,Correct
1,new_learn,18,290,B,44.51926157330492,29.051136545911078,2.2259630786652456,0.45633418575534107,B,1628,Correct
1,new_learn,18,291,B,63.73013350415831,42.449484352720035,3.1865066752079154,0.6667949409559005,B,1216,Correct
1,new_learn,18,292,B,69.75572609777706,42.71775284791763,3.4877863048888527,0.6710088926244124,B,702,Correct
1,new_learn,18,293,A,25.026626429381743,41.86106915327686,1.251331321469087,0.6575521366167444,A,864,Correct
1,new_learn,18,294,A,32.636040941936756,53.12553562178989,1.6318020470968377,0.8344939621371898,A,946,Correct
1,new_learn,18,295,B,66.00900187447026,42.836426075239544,3.3004500937235126,0.672873007320074,B,703,Correct
1,new_learn,18,296,B,46.658423749771714,33.273220819499066,2.332921187488586,0.5226545304390461,B,2781,Correct
1,new_learn,18,297,B,69.09412204636219,39.77650843673405,3.4547061023181094,0.6248079334514806,B,1148,Correct
1,new_learn,18,298,A,62.43631155774071,85.45499183292813,3.121815577887036,1.3423238727745137,A,978,Correct
1,new_learn,18,299,B,65.3384815380437,56.22610453695205,3.266924076902185,0.8831975847663015,B,794,Correct
1,new_learn,18,300,B,53.343155767670574,29.058638510848173,2.6671577883835287,0.4564520263450103,B,962,Incorrect
1,new_learn,18,301,A,13.02375866264467,37.60117916001131,0.6511879331322334,0.5906379410770258,A,709,Incorrect
1,new_learn,18,302,A,43.97334118007599,60.401414028368876,2.1986670590037996,0.9487831928897958,A,2921,Correct
1,new_learn,18,303,B,64.33766198834326,33.48773992481624,3.2168830994171627,0.5260241886656415,B,1505,Incorrect
1,new_learn,18,304,A,28.87509866958954,51.593501746887036,1.443754933479477,0.8104288303049624,A,2363,Correct
1,new_learn,18,305,A,36.13549802619612,47.303285988557136,1.8067749013098058,0.7430382787615405,A,2597,Incorrect
1,new_learn,18,306,A,44.63497837906505,55.479252793258155,2.2317489189532527,0.8714660650097541,B,1981,Incorrect
1,new_learn,18,307,A,44.82870967319576,57.22382035142487,2.241435483659788,0.8988696681318923,A,706,Incorrect
1,new_learn,18,308,A,38.991291802815354,62.879830559104654,1.9495645901407677,0.9877140687172707,A,958,Incorrect
1,new_learn,18,309,B,66.31342149336501,45.82210201603517,3.3156710746682507,0.7197718953280907,B,674,Correct
1,new_learn,18,310,B,70.8655060538188,57.93399776614754,3.5432753026909403,0.910025108876083,B,695,Incorrect
1,new_learn,18,311,B,57.21496835557696,46.1464996268055,2.860748417778848,0.7248675210822814,A,908,Correct
1,new_learn,18,312,B,43.604384050002075,28.473423839460445,2.1802192025001035,0.447259495782987,B,2263,Incorrect
1,new_learn,18,313,A,20.419988324997032,35.061951661483306,1.0209994162498517,0.550751848801182,A,1402,Incorrect
1,new_learn,18,314,A,21.357671186010958,43.94798759839257,1.067883559300548,0.6903333748958272,A,3426,Incorrect
1,new_learn,18,315,A,19.92323374370702,46.41612060767566,0.9961616871853509,0.7291027175460583,B,808,Correct
1,new_learn,18,316,A,49.629303930781845,58.78048382399169,2.481465196539092,0.9233216807795297,B,756,Incorrect
1,new_learn,18,317,B,30.807308242045778,10.880737677508726,1.540365412102289,0.1709142277664954,B,2693,Incorrect
1,new_learn,18,318,B,74.40804206141965,54.9428513343767,3.720402103070983,0.8630402905967701,B,806,Correct
1,new_learn,18,319,B,88.40406882768683,68.08541417065217,4.420203441384341,1.0694831848756965,B,561,Incorrect
1,new_learn,18,320,A,28.958676580734476,50.0739837673358,1.4479338290367239,0.7865602976971834,B,2764,Correct
1,new_learn,18,321,A,43.789173999600955,62.65923920959716,2.189458699980048,0.9842490279019798,B,1045,Incorrect
1,new_learn,18,322,A,48.06625505500529,67.58518431156385,2.4033127527502645,1.0616255926236056,A,3040,Incorrect
1,new_learn,18,323,B,83.48230679016842,65.14072070467579,4.174115339508421,1.02322804807677,B,596,Incorrect
1,new_learn,18,324,A,56.1819507348304,64.3615311301239,2.80909753674152,1.01098856686094,A,2351,Correct
1,new_learn,18,325,B,39.233914919179,17.158916788383817,1.96169574595895,0.26953163462972585,B,881,Incorrect
1,new_learn,18,326,A,16.975261590105607,34.930826295133144,0.8487630795052803,0.5486921363630572,B,3932,Incorrect
1,new_learn,18,327,A,34.86490913273234,55.07159374252829,1.7432454566366173,0.8650625716150425,A,7470,Incorrect
1,new_learn,18,328,A,46.65133179561983,76.63262310401373,2.3325665897809915,1.203742428844425,B,6332,Incorrect
1,new_learn,18,329,B,45.73444575774871,16.181187317903237,2.2867222878874354,0.2541734960214257,B,1333,Incorrect
1,new_learn,18,330,A,47.97822269600658,65.22212883376775,2.398911134800329,1.024506803978259,B,2808,Incorrect
1,new_learn,18,331,B,80.225585901137,50.42862853013537,4.011279295056849,0.7921310446044096,B,793,Correct
1,new_learn,18,332,A,36.46447393267539,61.04459946468674,1.8232236966337694,0.9588863260979565,A,1214,Correct
1,new_learn,18,333,A,43.146931918507676,50.8043684509179,2.1573465959253837,0.7980331534783637,A,6556,Incorrect
1,new_learn,18,334,A,60.56166560904581,75.82401640296885,3.028083280452291,1.1910408644861947,B,569,Incorrect
1,new_learn,18,335,A,13.806898318719263,37.97036091450281,0.6903449159359631,0.5964370345157752,A,2123,Correct
1,new_learn,18,336,B,47.547042717932,24.515126478080212,2.3773521358966003,0.38508270622680707,B,1564,Correct
1,new_learn,18,337,B,79.69582380726087,52.24564990718646,3.984791190363043,0.8206727496522062,B,1339,Correct
1,new_learn,18,338,A,45.42732406676865,60.11971732253906,2.2713662033384323,0.9443583113819187,B,3433,Correct
1,new_learn,18,339,B,50.67332262846625,19.811150153429796,2.5336661314233124,0.31119281890589673,B,881,Correct
1,new_learn,18,340,A,29.49999973299812,58.48082027832538,1.474999986649906,0.9186145768114601,A,905,Correct
1,new_learn,18,341,A,42.81106861954872,73.42471362106276,2.140553430977436,1.153352704519326,A,1513,Correct
1,new_learn,18,342,A,16.71371500604978,39.050398374190934,0.835685750302489,0.6134022232605653,A,950,Correct
1,new_learn,18,343,A,45.01590032694228,58.29594598375873,2.250795016347114,0.9157105781832191,B,2681,Correct
1,new_learn,18,344,A,45.42518830009883,77.0625233716654,2.2712594150049417,1.210495286457579,A,812,Incorrect
1,new_learn,18,345,A,24.034938861479954,38.54696386798844,1.2017469430739978,0.6054942925293183,A,2084,Correct
1,new_learn,18,346,A,12.153971907590723,30.165740144057438,0.6076985953795362,0.47384233813334775,A,1362,Correct
1,new_learn,18,347,B,59.11843444836149,29.712731609857904,2.9559217224180747,0.46672649671807404,B,1460,Correct
1,new_learn,18,348,A,51.697193008411766,74.14761513800647,2.5848596504205883,1.1647080149938225,A,1076,Correct
1,new_learn,18,349,B,47.99753831916006,18.462032695225187,2.399876915958003,0.29000093142827005,B,848,Incorrect
1,new_learn,18,350,B,47.257843581002845,28.612148148290927,2.3628921790501423,0.4494385721304679,A,1102,Incorrect
1,new_learn,18,351,B,80.92682598473972,50.111575001281786,4.046341299236986,0.787150779419204,B,757,Correct
1,new_learn,18,352,A,46.95244300045852,56.215239118194916,2.347622150022926,0.8830269111675736,A,868,Incorrect
1,new_learn,18,353,B,76.89188455143818,55.87238134467446,3.844594227571909,0.8776413138549836,B,3108,Correct
1,new_learn,18,354,A,44.522282705016025,60.348930605727865,2.2261141352508016,0.9479587852147745,A,982,Incorrect
1,new_learn,18,355,A,58.44695828050213,79.11776376039035,2.9223479140251065,1.2427789269904754,A,2790,Correct
1,new_learn,18,356,B,64.4150105870015,44.33300875722704,3.2207505293500756,0.6963812731161821,B,3122,Incorrect
1,new_learn,18,357,B,42.525088973175315,20.46815589855888,2.1262544486587656,0.3215130410172159,B,3551,Incorrect
1,new_learn,18,358,B,43.179453875488505,33.83350976889258,2.158972693774425,0.5314555286755572,A,562,Incorrect
1,new_learn,18,359,A,27.84557291272641,56.310916421406176,1.3922786456363208,0.8845298067319922,A,6014,Incorrect
1,new_learn,18,360,B,52.414624611047024,22.391348245714802,2.620731230552351,0.35172247576354165,B,973,Correct
1,new_learn,18,361,A,26.073170138677604,57.569154531474204,1.3036585069338802,0.9042941647472744,A,2084,Incorrect
1,new_learn,18,362,A,43.35615473690441,72.9671111992898,2.1678077368452207,1.146164702486792,A,1218,Correct
1,new_learn,18,363,B,72.7805736297807,50.5168229601979,3.639028681489035,0.7935163994722695,B,5393,Correct
1,new_learn,18,364,B,52.891817556089805,33.4613444543039,2.64459087780449,0.5256095695843935,A,1354,Correct
1,new_learn,18,365,B,69.32052430042691,60.68997859252196,3.4660262150213454,0.953315954463944,B,826,Correct
1,new_learn,18,366,A,51.24979862101769,75.7392034157414,2.5624899310508846,1.1897086251981808,A,1361,Correct
1,new_learn,18,367,A,51.4428568975279,69.46807902924328,2.5721428448763954,1.0912020336863293,A,1443,Correct
1,new_learn,18,368,A,26.365355951881533,39.714177607338925,1.3182677975940766,0.6238288430728812,B,2329,Correct
1,new_learn,18,369,B,71.00694639679003,51.63726303593713,3.550347319839501,0.8111162310259193,B,867,Incorrect
1,new_learn,18,370,B,50.56367704499202,43.24336288116099,2.528183852249601,0.6792651557198646,A,1248,Correct
1,new_learn,18,371,B,79.2350003656259,48.76275087239912,3.9617500182812946,0.7659634995477917,B,1179,Correct
1,new_learn,18,372,B,48.63008821222908,28.119652740385554,2.431504410611454,0.4417024723534568,A,1914,Correct
1,new_learn,18,373,A,66.51716404408005,87.82966644146757,3.3258582022040026,1.3796251742987826,A,1593,Correct
1,new_learn,18,374,B,69.63684941081547,48.25554993264628,3.4818424705407733,0.7579964058166849,B,891,Correct
1,new_learn,18,375,A,17.486883119800236,33.44214995393331,0.8743441559900118,0.5253080630776256,A,940,Correct
1,new_learn,18,376,B,54.99271876941279,43.48645478894481,2.74963593847064,0.6830836344780684,B,5216,Correct
1,new_learn,18,377,B,72.63947193322383,43.08185867242191,3.6319735966611915,0.6767282535413719,B,2883,Correct
1,new_learn,18,378,A,49.93168333926441,67.44852347888623,2.4965841669632205,1.0594789292837383,A,977,Incorrect
1,new_learn,18,379,A,58.959291828793184,68.93546300989483,2.9479645914396593,1.0828357208184827,B,853,Incorrect
1,new_learn,18,380,B,58.36056819990129,36.53446009968514,2.918028409995064,0.5738819572602013,B,3639,Incorrect
1,new_learn,18,381,A,22.16119511383988,43.703325813538186,1.108059755691994,0.6864902365662636,A,5595,Incorrect
1,new_learn,18,382,A,33.745091141705984,60.50011849643311,1.6872545570852993,0.9503336390485312,A,880,Incorrect
1,new_learn,18,383,A,42.4901089693778,66.74110209601264,2.1245054484688897,1.0483667801865983,B,564,Incorrect
1,new_learn,18,384,B,71.01890161483155,51.25453852587995,3.550945080741577,0.8051044084801974,B,700,Incorrect
1,new_learn,18,385,A,51.01596967080374,69.05095479194561,2.550798483540187,1.0846498614886864,B,1098,Correct
1,new_learn,18,386,B,49.19690838716937,21.338125409058772,2.4598454193584685,0.33517849013238366,A,978,Correct
1,new_learn,18,387,B,53.69908609648988,47.02709787704518,2.6849543048244935,0.7386999260508665,A,1356,Incorrect
1,new_learn,18,388,A,40.102060525929275,72.03539756861696,2.0051030262964638,1.1315293789999352,A,1102,Incorrect
1,new_learn,18,389,A,37.061191359676094,59.281955699318225,1.8530595679838047,0.9311987825770685,B,1439,Correct
1,new_learn,18,390,A,29.146246602359533,61.49645273389469,1.4573123301179765,0.9659840206531777,A,673,Incorrect
1,new_learn,18,391,B,44.47304117392416,15.751078619544788,2.2236520586962083,0.24741736438638584,A,989,Incorrect
1,new_learn,18,392,A,64.48045310535446,86.59507585246018,3.224022655267723,1.360232270675699,A,566,Incorrect
1,new_learn,18,393,A,57.49688953259981,82.19710729097629,2.8748444766299905,1.2911491420583159,B,616,Correct
1,new_learn,18,394,A,18.490274686080326,42.686880467105034,0.9245137343040163,0.6705239504006141,A,749,Correct
1,new_learn,18,395,B,63.85836232139889,50.5891637529692,3.192918116069945,0.7946527259878953,B,1289,Correct
1,new_learn,18,396,B,56.33888831491548,35.754433309424435,2.816944415745774,0.56162932509077,B,1847,Incorrect
1,new_learn,18,397,A,49.064420251907585,61.83761670925243,2.4532210125953795,0.9713430118464442,B,972,Incorrect
1,new_learn,18,398,A,31.17841891180887,51.38208432175397,1.5589209455904436,0.8071078931567679,B,584,Incorrect
1,new_learn,18,399,B,54.92208948729446,25.25467899685145,2.7461044743647225,0.3966995700263848,B,924,Correct
1,new_learn,18,400,A,30.631198483338643,55.819120758242576,1.531559924166932,0.876804698519682,A,797,Incorrect
1,new_learn,18,401,B,56.381460180136926,48.5604369222209,2.8190730090068463,0.7627855594497988,A,8807,Incorrect
1,new_learn,18,402,B,83.02795964036795,65.89718443297194,4.1513979820183975,1.0351105525343816,B,2167,Incorrect
1,new_learn,18,403,B,46.739214880813805,17.83609137055994,2.33696074404069,0.2801686680925371,B,888,Correct
1,new_learn,18,404,B,66.03910182382788,48.79188967365005,3.301955091191394,0.7664212107675135,A,767,Correct
1,new_learn,18,405,B,58.673037327419415,40.56463626142086,2.9336518663709708,0.6371878163721095,A,616,Correct
1,new_learn,18,406,A,48.78951498559957,76.33741791317462,2.4394757492799783,1.1991053565502163,B,730,Correct
1,new_learn,18,407,A,58.330953886342385,69.7956940994628,2.9165476943171194,1.0963481991753643,B,808,Correct
1,new_learn,18,408,B,34.02213059794736,20.696098156573335,1.701106529897368,0.32509354963332027,A,1399,Incorrect
1,new_learn,18,409,A,13.56828799191413,38.16474089877319,0.6784143995957065,0.5994903481687188,B,3041,Incorrect
1,new_learn,18,410,A,64.77034606569978,78.29771886390373,3.238517303284989,1.2298976918783946,B,1584,Correct
1,new_learn,18,411,A,24.194696450487,55.529089875626454,1.20973482252435,0.8722489040689771,B,701,Incorrect
1,new_learn,18,412,A,57.07338543250364,78.52445179000668,2.853669271625182,1.2334592043532544,B,830,Correct
1,new_learn,18,413,A,50.245183042364225,67.71263980297755,2.512259152118211,1.0636276588010305,B,1098,Correct
1,new_learn,18,414,B,81.2813866311378,53.3042497082452,4.06406933155689,0.8373011964426951,B,605,Correct
1,new_learn,18,415,A,26.135026134905825,40.77295720308277,1.3067513067452914,0.6404601140716794,B,748,Incorrect
1,new_learn,18,416,A,29.908339126882566,54.57958691284335,1.4954169563441284,0.8573341464067714,A,780,Correct
1,new_learn,18,417,B,36.10359952489979,16.136257346574848,1.8051799762449894,0.25346773768216935,B,763,Correct
1,new_learn,18,418,A,58.96389009794618,82.85175065807684,2.9481945048973093,1.3014322560223375,B,1948,Incorrect
1,new_learn,18,419,B,80.52658710267846,58.5045357585512,4.026329355133924,0.9189870987037291,B,3766,Correct
1,new_learn,18,420,A,18.063161248155286,44.34868855606895,0.9031580624077642,0.6966275708204397,A,1382,Correct
1,new_learn,18,421,A,14.518177073139164,32.25346192148815,0.7259088536569581,0.5066361951269266,B,1176,Incorrect
1,new_learn,18,422,A,55.119389783600425,68.76789018826122,2.7559694891800213,1.0802034930915554,B,658,Correct
1,new_learn,18,423,A,11.84783492700517,39.14281198613823,0.5923917463502585,0.6148538528824918,A,775,Correct
1,new_learn,18,424,B,68.01247205153918,59.7663319594661,3.400623602576959,0.9388073470793378,B,1113,Incorrect
1,new_learn,18,425,A,52.76699270757999,64.03635507287783,2.6383496353789995,1.0058807132981022,B,3517,Incorrect
1,new_learn,18,426,B,70.79638304975083,58.663425869702714,3.5398191524875413,0.9214829387333373,A,1622,Incorrect
1,new_learn,18,427,B,78.02223597815633,48.68774683149342,3.9011117989078166,0.7647853388282972,A,912,Incorrect
1,new_learn,18,428,A,58.66072506945588,79.64319008853016,2.9330362534727943,1.251032304452909,A,1779,Incorrect
1,new_learn,18,429,A,49.490353079792946,68.16748605495496,2.4745176539896474,1.0707723670196558,B,1180,Correct
1,new_learn,18,430,A,19.508096836369987,35.431617668100785,0.9754048418184993,0.5565585488545388,B,4463,Incorrect
1,new_learn,18,431,B,63.28865667627412,42.501504034159744,3.164432833813706,0.667612064201166,A,861,Incorrect
1,new_learn,18,432,A,17.28487092526825,36.51836435386055,0.8642435462634126,0.5736291258760184,B,1387,Incorrect
1,new_learn,18,433,A,32.118532450329,64.63735624391052,1.60592662251645,1.015321217616678,A,1611,Incorrect
1,new_learn,18,434,A,63.26393849025072,83.19827727461396,3.163196924512536,1.3068754833862692,B,612,Incorrect
1,new_learn,18,435,A,40.02140120608737,70.80753624445126,2.0010700603043685,1.1122421784218055,A,1019,Correct
1,new_learn,18,436,B,63.26025948052241,48.022368201418196,3.1630129740261204,0.7543335957477976,B,3287,Incorrect
1,new_learn,18,437,A,18.339260223607624,34.03472730811193,0.9169630111803813,0.5346162463904818,A,1623,Correct
1,new_learn,18,438,A,41.82915168731359,69.40544298095426,2.0914575843656795,1.0902181489405558,A,5286,Correct
1,new_learn,18,439,B,83.56730635146656,55.829081672099036,4.178365317573327,0.8769611641886544,A,1294,Incorrect
1,new_learn,18,440,A,22.265750884998372,35.209715170855475,1.1132875442499186,0.5530729125787432,B,5044,Correct
1,new_learn,18,441,A,33.72632017376324,64.12037644826692,1.6863160086881621,1.0072005179764367,B,4110,Incorrect
1,new_learn,18,442,B,72.70330598911153,43.892362389353565,3.6351652994555765,0.6894596161554705,B,1129,Correct
1,new_learn,18,443,A,51.95464302820501,70.13721763428957,2.5977321514102503,1.101712838315563,B,982,Incorrect
1,new_learn,18,444,B,74.49578419960872,47.10088089183737,3.7247892099804356,0.7398589069370208,B,874,Incorrect
1,new_learn,18,445,B,53.19695679455708,43.89539949916098,2.659847839727854,0.689507322964766,B,1713,Incorrect
1,new_learn,18,446,B,82.60092582924557,61.71822855744735,4.130046291462278,0.9694676671432619,B,712,Incorrect
1,new_learn,18,447,A,38.15235045210282,68.91621334488246,1.9076175226051413,1.082533347787548,A,2908,Correct
1,new_learn,18,448,B,78.30315216050401,53.29639898772571,3.9151576080252006,0.837177877613148,B,1588,Correct
1,new_learn,18,449,B,53.56503658734918,23.166830978590067,2.6782518293674586,0.363903730046475,A,2954,Incorrect
1,new_learn,18,450,B,57.69527447644033,30.333831613314768,2.8847637238220165,0.4764827127580975,B,3427,Incorrect
1,new_learn,18,451,B,72.86673386846688,55.57893901295269,3.643336693423344,0.8730319324870367,A,2752,Incorrect
1,new_learn,18,452,B,60.25175301384413,39.87891656311056,3.0125876506922067,0.6264165565389422,B,737,Incorrect
1,new_learn,18,453,B,71.16386023417083,42.82279434005156,3.5581930117085414,0.6726588805244628,A,520,Correct
1,new_learn,18,454,A,23.304123095100266,38.05972565690944,1.1652061547550132,0.5978407726069483,A,1454,Incorrect
1,new_learn,18,455,A,66.16018410945384,79.73295774286704,3.308009205472692,1.2524423714698827,B,1454,Correct
1,new_learn,18,456,B,33.82152567423408,18.07687562915499,1.691076283711704,0.28395089838204846,A,726,Incorrect
1,new_learn,18,457,B,48.95944850939534,25.938311684965377,2.447972425469767,0.40743804718004756,A,4285,Correct
1,new_learn,18,458,A,21.50482005505026,37.17981014385338,1.075241002752513,0.5840190920489653,A,1995,Incorrect
1,new_learn,18,459,B,58.550760666116275,48.95011042375695,2.927538033305814,0.7689065364984201,B,2057,Correct
1,new_learn,18,460,A,56.59298642203931,82.34466416411368,2.8296493211019658,1.2934669600014912,B,1574,Incorrect
1,new_learn,18,461,B,32.7586358454473,19.425647936171107,1.6379317922723653,0.3051373642374844,A,902,Correct
1,new_learn,18,462,B,56.57409107982599,43.54642689778926,2.828704553991299,0.6840256741608984,B,1520,Correct
1,new_learn,18,463,A,17.656880806807926,48.30462940863661,0.8828440403403962,0.7587673444227512,B,5864,Incorrect
1,new_learn,18,464,A,46.51484731490191,57.82624248031458,2.3257423657450955,0.9083324928042914,B,653,Correct
1,new_learn,18,465,B,71.17330936826397,52.065207230508804,3.5586654684131984,0.8178383627149832,A,732,Correct
1,new_learn,18,466,B,69.56391531044731,57.58527316451041,3.478195765522366,0.904547355642937,107,1382,Incorrect
1,new_learn,18,467,B,49.80853252182891,37.15988953083099,2.4904266260914456,0.5837061797913345,B,458,Incorrect
1,new_learn,18,468,B,60.0274484926866,40.477121172581214,3.0013724246343303,0.6358131325712251,B,580,Correct
1,new_learn,18,469,A,51.06606909808748,62.96936878377474,2.5533034549043743,0.9891205318614659,A,757,Correct
1,new_learn,18,470,B,70.30882761098671,56.118262540236444,3.5154413805493356,0.8815036066431504,B,5265,Incorrect
1,new_learn,18,471,A,37.92940051097478,53.51224992780992,1.896470025548739,0.8405684562513429,B,4984,Correct
1,new_learn,18,472,A,44.900035421881185,71.36831396536768,2.245001771094059,1.1210508542634448,A,714,Incorrect
1,new_learn,18,473,B,33.727765673871886,13.086760746278348,1.6863882836935944,0.2055663570989767,A,1525,Correct
1,new_learn,18,474,B,58.309540572783696,31.708300503746926,2.9154770286391845,0.4980728196019444,B,2790,Correct
1,new_learn,18,475,A,49.05323786006319,57.53075711530319,2.4526618930031594,0.903691019544476,A,1947,Incorrect
1,new_learn,18,476,B,45.621650850526336,28.116980619193356,2.281082542526317,0.44166049877192226,B,2197,Incorrect
1,new_learn,18,477,A,38.164908619065045,57.333177700235105,1.9082454309532522,0.9005874493500837,B,2202,Correct
1,new_learn,18,478,B,58.1165749315108,40.60468770547346,2.9058287465755397,0.6378169429841161,B,1492,Correct
1,new_learn,18,479,B,62.23911525523467,35.458669220887565,3.111955762761734,0.5569834736520544,B,3347,Correct
1,new_learn,18,480,B,76.5632429434265,53.340555552639564,3.828162147171325,0.8378714873128534,B,1072,Incorrect
1,new_learn,18,481,B,36.82229626264369,24.202186907386576,1.8411148131321846,0.3801670629452637,A,1885,Incorrect
1,new_learn,18,482,B,75.84169116512106,63.61516479609468,3.792084558256053,0.9992646719015754,A,2943,Incorrect
1,new_learn,18,483,B,86.73060245487522,67.79907365983449,4.336530122743762,1.0649853586496465,B,1008,Correct
1,new_learn,18,484,B,86.67115407309286,61.58788254187565,4.333557703654643,0.9674201967185381,B,1051,Incorrect
1,new_learn,18,485,B,86.11511026144723,68.05317586718593,4.305755513072361,1.0689767867890276,B,1019,Correct
1,new_learn,18,486,B,54.98151002588583,29.583424302994406,2.749075501294292,0.4646953422915848,A,1342,Incorrect
1,new_learn,18,487,A,15.949280084154442,37.00062595740529,0.797464004207722,0.5812044734300413,A,674,Correct
1,new_learn,18,488,B,64.7056313982763,53.14454748150316,3.235281569913815,0.8347925997312213,B,4736,Incorrect
1,new_learn,18,489,A,60.68586523501156,76.79617127316881,3.034293261750578,1.2063114374780533,B,982,Incorrect
1,new_learn,18,490,A,19.752927297735656,34.97587910666165,0.9876463648867828,0.5493998242716649,B,912,Correct
1,new_learn,18,491,B,67.15977005919261,50.93499235974873,3.3579885029596306,0.8000849890401942,B,1659,Incorrect
1,new_learn,18,492,B,43.47850124598256,14.391033292664833,2.1739250622991277,0.22605382234900984,B,1364,Correct
1,new_learn,18,493,A,26.82431682135115,49.814427667383114,1.3412158410675576,0.7824832000131546,A,996,Incorrect
1,new_learn,18,494,A,59.3951880699405,73.83951375786089,2.969759403497025,1.159868369831691,A,1888,Correct
1,new_learn,18,495,A,34.2191751221759,44.477802784689025,1.7109587561087949,0.6986556923809734,B,1861,Incorrect
1,new_learn,18,496,A,66.16049142221613,81.46391113353926,3.3080245711108063,1.2796321237490933,A,1712,Incorrect
1,new_learn,18,497,B,60.14783657537411,46.22608846321733,3.0073918287687054,0.7261176996011771,B,1039,Incorrect
1,new_learn,18,498,A,17.25292963893627,31.310101464706474,0.8626464819468134,0.49181792372336436,A,825,Correct
1,new_learn,18,499,B,52.46134030070273,30.613241334441184,2.6230670150351365,0.4808716703942591,A,1140,Correct
1,new_learn,18,500,A,37.982269824315445,47.00825910056024,1.899113491215772,0.7384040072418279,B,2190,Correct
1,new_learn,18,501,A,29.086360568637826,53.24112058066344,1.4543180284318913,0.836309566425503,B,1174,Incorrect
1,new_learn,18,502,B,60.86669385923615,45.87846686107503,3.0433346929618073,0.7206572722435806,A,1158,Incorrect
1,new_learn,18,503,B,66.2479956142709,56.38796990334049,3.3123997807135455,0.8857401599958842,B,667,Incorrect
1,new_learn,18,504,A,34.07744186252215,61.871555454550446,1.7038720931261075,0.9718761204109458,A,2112,Incorrect
1,new_learn,18,505,B,79.32297907951792,63.42168191640452,3.9661489539758965,0.9962254499344254,B,1513,Incorrect
1,new_learn,18,506,A,52.56281322140962,63.499235595253346,2.628140661070481,0.997443660273077,A,2578,Incorrect
1,new_learn,18,507,B,65.61389147752945,53.682901161594415,3.2806945738764726,0.84324903956326,B,632,Incorrect
1,new_learn,18,508,A,40.96052492149498,73.0737375427282,2.048026246074749,1.1478395851729177,B,1715,Incorrect
1,new_learn,18,509,B,57.123801612095704,33.6506820919294,2.856190080604785,0.528583678241455,A,723,Incorrect
1,new_learn,18,510,A,54.12438236951498,71.75488166855443,2.706219118475749,1.1271230455456775,A,687,Incorrect
1,new_learn,18,511,A,57.76270812277065,69.09008544922793,2.8881354061385323,1.0852645244159276,A,622,Correct
1,new_learn,18,512,B,43.40482824846742,30.69053548321287,2.170241412423371,0.48208580404399204,B,4552,Correct
1,new_learn,18,513,A,25.957077152095916,39.506827349522766,1.2978538576047958,0.6205717928395053,A,1184,Incorrect
1,new_learn,18,514,B,83.19777575317647,68.75540416209618,4.159888787658824,1.0800073630511922,A,3588,Correct
1,new_learn,18,515,A,16.353990047190297,37.678380471161674,0.8176995023595148,0.5918506164368132,A,971,Incorrect
1,new_learn,18,516,B,36.7000015405395,24.700180948633367,1.8350000770269752,0.38798953505282574,B,1315,Incorrect
1,new_learn,18,517,A,61.88004630922464,85.74823342495615,3.0940023154612324,1.3469301009307248,A,3119,Incorrect
1,new_learn,18,518,B,62.39573029000779,44.41563685888727,3.11978651450039,0.6976791923019614,B,2904,Incorrect
1,new_learn,18,519,B,69.91462603791197,42.19238211056898,3.4957313018955984,0.6627563883800845,A,1181,Incorrect
1,new_learn,18,520,B,83.63672995229928,58.785042001792874,4.181836497614964,0.9233932804689996,B,2039,Correct
1,new_learn,18,521,A,42.05228390616429,73.66087949558714,2.1026141953082145,1.1570623894014977,A,833,Correct
1,new_learn,18,522,B,56.056927358597285,26.97027858747007,2.802846367929864,0.4236481453783304,B,1083,Correct
1,new_learn,18,523,B,69.82537161996152,52.69412638562301,3.4912685809980757,0.8277174017020266,B,901,Correct
1,new_learn,18,524,B,83.05954747067966,59.31482621067211,4.152977373533983,0.931715111362014,B,1654,Incorrect
1,new_learn,18,525,A,11.871921408779624,36.11011118482264,0.5935960704389812,0.5672163000927473,A,954,Correct
1,new_learn,18,526,A,49.99790247980477,58.95029380770944,2.4998951239902385,0.9259890497662994,A,1810,Incorrect
1,new_learn,18,527,B,82.9501740459503,62.59568921197085,4.1475087022975154,0.9832507868735874,B,1517,Incorrect
1,new_learn,18,528,B,34.504584301278456,23.66098208927482,1.7252292150639226,0.3716658375419272,A,3390,Correct
1,new_learn,18,529,A,65.58282413073782,81.45322660739373,3.2791412065368912,1.2794642916048642,B,1753,Incorrect
1,new_learn,18,530,B,34.968806707754474,15.241283819895848,1.7484403353877238,0.23940952639930885,A,703,Correct
1,new_learn,18,531,B,74.90125229305136,58.24792675612733,3.745062614652568,0.9149562939194299,B,1561,Correct
1,new_learn,18,532,A,19.00455285058424,32.95648507496642,0.9502276425292121,0.5176792569982809,A,6618,Correct
1,new_learn,18,533,A,33.435382627237146,54.54075675008052,1.6717691313618572,0.8567242036364043,A,7169,Correct
1,new_learn,18,534,A,12.07589511832344,35.55100297406777,0.603794755916172,0.5584338488554009,A,2306,Incorrect
1,new_learn,18,535,B,30.436720072784865,15.042903775556091,1.521836003639243,0.2362933799497259,A,6552,Incorrect
1,new_learn,18,536,A,17.027300535258053,33.96158210967401,0.8513650267629026,0.5334672843001922,A,1036,Correct
1,new_learn,18,537,B,68.36667764073647,35.72541379374309,3.4183338820368236,0.5611734876043936,B,1264,Correct
1,new_learn,18,538,B,39.498397380139174,20.010207862766947,1.9749198690069587,0.3143196100923668,B,9532,Correct
1,new_learn,18,539,A,57.36056731842722,77.36415224651353,2.868028365921361,1.2152332617442458,A,2355,Correct
1,new_learn,18,540,B,63.869277493455705,37.522431506441336,3.1934638746727853,0.5894009758273115,A,2786,Incorrect
1,new_learn,18,541,A,59.32089421876367,82.93129347472579,2.9660447109381836,1.3026817116644887,A,1928,Correct
1,new_learn,18,542,A,10.4420754257286,32.38156710471392,0.52210377128643,0.5086484666394709,B,2893,Correct
1,new_learn,18,543,A,35.81354413413553,64.84602948489182,1.7906772067067767,1.0185990492210162,A,1591,Correct
1,new_learn,18,544,B,35.679309833336404,16.906630373959906,1.7839654916668202,0.2655687288989525,B,1827,Incorrect
1,new_learn,18,545,B,46.50998729045337,29.397911186023258,2.3254993645226683,0.46178130906447934,A,4242,Incorrect
1,new_learn,18,546,B,80.11607864759921,49.73102971392753,4.005803932379961,0.7811731880236523,B,3136,Incorrect
1,new_learn,18,547,A,34.82307963044731,46.29103697819873,1.7411539815223653,0.7271379084888129,B,4974,Incorrect
1,new_learn,18,548,B,72.16471004855491,46.867880563432266,3.6082355024277457,0.7361989463370133,A,4576,Incorrect
1,new_learn,18,549,A,32.48683077949055,43.12318315465694,1.6243415389745277,0.6773773769903868,B,891,Incorrect
1,new_learn,18,550,B,51.877460389628524,24.73293634609228,2.5938730194814266,0.38850405563293744,B,2141,Correct
1,new_learn,18,551,A,49.50987069856346,77.89533984939686,2.475493534928173,1.2235771370987274,A,1553,Incorrect
1,new_learn,18,552,B,68.93946977653839,57.77152784147094,3.4469734888269192,0.9074730372671166,B,2813,Correct
1,new_learn,18,553,B,53.86659879636121,37.01482655098709,2.6933299398180606,0.5814275358324074,A,5324,Incorrect
1,new_learn,18,554,B,35.79277494776623,22.220633574360715,1.7896387473883117,0.34904089597661164,B,5181,Correct
1,new_learn,18,555,A,32.21234108988543,55.8836825896255,1.6106170544942713,0.8778188333955564,A,10681,Incorrect
1,new_learn,18,556,B,62.175763461210025,46.98733642693197,3.108788173060501,0.7380753546530078,B,2423,Incorrect
1,new_learn,18,557,A,20.418449295656746,37.00680722696988,1.0209224647828372,0.5813015685853112,A,3556,Incorrect
1,new_learn,18,558,A,21.601429556851915,52.33116752663646,1.0800714778425957,0.8220160572772893,A,4838,Incorrect
1,new_learn,18,559,A,61.714665989591396,87.85617535266559,3.0857332994795694,1.3800415753021544,B,1923,Correct
1,new_learn,18,560,B,54.22807974279743,37.08767623832069,2.711403987139872,0.582571856045125,A,1987,Incorrect
1,new_learn,18,561,B,88.70935738471374,62.36792664964981,4.435467869235687,0.9796731009108347,B,5882,Correct
1,new_learn,18,562,A,44.955050239228704,60.17611040230304,2.247752511961435,0.9452441318074177,B,5681,Correct
1,new_learn,18,563,B,45.5915031080264,17.38045992221634,2.27957515540132,0.27301162603823337,B,4159,Incorrect
1,new_learn,18,564,B,49.286029799586615,26.186898656224948,2.4643014899793307,0.4113428421934836,A,5631,Correct
1,new_learn,18,565,A,19.576039193444416,44.64851411513741,0.9788019596722208,0.7013372196890794,B,3654,Incorrect
1,new_learn,18,566,B,45.03348367525564,27.05677899089015,2.251674183762782,0.4250068905379158,A,3663,Incorrect
1,new_learn,18,567,A,60.1453865747402,79.67471254257892,3.00726932873701,1.2515274580032225,B,864,Correct
1,new_learn,18,568,B,51.216212567745046,41.81907970019333,2.5608106283872525,0.656892567830067,B,1572,Correct
1,new_learn,18,569,B,46.99413870006033,23.44153127557556,2.3497069350030166,0.36821871222121777,A,3802,Correct
1,new_learn,18,570,B,51.55578169577537,40.73967642073832,2.5777890847887686,0.6399373407650841,B,1415,Incorrect
1,new_learn,18,571,B,59.959997848288346,43.284135982991955,2.997999892414417,0.6799056181057457,A,1414,Correct
1,new_learn,18,572,A,44.76699608670313,65.0111184875319,2.2383498043351566,1.021192261210429,A,4220,Incorrect
1,new_learn,18,573,B,51.13719413313161,33.214512566504986,2.55685970665658,0.5217323433574896,B,643,Incorrect
1,new_learn,18,574,B,84.65330516133231,57.770622638257194,4.232665258066615,0.907458818368285,B,536,Correct
1,new_learn,18,575,A,64.17072254162042,81.74869422403128,3.208536127081021,1.2841054860738752,A,1043,Incorrect
1,new_learn,18,576,A,63.69656124509967,88.26118979906305,3.184828062254984,1.3864035273491544,B,1226,Incorrect
1,new_learn,18,577,A,53.890572506999376,78.45242457230833,2.6945286253499687,1.232327803463356,A,1624,Incorrect
1,new_learn,18,578,A,58.70705716949924,67.1687530551867,2.935352858474962,1.0550843057448076,B,1362,Correct
1,new_learn,18,579,A,37.81039037612128,52.17475498349943,1.8905195188060642,0.8195591347950464,B,2965,Incorrect
1,new_learn,18,580,A,21.893772125738597,45.34158398532263,1.0946886062869299,0.7122239357520709,A,1153,Incorrect
1,new_learn,18,581,B,81.70754811905715,57.57746060152073,4.085377405952857,0.9044246361904663,A,2789,Incorrect
1,new_learn,18,582,A,38.97397680735878,60.46473868429371,1.948698840367939,0.9497778942590185,B,1035,Incorrect
1,new_learn,18,583,A,19.95463748214996,38.36990330947347,0.997731874107498,0.6027130317799627,B,1596,Incorrect
1,new_learn,18,584,B,31.502060028657365,11.731514136764819,1.5751030014328682,0.18427819313772578,B,1588,Incorrect
1,new_learn,18,585,A,26.224555592009956,52.3641167921772,1.3112277796004976,0.8225336231301091,A,8418,Correct
1,new_learn,18,586,A,67.25298863888506,84.5030228115221,3.362649431944253,1.3273703783540425,B,450,Correct
1,new_learn,18,587,A,25.220842667247382,57.693937250179175,1.2610421333623691,0.9062542471091671,A,692,Incorrect
1,new_learn,18,588,A,48.9755585721664,76.59956415518045,2.4487779286083198,1.2032231400904745,B,3159,Correct
1,new_learn,18,589,B,54.473039603350166,39.096404938180115,2.7236519801675083,0.6141248926777918,A,4196,Correct
1,new_learn,18,590,B,53.15179860092547,26.3705084839536,2.657589930046273,0.41422697862307967,A,2011,Incorrect
1,new_learn,18,591,A,28.02034106021783,46.01882014814577,1.4010170530108916,0.7228619365214235,A,5482,Incorrect
1,new_learn,18,592,A,46.453600770885345,69.48482718925571,2.3226800385442674,1.0914651131686102,B,643,Correct
1,new_learn,18,593,B,66.90244311808415,42.44253146992123,3.3451221559042073,0.6666857253282907,B,1839,Correct
1,new_learn,18,594,B,63.24039143351674,45.97639434003158,3.1620195716758372,0.7221955134859529,B,9137,Correct
1,new_learn,18,595,B,57.40226499794984,44.316970533442955,2.870113249897492,0.6961293452860986,A,1396,Correct
1,new_learn,18,596,B,58.24238999756481,41.843529722976385,2.9121194998782403,0.6572766278898438,A,1885,Correct
1,new_learn,18,597,A,16.804956509947367,45.00547829901604,0.8402478254973684,0.7069443999774183,B,1618,Correct
1,new_learn,18,598,B,54.062241469819554,25.315437827032838,2.703112073490978,0.3976539674990776,A,1846,Correct
1,new_learn,18,599,A,59.32050350460034,69.02084336409324,2.966025175230017,1.0841768722860357,B,991,Incorrect
1,new_learn,18,600,A,35.524916894152476,87.1474417754858,1.776245844707624,1.368908814305052,A,5452,Correct
1,new_learn,18,601,B,69.92609750644745,13.82168193554449,3.496304875322372,0.2171104721448066,B,4787,Correct
1,new_learn,18,602,A,35.061951661483306,79.58001167500296,1.7530975830741653,1.2500399002538964,A,981,Correct
1,new_learn,18,603,B,37.2400389486365,46.454707835601475,1.8620019474318252,0.7297088443049289,B,2887,Correct
1,new_learn,18,604,B,35.77639938562276,42.31927896021281,1.7888199692811382,0.6647496794331083,B,899,Correct
1,new_learn,18,605,A,35.431617668100785,80.49190316363001,1.7715808834050393,1.2643638582616055,A,925,Correct
1,new_learn,18,606,A,39.60947791108046,80.38904449206373,1.980473895554023,1.2627481580268523,A,687,Correct
1,new_learn,18,607,A,64.03635507287783,47.23300729242001,3.2018177536438914,0.7419343435840993,B,1183,Incorrect
1,new_learn,18,608,A,36.11011118482264,88.12807859122037,1.8055055592411322,1.384312621385809,A,1018,Correct
1,new_learn,18,609,A,64.10130039707329,52.48230815410094,3.2050650198536643,0.824390168701796,B,1272,Incorrect
1,new_learn,18,610,B,13.263852505690153,65.80653302074556,0.6631926252845076,1.033686603480942,A,1709,Incorrect
1,new_learn,18,611,A,43.92629647771568,72.41226924525566,2.196314823885784,1.1374492654533066,A,1098,Correct
1,new_learn,18,612,B,17.38045992221634,54.4084968919736,0.869022996110817,0.8546466706434368,B,842,Correct
1,new_learn,18,613,B,22.155376462717527,47.284111328226544,1.1077688231358764,0.742737083901392,B,1251,Correct
1,new_learn,18,614,A,35.209715170855475,77.73424911500163,1.7604857585427738,1.22104672976004,A,1823,Correct
1,new_learn,18,615,B,29.422033740564636,53.881933079404476,1.4711016870282319,0.8463754256173698,A,1880,Incorrect
1,new_learn,18,616,B,34.423319257952926,57.75004551617325,1.7211659628976463,0.9071355936904303,A,1465,Incorrect
1,new_learn,18,617,A,79.67471254257892,39.8546134252598,3.9837356271289455,0.6260348037422866,A,1173,Correct
1,new_learn,18,618,A,62.75896817496219,51.87538477389696,3.1379484087481098,0.8148566385390926,A,1086,Correct
1,new_learn,18,619,B,46.22608846321733,39.85216342462589,2.3113044231608666,0.6259963192223227,A,1694,Incorrect
1,new_learn,18,620,B,39.87891656311056,39.74824698615587,1.9939458281555278,0.6243640036238997,B,1715,Correct
1,new_learn,18,621,A,77.73471769247769,47.62438969858455,3.8867358846238846,0.7480821640438533,A,2614,Correct
1,new_learn,18,622,A,73.44757405714302,44.600813474731424,3.672378702857151,0.7005879397817245,A,1355,Correct
1,new_learn,18,623,B,24.700180948633367,63.2999984594605,1.2350090474316684,0.9943140506624316,B,922,Correct
1,new_learn,18,624,B,28.43222349159634,60.40011036892939,1.421611174579817,0.9487627150552064,B,755,Correct
1,new_learn,18,625,B,43.619160203830226,29.15006224060606,2.1809580101915116,0.4578881069338661,B,3090,Correct
1,new_learn,18,626,B,52.888856367251215,34.11977473794312,2.644442818362561,0.5359521682943036,B,1207,Correct
1,new_learn,18,627,B,48.24744789570444,26.128040037289395,2.4123723947852223,0.4104182931692418,B,724,Correct
1,new_learn,18,628,A,70.51098331371823,38.92872576897606,3.525549165685911,0.6114909944471344,B,1519,Incorrect
1,new_learn,18,629,B,44.815351794333374,46.30510143078776,2.240767589716669,0.7273588323934651,B,3149,Correct
1,new_learn,18,630,B,44.633347348948334,27.80906048728292,2.231667367447417,0.43682370065041104,B,1138,Correct
1,new_learn,18,631,A,52.96037638496522,60.553330956460705,2.6480188192482608,0.9511694984160417,A,853,Correct
1,new_learn,18,632,B,48.95011042375695,41.449239333883725,2.4475055211878476,0.651083128941071,B,3073,Correct
1,new_learn,18,633,A,52.17475498349943,62.18960962387872,2.6087377491749715,0.9768721036199723,A,798,Correct
1,new_learn,18,634,A,71.6099023047442,43.12154822408689,3.58049511523721,0.6773516955610468,A,1905,Correct
1,new_learn,18,635,A,83.53368382020533,46.55089637283018,4.176684191010266,0.7312197703145153,A,1599,Correct
1,new_learn,18,636,A,55.07159374252829,65.13509086726765,2.7535796871264147,1.0231396147975582,B,2349,Incorrect
1,new_learn,18,637,B,37.522431506441336,36.130722506544295,1.8761215753220668,0.5675400619772548,A,1374,Incorrect
1,new_learn,18,638,B,52.69412638562301,30.174628380038484,2.6347063192811504,0.47398195421765493,A,998,Incorrect
1,new_learn,18,639,A,83.89186271907465,44.818772732668144,4.194593135953733,0.7040116357993039,A,881,Correct
1,new_learn,18,640,B,48.88174867968334,24.09250454143708,2.444087433984167,0.3784441763697873,B,4295,Correct
1,new_learn,18,641,B,58.358981864281255,18.877273720962876,2.917949093214063,0.2965235222079032,B,815,Correct
1,new_learn,18,642,B,22.576336914387173,49.31909757421104,1.1288168457193586,0.774702573104098,B,1966,Correct
1,new_learn,18,643,A,88.26118979906305,36.30343875490033,4.413059489953152,0.5702530824622092,A,3255,Correct
1,new_learn,18,644,B,22.35760625542405,49.64167534884544,1.1178803127712025,0.7797696129391117,A,1828,Incorrect
1,new_learn,18,645,A,42.92994236365802,78.18137324106404,2.1464971181829013,1.228070139108442,A,1335,Correct
1,new_learn,18,646,A,47.00825910056024,62.017730175684555,2.3504129550280117,0.9741722275612231,A,978,Correct
1,new_learn,18,647,A,71.50841537278087,40.59709462415799,3.5754207686390433,0.6376976711417222,A,646,Correct
1,new_learn,18,648,A,54.57958691284335,70.09166087311743,2.728979345642167,1.1009972343844643,A,8106,Correct
1,new_learn,18,649,A,38.39661650458206,84.53073382287577,1.919830825229103,1.327805661902504,A,646,Correct
1,new_learn,18,650,B,62.36792664964981,11.29064261528626,3.1183963324824906,0.1773529994724558,B,1135,Correct
1,new_learn,18,651,A,61.199730641864726,51.84733166900437,3.059986532093236,0.8144159813978877,A,15089,Correct
1,new_learn,18,652,A,84.76276547168143,36.931549057347965,4.238138273584071,0.5801194160212771,A,874,Correct
1,new_learn,18,653,B,49.11394173669173,36.0803127466803,2.4556970868345864,0.566748227320965,A,1300,Incorrect
1,new_learn,18,654,A,75.51486596704375,45.520706436037266,3.7757432983521877,0.7150375846283615,A,742,Correct
1,new_learn,18,655,B,54.21819176851139,17.361179701864643,2.710909588425569,0.272708773045151,B,803,Correct
1,new_learn,18,656,B,42.68472616345282,25.082021637072486,2.1342363081726408,0.3939874745610358,B,1999,Correct
1,new_learn,18,657,B,30.135406161184306,46.14902043398421,1.5067703080592154,0.7249071178288501,B,1501,Correct
1,new_learn,18,658,B,51.25453852587995,28.98109838516845,2.562726926293998,0.4552340288990411,B,7933,Correct
1,new_learn,18,659,B,62.9326824006252,17.744260416928668,3.1466341200312598,0.2787261908460363,B,1033,Correct
1,new_learn,18,660,B,68.75540416209618,16.802224246823528,3.437770208104809,0.26392872128894546,B,1330,Correct
1,new_learn,18,661,B,50.92078150287615,36.619021698049956,2.5460390751438076,0.5752102477411949,A,1395,Incorrect
1,new_learn,18,662,A,37.97036091450281,86.19310168128074,1.8985180457251405,1.353918075160148,A,754,Correct
1,new_learn,18,663,B,55.95655537946748,19.631084031806296,2.7978277689733737,0.3083643468816328,B,891,Correct
1,new_learn,18,664,A,41.540944890382605,73.73293666212024,2.07704724451913,1.1581942607265923,A,1645,Correct
1,new_learn,18,665,A,58.58205825353475,50.4219267460459,2.9291029126767376,0.7920257732261025,B,802,Incorrect
1,new_learn,18,666,B,22.391348245714802,47.585375388952976,1.11956741228574,0.7474693287012361,A,1805,Incorrect
1,new_learn,18,667,A,70.71319332393998,53.178039334820184,3.5356596661969992,0.8353186885329008,A,3010,Correct
1,new_learn,18,668,A,65.22212883376775,52.02177730399342,3.261106441688388,0.8171561670245499,A,910,Correct
1,new_learn,18,669,A,42.28172529794632,76.23512189034328,2.114086264897316,1.1974984943811242,A,1523,Correct
1,new_learn,18,670,A,81.45322660739373,34.41717586926218,4.072661330369686,0.5406237343409099,A,967,Correct
1,new_learn,18,671,A,60.46473868429371,61.02602319264122,3.0232369342146854,0.9585945306990099,A,3974,Correct
1,new_learn,18,672,B,14.62322727143777,63.833362751568984,0.7311613635718885,1.0026921173713073,B,650,Correct
1,new_learn,18,673,A,69.40544298095426,58.17084831268641,3.4702721490477133,0.9137455485611092,A,610,Correct
1,new_learn,18,674,A,42.686880467105034,81.50972531391967,2.1343440233552515,1.28035177121166,A,1440,Correct
1,new_learn,18,675,B,19.72201630526208,57.67221870524684,0.9861008152631041,0.9059130930031368,B,907,Correct
1,new_learn,18,676,A,76.10184345422829,45.27157188764132,3.805092172711414,0.711124188293381,A,1470,Correct
1,new_learn,18,677,B,67.67031155974534,12.230464513722353,3.3835155779872674,0.19211568733150408,B,1734,Correct
1,new_learn,18,678,A,46.212293839350295,83.01100197444407,2.310614691967515,1.3039337698502067,A,766,Correct
1,new_learn,18,679,A,88.13067607091993,31.910914291992498,4.406533803545996,0.5012554695452859,A,2121,Correct
1,new_learn,18,680,A,59.281955699318225,62.938808640323906,2.964097784965911,0.9886404942506769,A,1098,Correct
1,new_learn,18,681,A,64.63735624391052,67.881467549671,3.2318678121955258,1.0662795988447018,A,2092,Correct
1,new_learn,18,682,A,75.84966875993507,41.30249617079751,3.7924834379967534,0.6487780927254901,A,1164,Correct
1,new_learn,18,683,A,44.86712473229505,84.60146420495113,2.2433562366147526,1.3289166921460716,B,1547,Incorrect
1,new_learn,18,684,B,26.186898656224948,50.713970200413385,1.3093449328112472,0.7966131810799519,B,1519,Correct
1,new_learn,18,685,B,42.449484352720035,36.26986649584169,2.122474217636002,0.5697257306500941,A,1916,Incorrect
1,new_learn,18,686,B,21.440010890930935,56.20139765569622,1.0720005445465468,0.8828094899830693,B,1912,Correct
1,new_learn,18,687,B,36.507399102266156,31.742971660416217,1.8253699551133078,0.49861743285736293,A,2155,Incorrect
1,new_learn,18,688,A,39.050398374190934,83.28628499395022,1.9525199187095468,1.308257905408899,B,4782,Incorrect
1,new_learn,18,689,B,21.084185175080616,48.42586860337511,1.0542092587540308,0.7606717652403393,B,3028,Correct
1,new_learn,18,690,B,54.9428513343767,25.59195793858035,2.747142566718835,0.4019975352541151,A,888,Incorrect
1,new_learn,18,691,B,52.065207230508804,28.826690631736028,2.6032603615254404,0.4528085975798381,A,1048,Incorrect
1,new_learn,18,692,B,37.15988953083099,50.19146747817109,1.8579944765415493,0.7884057275115667,B,4209,Correct
1,new_learn,18,693,A,37.60117916001131,86.97624133735533,1.8800589580005658,1.366219604111442,A,1602,Correct
1,new_learn,18,694,B,23.66098208927482,65.49541569872154,1.183049104463741,1.028799584014566,B,1656,Correct
1,new_learn,18,695,B,19.811150153429796,49.32667737153375,0.9905575076714898,0.7748216362820216,A,834,Incorrect
1,new_learn,18,696,B,31.206558796379046,40.087096952760945,1.5603279398189522,0.6296866464526778,B,5702,Correct
1,new_learn,18,697,A,46.66449603180942,78.73965522939245,2.333224801590471,1.2368396120742624,B,574,Incorrect
1,new_learn,18,698,A,39.506827349522766,74.04292284790408,1.9753413674761384,1.1630635123464568,A,982,Correct
1,new_learn,18,699,B,54.90624898406474,24.801773283293144,2.7453124492032366,0.3895853437139668,B,1850,Correct
1,new_learn,18,700,B,67.79907365983449,13.269397545124775,3.3899536829917247,0.20843520922663217,B,884,Correct
1,new_learn,18,701,B,58.785042001792874,16.363270047700723,2.939252100089644,0.2570336448528125,B,6352,Correct
1,new_learn,18,702,B,29.237667033895615,49.14334537240109,1.461883351694781,0.771941863973806,B,1780,Correct
1,new_learn,18,703,A,84.5030228115221,32.74701136111494,4.225151140576105,0.514388851595501,B,1316,Incorrect
1,new_learn,18,704,B,47.96697723901497,42.77073264092215,2.3983488619507485,0.6718410972668709,A,5013,Incorrect
1,new_learn,18,705,A,65.22132971647714,43.727345370794126,3.261066485823857,0.6868675348893525,A,591,Correct
1,new_learn,18,706,B,50.42862853013537,19.774414098863005,2.5214314265067683,0.31061577031015225,A,10439,Incorrect
1,new_learn,18,707,A,78.53799792786111,43.10177852639581,3.9268998963930555,0.6770411538758968,A,1678,Correct
1,new_learn,18,708,B,13.086760746278344,66.27223432612811,0.6543380373139172,1.041001822479727,B,1511,Correct
1,new_learn,18,709,B,63.915890328277904,14.156941191503392,3.1957945164138954,0.22237671222264896,A,1022,Incorrect
1,new_learn,18,710,A,65.833747313578,44.958527263441766,3.2916873656789,0.7062068948352254,A,1348,Correct
1,new_learn,18,711,A,51.38208432175397,68.82158108819112,2.5691042160876987,1.0810468677754772,A,4957,Correct
1,new_learn,18,712,B,25.34023818095116,45.00747909698147,1.267011909047558,0.7069758284383657,A,1144,Incorrect
1,new_learn,18,713,A,41.86106915327686,74.97337357061826,2.0930534576638427,1.1776789981214875,A,1252,Correct
1,new_learn,18,714,A,60.73436078503075,70.28029072691487,3.0367180392515376,1.1039602251991532,A,3272,Correct
1,new_learn,18,715,B,58.38071846230647,13.88738690948324,2.9190359231153233,0.218142563461958,B,1793,Correct
1,new_learn,18,716,B,11.731514136764815,68.49793997134263,0.5865757068382408,1.0759631250000232,B,9065,Correct
1,new_learn,18,717,B,24.202186907386576,63.17770373735631,1.2101093453693288,0.9923930496597549,A,1774,Incorrect
1,new_learn,18,718,B,40.27336721058443,32.0521158889284,2.0136683605292216,0.5034734590433306,B,1546,Correct
1,new_learn,18,719,A,65.94123529415877,42.31815040196125,3.297061764707939,0.664731952081547,A,1879,Correct
1,new_learn,18,720,A,44.54366475570448,72.0481397360343,2.2271832377852236,1.131729532497681,B,1830,Incorrect
1,new_learn,18,721,B,15.237583516512359,62.64664906761779,0.7618791758256179,0.9840512624142295,B,1656,Correct
1,new_learn,18,722,A,51.723122284445196,60.03505130763699,2.58615611422226,0.9430283807297933,A,4358,Correct
1,new_learn,18,723,A,38.54696386798844,75.96506113852004,1.9273481933994219,1.1932563900113704,B,811,Incorrect
1,new_learn,18,724,B,54.56161237752708,17.771221727788244,2.728080618876354,0.2791496981266743,A,695,Incorrect
1,new_learn,18,725,A,49.814427667383114,73.17568317864885,2.4907213833691557,1.1494409434772872,A,647,Correct
1,new_learn,18,726,A,71.75488166855443,45.87561763048502,3.587744083427722,0.7206125166341306,B,957,Incorrect
1,new_learn,18,727,A,49.57383225104919,68.62834014889478,2.4786916125524594,1.0780114461991464,B,1106,Incorrect
1,new_learn,18,728,A,78.29210638567436,46.389181814936705,3.9146053192837176,0.728679563979232,A,1740,Correct
1,new_learn,18,729,B,38.250675733554424,42.66517998024812,1.9125337866777212,0.6701830799501691,A,2939,Incorrect
1,new_learn,18,730,A,81.74869422403128,35.82927745837958,4.087434711201564,0.5628049742333783,A,757,Correct
1,new_learn,18,731,B,23.166830978590067,46.43496341265082,1.1583415489295035,0.7293986996344732,B,845,Correct
1,new_learn,18,732,B,55.063097839799845,16.78705293362313,2.753154891989992,0.26369041085846706,B,1354,Correct
1,new_learn,18,733,A,76.79617127316881,39.31413476498844,3.8398085636584405,0.6175449847996338,A,1284,Correct
1,new_learn,18,734,A,53.24112058066344,70.91363943136217,2.662056029033172,1.1139088433844142,A,2304,Correct
1,new_learn,18,735,A,62.12951704011177,53.6250332176484,3.106475852005589,0.8423400520253641,A,835,Correct
1,new_learn,18,736,B,61.74823439602581,28.229518991286426,3.08741171980129,0.44342824738699493,B,1078,Correct
1,new_learn,18,737,B,42.841779870990685,43.82151419343471,2.142088993549534,0.6883467352963767,A,2097,Incorrect
1,new_learn,18,738,A,76.27652284035752,54.11351044892036,3.813826142017876,0.8500130344314136,A,663,Correct
1,new_learn,18,739,A,67.58518431156385,51.93374494499471,3.379259215578193,0.8157733579630073,A,903,Correct
1,new_learn,18,740,B,66.77224567455502,18.14360115612334,3.3386122837277514,0.28499902050870185,B,834,Correct
1,new_learn,18,741,A,38.415446925117685,73.94796002313188,1.9207723462558843,1.1615718397831143,A,831,Correct
1,new_learn,18,742,B,39.97570407329063,36.47855197600817,1.9987852036645313,0.5730037545071036,B,935,Correct
1,new_learn,18,743,A,71.15826053002564,44.70802252216901,3.557913026501282,0.702271975560866,A,1185,Correct
1,new_learn,18,744,A,61.83761670925243,50.935579748092415,3.0918808354626215,0.800094215714721,A,1048,Correct
1,new_learn,18,745,B,44.33300875722704,35.584989412998496,2.216650437861352,0.5589677065897333,A,625,Incorrect
1,new_learn,18,746,B,41.87541041895912,42.874273749254044,2.093770520947956,0.673467517193271,B,953,Correct
1,new_learn,18,747,B,21.164354418112108,61.04836897125776,1.0582177209056054,0.9589455373687122,B,1440,Correct
1,new_learn,18,748,A,56.99201032625866,63.721925003222765,2.849600516312933,1.0009416573136218,A,893,Correct
1,new_learn,18,749,A,73.83951375786089,40.6048119300595,3.6919756878930445,0.6378188942993506,A,1225,Correct
1,new_learn,18,750,A,70.13253884329835,47.837513923277655,3.5066269421649174,0.7514299115368426,A,691,Correct
1,new_learn,18,751,B,66.63468053286883,18.916733206815437,3.3317340266434416,0.2971433503622473,A,713,Incorrect
1,new_learn,18,752,A,45.82397343888731,71.76251883855734,2.2911986719443656,1.1272430099315542,A,625,Correct
1,new_learn,18,753,A,58.489438055831755,67.39636513320383,2.924471902791588,1.0586596279056422,A,649,Correct
1,new_learn,18,754,B,31.769033290748432,36.28584361450117,1.5884516645374216,0.569976698643125,B,802,Correct
1,new_learn,18,755,B,48.76275087239912,20.764999634374107,2.438137543619956,0.32617585151572215,B,961,Correct
1,new_learn,18,756,A,64.6836889292989,59.812196412182686,3.234184446464945,0.9395277842179145,A,691,Correct
1,new_learn,18,757,A,50.41895606250465,67.07499308816577,2.5209478031252326,1.0536115276268385,A,658,Correct
1,new_learn,18,758,B,30.927165748611053,51.995820904774035,1.5463582874305528,0.8167484448590435,B,776,Correct
1,new_learn,18,759,B,60.014031311721595,21.28210973455036,3.00070156558608,0.3342985979747761,B,639,Correct
1,new_learn,18,760,A,62.83139880612623,53.91343526384981,3.1415699403063115,0.8468702607734974,A,691,Correct
1,new_learn,18,761,B,46.867880563432266,27.83528995144509,2.3433940281716135,0.4372357121100085,A,487,Incorrect
1,new_learn,18,762,A,84.19850586135314,41.04371428955686,4.209925293067657,0.6447131564405512,A,1112,Correct
1,new_learn,18,763,A,76.33741791317462,51.21048501440043,3.8168708956587305,0.8044124175400529,A,805,Correct
1,new_learn,18,764,A,45.714696318905126,83.33759187376421,2.285734815945256,1.3090638319924102,B,988,Incorrect
1,new_learn,18,765,A,38.36990330947347,80.04536251785004,1.9184951654736735,1.2573496142000475,A,899,Correct
1,new_learn,18,766,A,58.08685070471665,62.609348097909084,2.9043425352358327,0.9834653401521862,B,750,Incorrect
1,new_learn,18,767,B,47.02709787704518,46.30091390351012,2.351354893852259,0.7272930548688046,B,827,Correct
1,new_learn,18,768,A,84.81692917126365,34.1545247125886,4.240846458563182,0.5364980196195969,A,1090,Correct
1,new_learn,18,769,A,39.76955259455296,86.53536725583986,1.9884776297276483,1.359294370233206,B,2064,Incorrect
1,new_learn,18,770,A,53.51070660303004,70.85435501390896,2.675535330151502,1.1129776059326975,A,1768,Correct
1,new_learn,18,771,A,76.59208416474605,34.753548245171245,3.8296042082373027,0.5459074592660421,A,469,Correct
1,new_learn,18,772,A,58.55406595990113,69.96908766189361,2.9277032979950564,1.099071858884926,A,876,Correct
1,new_learn,18,773,A,52.70160689413441,78.78419871841544,2.6350803447067204,1.2375392995636616,A,653,Correct
1,new_learn,18,774,B,59.85247206202592,16.026843099401674,2.9926236031012956,0.25174906270658287,B,852,Correct
1,new_learn,18,775,A,75.82401640296885,39.43833439095419,3.7912008201484424,0.6194959079621969,A,835,Correct
1,new_learn,18,776,A,32.38464711838279,80.74812005597403,1.6192323559191393,1.2683885037951734,A,1494,Correct
1,new_learn,18,777,B,23.00321902334978,63.11393608528659,1.1501609511674888,0.9913913897233605,B,860,Correct
1,new_learn,18,778,A,68.8942770063161,54.112213064476016,3.444713850315805,0.8499926551642174,A,994,Correct
1,new_learn,18,779,A,39.10543850995207,83.20982007377404,1.9552719254976036,1.3070567972514853,A,793,Correct
1,new_learn,18,780,A,86.11370026410171,38.55993542869127,4.3056850132050855,0.6056980493283664,A,727,Correct
1,new_learn,18,781,B,46.09657635141079,41.88123524680518,2.3048288175705394,0.6578689048731453,A,576,Incorrect
1,new_learn,18,782,B,44.316970533442955,42.59773500205016,2.2158485266721475,0.6691236567100278,B,901,Correct
1,new_learn,18,783,B,26.3705084839536,46.84820139907453,1.3185254241976798,0.7358898267461381,B,1172,Correct
1,new_learn,18,784,B,68.05317586718593,13.884889738552772,3.402658793359296,0.21810333799270848,B,1090,Correct
1,new_learn,18,785,B,55.48885270201616,32.59841547195032,2.774442635100808,0.5120547128267349,B,5207,Correct
1,new_learn,18,786,B,37.820130540864724,31.16842027378833,1.8910065270432364,0.4895924007806629,A,674,Incorrect
1,new_learn,18,787,A,78.42217331035206,49.11618670264069,3.921108665517603,0.7715152565868034,A,1803,Correct
1,new_learn,18,788,B,17.379248275083924,62.16169564118091,0.8689624137541963,0.976433631805093,B,764,Correct
1,new_learn,18,789,A,63.8135070975498,65.3409257245534,3.19067535487749,1.0263728611750664,A,1343,Correct
1,new_learn,18,790,A,84.0327518421003,38.90718649371024,4.201637592105015,0.6111526563024406,A,749,Correct
1,new_learn,18,791,A,76.63262310401373,53.34866820438017,3.8316311552006868,0.8379989205484005,A,617,Correct
1,new_learn,18,792,A,64.18639420585792,56.22205846294369,3.2093197102928963,0.8831340291843988,A,887,Correct
1,new_learn,18,793,B,16.76200147486938,64.65946691516996,0.838100073743469,1.015668531228651,B,729,Correct
1,new_learn,18,794,A,60.07381413270813,53.69959704584071,3.0036907066354064,0.8435112978997268,A,1052,Correct
1,new_learn,18,795,B,48.5604369222209,43.618539819863074,2.428021846111045,0.6851584212919785,A,685,Incorrect
1,new_learn,18,796,A,46.01882014814577,71.97965893978217,2.3009410074072885,1.1306538386655927,A,976,Correct
1,new_learn,18,797,B,29.776813917994403,51.82561006769468,1.48884069589972,0.8140747792823941,B,677,Correct
1,new_learn,18,798,B,29.397911186023258,53.49001270954663,1.469895559301163,0.8402191548436818,B,629,Correct
1,new_learn,18,799,B,21.338125409058772,50.80309161283063,1.0669062704529386,0.7980130969525897,B,443,Correct
1,new_learn,18,800,A,77.89533984939686,50.49012930143654,3.894766992469843,0.7930970964609588,A,742,Correct
1,new_learn,18,801,A,77.67246627560749,53.388544829564985,3.883623313780374,0.8386253011120535,A,867,Correct
1,new_learn,18,802,A,48.453251927667466,75.63752760652547,2.4226625963833732,1.188111505321778,A,876,Correct
1,new_learn,18,803,B,24.45573347269216,60.04148695504047,1.222786673634608,0.9431294716428127,B,871,Correct
1,new_learn,18,804,B,41.52226280930907,51.01322087976416,2.0761131404654534,0.8013137997591026,A,2072,Incorrect
1,new_learn,18,805,A,41.47217836927634,77.45841554808455,2.073608918463817,1.2167139462228391,B,1273,Incorrect
1,new_learn,18,806,B,20.587870186225935,48.43965190854001,1.0293935093112967,0.7608882728915803,B,1153,Correct
1,new_learn,18,807,A,77.9549647027918,40.74185158898405,3.89774823513959,0.6399715082279895,A,660,Correct
1,new_learn,18,808,A,54.52999981503085,66.0218566357594,2.7264999907515426,1.0370688989163015,A,713,Correct
1,new_learn,18,809,A,55.02666952100429,59.5156251689817,2.751333476050214,0.9348692540233835,A,498,Correct
1,new_learn,18,810,A,57.693547151542624,73.02980711004695,2.884677357577131,1.1471495275500156,A,416,Correct
1,new_learn,18,811,B,60.68997859252196,30.67947569957309,3.034498929626098,0.48191207736882696,A,1341,Incorrect
1,new_learn,18,812,B,37.90158533252277,49.83707205008491,1.8950792666261385,0.7828388971448599,A,643,Incorrect
1,new_learn,18,813,B,47.07799586959713,45.44054118274597,2.3538997934798567,0.7137783517742958,A,852,Incorrect
1,new_learn,18,814,B,57.49827744907452,26.2076495036368,2.874913872453726,0.41166879574240783,B,510,Correct
1,new_learn,18,815,A,62.879830559104654,61.008708197184646,3.1439915279552326,0.9583225473863936,A,619,Correct
1,new_learn,18,816,A,46.29103697819873,65.17692036955269,2.314551848909937,1.0237966710829685,A,731,Correct
1,new_learn,18,817,A,59.047038941561865,69.8215231752661,2.9523519470780935,1.0967539213493274,A,863,Correct
1,new_learn,18,818,A,85.45499183292813,37.56368844225929,4.272749591646407,0.5900490382596881,A,587,Correct
1,new_learn,18,819,A,68.76789018826122,44.880610216399575,3.438394509413061,0.7049829767223397,A,558,Correct
1,new_learn,18,820,A,52.73007621782681,69.05114282746132,2.6365038108913406,1.08465281514366,A,396,Correct
1,new_learn,18,821,B,46.98733642693197,37.824236538789975,2.349366821346598,0.594141718189526,A,546,Incorrect
1,new_learn,18,822,B,56.38796990334049,33.752004385729094,2.8193984951670243,0.530175245110685,A,851,Incorrect
1,new_learn,18,823,A,47.14867408449099,75.11852011088541,2.3574337042245497,1.179958954644474,A,2138,Correct
1,new_learn,18,824,B,25.559329668695568,53.59751626387983,1.2779664834347784,0.8419078167263216,B,673,Correct
1,new_learn,18,825,B,50.5891637529692,36.14163767860111,2.52945818764846,0.5677115170989865,B,1182,Correct
1,new_learn,18,826,B,28.512913584973113,58.184662322397074,1.4256456792486558,0.9139625385182274,B,763,Correct
1,new_learn,18,827,A,34.97587910666165,80.24707270226435,1.7487939553330825,1.2605180703675987,B,942,Incorrect
1,new_learn,18,828,B,44.748749351282726,37.16330725903266,2.237437467564136,0.5837598653403862,B,3198,Correct
1,new_learn,18,829,B,39.36219857248065,37.43724100679768,1.9681099286240324,0.5880628065881308,B,1019,Correct
1,new_learn,18,830,B,20.696098156573335,65.97786940205265,1.0348049078286667,1.036377949064977,B,896,Correct
1,new_learn,18,831,A,60.99255306272877,57.88744272459316,3.0496276531364384,0.9092938239934089,A,704,Correct
1,new_learn,18,832,B,52.507689866360366,37.26666365930191,2.625384493318018,0.585383383879323,A,881,Incorrect
1,new_learn,18,833,A,69.46807902924328,48.5571431024721,3.4734039514621644,0.7627338202501732,A,668,Correct
1,new_learn,18,834,B,42.44253146992123,33.09755688191585,2.1221265734960615,0.5198952077599857,A,1570,Incorrect
1,new_learn,18,835,B,55.14472901248776,27.686027601897706,2.757236450624388,0.4348911046060303,A,650,Incorrect
1,new_learn,18,836,B,28.696745748582195,61.86079619267761,1.4348372874291098,0.9717071143206572,B,817,Correct
1,new_learn,18,837,B,42.71775284791763,30.244273902222943,2.1358876423958817,0.4750759435219055,A,2837,Incorrect
1,new_learn,18,838,B,35.616611628050585,35.83657453829278,1.7808305814025291,0.5629195964966183,B,755,Correct
1,new_learn,18,839,A,56.967072196387164,55.61119770470157,2.848353609819358,0.8735386508321001,A,1232,Correct
1,new_learn,18,840,B,43.54642689778926,43.42590892017401,2.1773213448894633,0.6821325821953907,A,2176,Incorrect
1,new_learn,18,841,B,57.78609766057954,33.29369903362243,2.8893048830289776,0.5229762014742891,A,931,Incorrect
1,new_learn,18,842,B,56.614080337760186,26.31638953293671,2.830704016888009,0.4133768801284065,B,1599,Correct
1,new_learn,18,843,A,82.33947795994759,43.19633318672362,4.116973897997379,0.6785264150071395,A,875,Correct
1,new_learn,18,844,B,26.2834926265933,61.9264993198777,1.314174631329665,0.9727391766293056,B,610,Correct
1,new_learn,18,845,B,64.50969747842998,17.63076029995966,3.2254848739214994,0.27694333517777925,A,634,Incorrect
1,new_learn,18,846,B,50.111575001281786,19.07317401526028,2.5055787500640894,0.29960071683490713,B,599,Correct
1,new_learn,18,847,B,28.119652740385554,51.36991178777092,1.4059826370192778,0.8069166874400842,A,667,Incorrect
1,new_learn,18,848,B,35.113580933141094,36.59301572315379,1.7556790466570547,0.5748017468427787,B,1596,Correct
1,new_learn,18,849,A,33.44214995393331,82.51311688019976,1.6721074976966657,1.2961130090781576,A,794,Correct
1,new_learn,18,850,B,58.24792675612733,25.098747706948643,2.912396337806366,0.3942502070522676,B,493,Correct
1,new_learn,18,851,B,53.681270246101775,26.398935312690213,2.684063512305089,0.4146735062046987,B,625,Correct
1,new_learn,18,852,A,69.02084336409324,40.67949649539966,3.451042168204662,0.6389920367083965,A,1095,Correct
1,new_learn,18,853,A,44.34868855606895,81.93683875184472,2.2174344278034477,1.287060853405834,A,514,Correct
1,new_learn,18,854,B,40.477121172581214,39.9725515073134,2.0238560586290606,0.6278873708030769,A,581,Incorrect
1,new_learn,18,855,B,27.557972081522994,63.07723616170317,1.3778986040761498,0.9908149086717757,A,861,Incorrect
1,new_learn,18,856,B,42.19238211056898,30.085373962088028,2.109619105528449,0.472579949098987,A,687,Incorrect
1,new_learn,18,857,A,67.44852347888623,50.06831666073559,3.3724261739443113,0.7864712789948718,A,1642,Correct
1,new_learn,18,858,B,41.81907970019333,48.783787432254954,2.0909539850096666,0.7662939410572911,B,1049,Correct
1,new_learn,18,859,A,55.479252793258155,55.36502162093495,2.773962639662908,0.8696717259508465,B,545,Incorrect
1,new_learn,18,860,A,81.08270592874044,49.68570189215358,4.054135296437022,0.780461180264211,A,1469,Correct
1,new_learn,18,861,A,62.19174762187668,66.9774119777206,3.1095873810938337,1.0520787271283203,A,2184,Correct
1,new_learn,18,862,A,57.22382035142487,55.17129032680424,2.8611910175712434,0.8666286018987891,A,1437,Correct
1,new_learn,18,863,A,41.85619682035035,70.52878483928376,2.0928098410175178,1.1078635615885453,B,768,Incorrect
1,new_learn,18,864,B,20.144224476965714,54.006942376773154,1.0072112238482858,0.8483390670685891,B,611,Correct
1,new_learn,18,865,B,62.65486409250649,19.79094145861805,3.1327432046253243,0.3108753814701007,B,721,Correct
1,new_learn,18,866,B,24.515126478080212,52.452957282068,1.2257563239040108,0.8239291262820204,A,751,Incorrect
1,new_learn,18,867,B,46.1773246786627,39.802223428801184,2.308866233933135,0.6252118636023067,A,1532,Incorrect
1,new_learn,18,868,B,35.458669220887565,37.76088474476533,1.7729334610443783,0.5931465905360283,B,1101,Correct
1,new_learn,18,869,A,64.66301218554597,45.76334062814054,3.2331506092772986,0.7188488736054681,A,986,Correct
1,new_learn,18,870,A,76.25093339774581,52.78043148073238,3.8125466698872907,0.8290730789658415,A,594,Correct
1,new_learn,18,871,A,63.2728374264546,69.98105818238302,3.16364187132273,1.0992598913810718,A,737,Correct
1,new_learn,18,872,A,62.57812988336035,56.93961270178467,3.1289064941680174,0.8944053448108741,A,439,Correct
1,new_learn,18,873,B,45.97617789878707,29.366319722239638,2.2988088949393535,0.4612850715117855,B,809,Correct
1,new_learn,18,874,A,74.94168317889483,41.299898622546436,3.747084158944742,0.6487372905329755,A,680,Correct
1,new_learn,18,875,B,50.10952584110041,41.15970128655166,2.5054762920550204,0.6465350759289051,A,1614,Incorrect
1,new_learn,18,876,B,56.118262540236444,29.69117238901329,2.8059131270118223,0.46638784526896127,B,944,Correct
1,new_learn,18,877,A,43.268943816803144,69.7310563179212,2.163447190840157,1.0953328712771868,A,663,Correct
1,new_learn,18,878,B,37.01482655098709,46.13340120363879,1.8507413275493545,0.7246617715323107,A,921,Incorrect
1,new_learn,18,879,A,71.84814562789532,50.560566336406126,3.592407281394766,0.7942035188189644,A,581,Correct
1,new_learn,18,880,B,51.63726303593713,28.993053603209972,2.5818631517968567,0.4554218210248976,A,595,Incorrect
1,new_learn,18,881,A,64.6838693493072,62.94142591193141,3.23419346746536,0.9886816062569497,A,665,Correct
1,new_learn,18,882,B,27.37331475171913,47.371657201788906,1.3686657375859566,0.7441122512675702,B,1135,Correct
1,new_learn,18,883,B,61.41603774462622,12.448798036926874,3.0708018872313114,0.19554526229416255,A,571,Incorrect
1,new_learn,18,884,A,64.9314834217071,49.09706029450798,3.2465741710853546,0.771214819670407,A,816,Correct
1,new_learn,18,885,B,28.37606355046786,58.38115730784096,1.418803177523393,0.9170490745319161,B,776,Correct
1,new_learn,18,886,A,85.57390685845856,42.39321375152649,4.278695342922927,0.6659110444192871,B,681,Incorrect
1,new_learn,18,887,A,63.34508576863893,60.979049847081384,3.1672542884319466,0.9578566751123834,A,679,Correct
1,new_learn,18,888,A,38.63858067074481,71.82600039084284,1.9319290335372403,1.1282401758230474,A,831,Correct
1,new_learn,18,889,B,21.819228687222772,62.29134024030867,1.0909614343611387,0.9784700844060799,A,560,Incorrect
1,new_learn,18,890,A,46.72807490680749,64.67405801564432,2.3364037453403745,1.0158977276989414,B,884,Incorrect
1,new_learn,18,891,B,58.42935350598371,32.523156613521095,2.9214676752991857,0.5108725494429409,B,632,Correct
1,new_learn,18,892,B,57.08581250880635,17.470425031331445,2.8542906254403175,0.2744247946676105,B,617,Correct
1,new_learn,18,893,A,50.0739837673358,71.04132341926552,2.50369918836679,1.1159144987763054,A,760,Correct
1,new_learn,18,894,B,55.59208898858104,34.39129457688246,2.779604449429052,0.5402171919508821,B,832,Correct
1,new_learn,18,895,B,24.73293634609228,48.122539610371476,1.2366468173046141,0.7559070845601342,A,736,Incorrect
1,new_learn,18,896,B,15.042903775556091,69.56327992721513,0.7521451887778045,1.0926974458947467,B,1046,Correct
1,new_learn,18,897,B,47.63562740788474,25.402230941907405,2.3817813703942368,0.3990173105594381,B,991,Correct
1,new_learn,18,898,A,65.85357437155936,62.63793902902313,3.2926787185779682,0.9839144454479224,A,511,Correct
