experiment,condition,subject,trial,cat,x,y,xt,yt,resp,rt,fb
1,new_learn,38,0,A,60.21038056483701,79.19414483195756,3.0105190282418506,1.2439787180570199,B,1725,Incorrect
1,new_learn,38,1,B,55.30241313884444,43.29762423009872,2.765120656942222,0.6801174909958477,A,867,Incorrect
1,new_learn,38,2,A,41.17758158594333,72.75916431369494,2.0588790792971663,1.1428982804461834,B,1152,Incorrect
1,new_learn,38,3,B,33.16869959465865,20.140690006572438,1.6584349797329323,0.3163692188143867,A,1362,Incorrect
1,new_learn,38,4,A,16.020200669939346,44.201113775458,0.8010100334969672,0.6943094715873273,A,950,Correct
1,new_learn,38,5,B,73.92357075901334,49.08516247423881,3.696178537950667,0.7710279291466503,A,710,Incorrect
1,new_learn,38,6,A,14.128387941181224,33.161949073483385,0.7064193970590611,0.5209066779398712,A,945,Correct
1,new_learn,38,7,B,48.44159160129455,38.51701016208058,2.422079580064727,0.6050237808171789,A,969,Incorrect
1,new_learn,38,8,B,56.9218397662617,29.155124716966114,2.846091988313085,0.45796762812657477,B,942,Correct
1,new_learn,38,9,A,40.4466026626186,66.15733830740787,2.02233013313093,1.0391970400380357,A,2069,Correct
1,new_learn,38,10,B,79.61884213443402,55.138827218973255,3.980942106721701,0.8661186725934166,B,1033,Correct
1,new_learn,38,11,A,27.49605545590157,39.17555390096101,1.3748027727950785,0.6153681616778505,A,877,Correct
1,new_learn,38,12,A,44.13086848535736,71.16626132517258,2.206543424267868,1.1178770188130682,B,1085,Incorrect
1,new_learn,38,13,A,58.61282271332117,79.30864481095645,2.9306411356660584,1.2457772795213153,A,1790,Correct
1,new_learn,38,14,A,52.10632015889438,61.596507256205555,2.605316007944719,0.9675556734144289,A,707,Correct
1,new_learn,38,15,A,29.644240351453526,45.31572524717836,1.4822120175726763,0.7118177476431452,A,1099,Correct
1,new_learn,38,16,B,74.15759436187716,57.27156923464286,3.707879718093858,0.899619705835566,B,752,Correct
1,new_learn,38,17,A,45.14449922517893,65.4185259412288,2.257224961258947,1.0275918025281885,A,1183,Correct
1,new_learn,38,18,B,47.63286249177185,35.52613818522549,2.3816431245885927,0.5580432736656011,A,1534,Incorrect
1,new_learn,38,19,B,45.01368105355519,17.374439445983096,2.2506840526777596,0.272917056618706,B,1034,Correct
1,new_learn,38,20,B,36.278935982103015,21.543693111446686,1.8139467991051506,0.3384075400505697,B,931,Correct
1,new_learn,38,21,A,33.50502953722265,48.340056929078045,1.6752514768611322,0.7593238386125198,A,753,Correct
1,new_learn,38,22,A,26.808720589034387,54.12367393304754,1.3404360294517192,0.8501726820667579,B,2801,Incorrect
1,new_learn,38,23,B,77.73407005053025,65.32767484398632,3.8867035025265126,1.0261647168298507,B,952,Correct
1,new_learn,38,24,B,66.19891925215788,36.88565761313612,3.309945962607894,0.5793985549012842,B,719,Correct
1,new_learn,38,25,A,25.701052566304007,39.93547523194689,1.2850526283152004,0.6273049780315074,A,2082,Correct
1,new_learn,38,26,A,59.00323570335678,76.21684158820335,2.950161785167839,1.1972113480665836,B,860,Incorrect
1,new_learn,38,27,B,77.36646829040495,64.08930180697,3.8683234145202476,1.00671239865238,B,5516,Correct
1,new_learn,38,28,B,47.60315446998775,25.867733866484578,2.3801577234993876,0.40632941339981926,A,3164,Incorrect
1,new_learn,38,29,B,45.28656590593368,23.54531478780976,2.264328295296684,0.3698489398192113,B,616,Correct
1,new_learn,38,30,A,40.17705203448229,56.90548253443589,2.0088526017241146,0.8938692293958304,B,1170,Incorrect
1,new_learn,38,31,B,55.98296581525934,31.48987928360056,2.7991482907629672,0.49464186709894464,B,1111,Correct
1,new_learn,38,32,B,37.92793059553814,19.294104295553453,1.8963965297769072,0.30307108156253004,A,1284,Incorrect
1,new_learn,38,33,B,43.20107515184314,15.657348655011631,2.1600537575921575,0.24594505754639284,A,1534,Incorrect
1,new_learn,38,34,B,80.79075812657887,60.41265574614155,4.039537906328943,0.9489597773796377,B,727,Correct
1,new_learn,38,35,B,43.86678262469019,28.90512869327496,2.1933391312345094,0.4540406997693008,B,799,Correct
1,new_learn,38,36,A,56.87766736836313,84.02781633004446,2.8438833684181564,1.3199058523983005,B,908,Incorrect
1,new_learn,38,37,B,60.427283734349935,32.82264548362154,3.0213641867174967,0.5155769096136382,B,1156,Correct
1,new_learn,38,38,A,52.704848302138195,83.17765548748724,2.6352424151069096,1.3065515571115633,A,1251,Correct
1,new_learn,38,39,B,68.59433033593092,51.36703798490366,3.429716516796546,0.8068715458502059,B,3655,Correct
1,new_learn,38,40,B,72.49755579922072,45.08542757374748,3.624877789961036,0.7082002402481988,B,711,Correct
1,new_learn,38,41,B,72.54728505084714,44.14055139872371,3.6273642525423564,0.6933581599981654,B,845,Correct
1,new_learn,38,42,A,68.17474822492665,89.34125929195521,3.4087374112463324,1.4033692192703364,B,751,Incorrect
1,new_learn,38,43,A,41.843404063845576,50.454095279940724,2.092170203192279,0.7925310753749061,A,977,Correct
1,new_learn,38,44,B,55.90384801180459,48.24506499081865,2.7951924005902296,0.7578317087355899,B,864,Correct
1,new_learn,38,45,A,35.12343871139265,51.052155101334456,1.7561719355696326,0.801925377081395,A,919,Correct
1,new_learn,38,46,B,55.00683381842077,22.803462406790622,2.7503416909210388,0.35819594986792225,B,1152,Correct
1,new_learn,38,47,B,77.2827907404859,48.810083364902276,3.8641395370242946,0.7667069966014117,B,1112,Correct
1,new_learn,38,48,A,18.353751358913172,32.43752715596823,0.9176875679456586,0.509527485069046,A,1610,Correct
1,new_learn,38,49,B,65.62690973616884,37.14768913009614,3.281345486808442,0.5835145363447373,B,904,Correct
1,new_learn,38,50,A,44.09703870876223,68.69740774291763,2.2048519354381115,1.079096357429063,B,895,Incorrect
1,new_learn,38,51,A,43.84087053563952,72.96357193938826,2.192043526781976,1.1461091079222627,A,880,Correct
1,new_learn,38,52,A,37.48037117071424,68.78010295115773,1.8740185585357123,1.0803953307225338,B,1697,Incorrect
1,new_learn,38,53,B,61.87850905745697,36.01055117218182,3.0939254528728486,0.5656524150712287,B,822,Correct
1,new_learn,38,54,A,26.196622026233495,37.88556210693487,1.3098311013116748,0.5951050179613322,A,736,Correct
1,new_learn,38,55,B,84.17244454379177,66.33043255268245,4.208622227189588,1.0419159980847024,B,906,Correct
1,new_learn,38,56,A,16.85465041037606,36.23747256006939,0.8427325205188029,0.5692168878968786,A,689,Correct
1,new_learn,38,57,B,62.0542020084517,46.3801909309536,3.1027101004225854,0.7285383355038789,B,1054,Correct
1,new_learn,38,58,A,64.65669900254065,83.10641861671664,3.2328349501270326,1.3054325709621748,A,811,Correct
1,new_learn,38,59,A,53.512333418511574,70.64191940066964,2.6756166709255784,1.10964067512313,A,699,Correct
1,new_learn,38,60,A,37.28303344740952,49.881094079209916,1.8641516723704763,0.783530393561336,A,1248,Correct
1,new_learn,38,61,A,54.49180774964174,64.71002377925593,2.724590387482087,1.0164626765926563,B,783,Incorrect
1,new_learn,38,62,A,45.86126127578366,63.11360364962421,2.293063063789183,0.9913861678361868,A,835,Correct
1,new_learn,38,63,B,79.94068161430047,48.287337697945915,3.9970340807150238,0.7584957268663819,B,886,Correct
1,new_learn,38,64,A,36.62763367161839,65.84825010869312,1.8313816835809194,1.0343418939660682,A,1644,Correct
1,new_learn,38,65,B,47.02829515329863,21.622742925980944,2.351414757664932,0.339649251633612,B,3016,Correct
1,new_learn,38,66,B,57.63442475428709,46.970818251001155,2.8817212377143546,0.7378158877522331,B,992,Correct
1,new_learn,38,67,B,53.41963946508687,28.906737628303706,2.6709819732543436,0.45406597286163275,B,1732,Correct
1,new_learn,38,68,B,87.52478249840917,65.19329468830732,4.376239124920459,1.0240538782805038,B,1437,Correct
1,new_learn,38,69,B,64.82940540891705,49.87089397027173,3.241470270445853,0.783370170624806,B,1389,Correct
1,new_learn,38,70,A,33.30629692473761,57.94852498766828,1.6653148462368805,0.910253301938116,A,1734,Correct
1,new_learn,38,71,A,18.787087014789243,42.26526583646807,0.9393543507394623,0.6639012432693386,A,832,Correct
1,new_learn,38,72,B,43.97701628109413,30.53513351020829,2.1988508140547065,0.47964475556026936,B,4809,Correct
1,new_learn,38,73,B,68.60867157934968,47.64721489111982,3.4304335789674836,0.7484407013297811,B,804,Correct
1,new_learn,38,74,B,73.00133470650105,44.102386497394946,3.6500667353250527,0.6927586671299681,B,914,Correct
1,new_learn,38,75,A,27.978378242709113,58.531662613169644,1.3989189121354557,0.9194132063396506,A,1182,Correct
1,new_learn,38,76,B,79.51584010073574,56.00954206972699,3.9757920050367876,0.879795829485914,B,1414,Correct
1,new_learn,38,77,A,64.50535366360246,86.75076376321387,3.2252676831801232,1.3626778106590816,A,2645,Correct
1,new_learn,38,78,B,37.721608602122245,23.706242261215902,1.8860804301061123,0.37237678266027885,B,2007,Correct
1,new_learn,38,79,A,35.2126973051749,53.768430264796976,1.7606348652587451,0.8445925275747064,B,810,Incorrect
1,new_learn,38,80,A,15.674422491843874,41.5394506341341,0.7837211245921937,0.6525001647317578,A,1709,Correct
1,new_learn,38,81,A,40.260004704898826,73.30060164008506,2.013000235244941,1.151403158081016,B,1117,Incorrect
1,new_learn,38,82,B,84.17146533474114,64.09716093853491,4.208573266737057,1.0068358496023198,B,1015,Correct
1,new_learn,38,83,A,46.945361258290866,61.63040286970934,2.347268062914543,0.9680881044662908,B,1718,Incorrect
1,new_learn,38,84,A,48.96746348582657,68.74438924578283,2.448373174291328,1.0798343411503424,A,1315,Correct
1,new_learn,38,85,A,66.84700717783564,87.15330593816418,3.342350358891782,1.3690009283570015,B,869,Incorrect
1,new_learn,38,86,A,37.46909682989852,52.29601041868048,1.873454841494926,0.8214638107169095,B,1114,Incorrect
1,new_learn,38,87,A,26.023592792518063,47.17179914847583,1.3011796396259032,0.7409728883073246,A,693,Correct
1,new_learn,38,88,A,40.712678719208284,66.39756866635868,2.035633935960414,1.0429705696922815,A,1459,Correct
1,new_learn,38,89,B,39.6115527952626,30.453721278270123,1.9805776397631296,0.47836593521142284,B,964,Correct
1,new_learn,38,90,A,44.1882492658563,52.8231256848429,2.209412463292815,0.829743717955764,A,7527,Correct
1,new_learn,38,91,A,37.53322040769958,59.482065540412336,1.8766610203849792,0.93434210061053,A,1904,Correct
1,new_learn,38,92,B,48.90168632780474,35.22189795851689,2.4450843163902367,0.55326427935983,B,12467,Correct
1,new_learn,38,93,B,83.4276730474435,54.02060174900387,4.171383652372175,0.8485536279858523,B,1182,Correct
1,new_learn,38,94,B,57.88434446286743,37.92967602618937,2.8942172231433716,0.5957979577845871,B,773,Correct
1,new_learn,38,95,A,24.683361715847088,55.73608431151475,1.2341680857923543,0.8755003650645803,A,6148,Correct
1,new_learn,38,96,A,56.897456658276454,85.62674561718363,2.8448728329138224,1.3450217749087303,A,2274,Correct
1,new_learn,38,97,B,60.09628734410658,43.58160883349673,3.004814367205329,0.6845783107146868,A,1379,Incorrect
1,new_learn,38,98,B,73.2355484393497,47.14843074168542,3.6617774219674852,0.7406058182318302,B,589,Correct
1,new_learn,38,99,A,42.39679547775286,60.13184582029045,2.1198397738876427,0.9445488253790929,A,4107,Correct
1,new_learn,38,100,B,60.731424367012515,45.30309225297865,3.036571218350626,0.7116193090342919,B,883,Correct
1,new_learn,38,101,B,76.5888959198044,61.94218969226986,3.8294447959902196,0.9729856404225019,B,724,Correct
1,new_learn,38,102,A,39.98798506917732,63.28232228545523,1.9993992534588658,0.994036393970439,A,2339,Correct
1,new_learn,38,103,B,81.82411303820636,64.7306616399702,4.091205651910318,1.016786855350685,B,637,Correct
1,new_learn,38,104,B,60.17801868566302,46.07301146389106,3.008900934283151,0.7237131717185924,B,630,Correct
1,new_learn,38,105,B,32.60262687107726,12.134719914022831,1.6301313435538631,0.19061173467631948,A,1062,Incorrect
1,new_learn,38,106,B,81.60871264746615,51.07069304621389,4.080435632373308,0.8022165704386244,B,1563,Correct
1,new_learn,38,107,A,27.289233398613298,54.38372092933357,1.364461669930665,0.8542574907323591,B,1140,Incorrect
1,new_learn,38,108,B,83.51845642856732,63.61163226669608,4.175922821428366,0.9992091830595393,B,591,Correct
1,new_learn,38,109,B,79.55989685008083,58.4018571524625,3.9779948425040415,0.9173742269308836,B,695,Correct
1,new_learn,38,110,B,52.08598082373479,37.173196203917,2.6042990411867395,0.5839152005233882,B,1393,Correct
1,new_learn,38,111,A,40.03135142989287,69.78384546218967,2.0015675714946437,1.0961620812163024,B,938,Incorrect
1,new_learn,38,112,A,24.08078609887236,39.72793042941714,1.2040393049436178,0.6240448718969164,A,756,Correct
1,new_learn,38,113,B,58.18231948452471,47.12537176131688,2.9091159742262356,0.7402436086152051,B,1804,Correct
1,new_learn,38,114,B,77.88289775991936,63.04601096177753,3.894144887995968,0.9903244243783093,B,980,Correct
1,new_learn,38,115,A,39.07283291833048,50.17417884684395,1.9536416459165238,0.7881341583257269,A,816,Correct
1,new_learn,38,116,A,57.555684077509994,76.24563111274993,2.8777842038755,1.1976635728606626,A,1427,Correct
1,new_learn,38,117,A,24.707457050968216,47.47382959202219,1.235372852548411,0.7457171714203532,A,3697,Correct
1,new_learn,38,118,A,60.99162368137437,73.62318164226322,3.0495811840687184,1.156470232906205,A,1538,Correct
1,new_learn,38,119,B,68.77964995189241,58.72539723475378,3.4389824975946204,0.922456382659224,B,1853,Correct
1,new_learn,38,120,B,52.44675966136383,26.695803240411113,2.6223379830681917,0.4193366967087708,A,1865,Incorrect
1,new_learn,38,121,B,87.69449367397684,65.7261925323121,4.384724683698842,1.0324246180396999,B,765,Correct
1,new_learn,38,122,A,19.6935496482306,42.36782459924161,0.9846774824115301,0.6655122325477917,A,1363,Correct
1,new_learn,38,123,B,79.87326037364727,64.30583172087003,3.9936630186823634,1.010113642586334,B,802,Correct
1,new_learn,38,124,B,52.53713129496343,22.55102226189532,2.626856564748172,0.3542306293445511,B,3582,Correct
1,new_learn,38,125,A,37.68111839461023,58.03316747917125,1.8840559197305113,0.9115828630855524,A,9362,Correct
1,new_learn,38,126,A,29.018161131299216,53.649255448194616,1.4509080565649608,0.8427205339330519,A,651,Correct
1,new_learn,38,127,A,10.851797128445458,34.209061102768345,0.5425898564222729,0.5373546752333069,A,1019,Correct
1,new_learn,38,128,B,44.77135592561775,19.832842397766683,2.238567796280887,0.3115335598831399,B,2596,Correct
1,new_learn,38,129,B,53.13518811180844,28.40381330143493,2.6567594055904222,0.44616605600862014,B,650,Correct
1,new_learn,38,130,A,20.237594549860425,47.451920033667534,1.0118797274930214,0.7453730168825013,A,851,Correct
1,new_learn,38,131,B,74.29405308865418,55.40061155000117,3.7147026544327093,0.8702307712493277,B,1125,Correct
1,new_learn,38,132,B,61.923293966768206,52.41273321295068,3.0961646983384106,0.8232972880818382,B,834,Correct
1,new_learn,38,133,A,50.53190863627331,65.56988784109899,2.526595431813665,1.0299693896915165,B,679,Incorrect
1,new_learn,38,134,A,66.85204564422418,87.05431552968977,3.342602282211209,1.3674459906568062,B,2008,Incorrect
1,new_learn,38,135,B,33.930285105599914,14.177522286105535,1.6965142552799959,0.2226999993006736,B,2827,Correct
1,new_learn,38,136,B,42.17811628193313,21.216201732590637,2.1089058140966563,0.3332633175009289,B,1398,Correct
1,new_learn,38,137,A,49.16048319362898,80.16421854656822,2.458024159681449,1.2592166003333267,A,1372,Correct
1,new_learn,38,138,A,19.818705292148955,33.21592269556477,0.9909352646074479,0.5217544936129639,A,1498,Correct
1,new_learn,38,139,A,63.386786528586654,78.24110109201658,3.1693393264293324,1.2290083419972782,B,3332,Incorrect
1,new_learn,38,140,A,30.34678873509872,53.015632275853115,1.517339436754936,0.8327676044161904,B,1795,Incorrect
1,new_learn,38,141,A,43.55873654523166,67.36749558311188,2.177936827261583,1.0582061460732355,A,1653,Correct
1,new_learn,38,142,A,28.348854088782502,52.631764069238024,1.4174427044391251,0.826737816726947,A,1062,Correct
1,new_learn,38,143,B,71.73838176862498,60.08896104768867,3.586919088431249,0.9438751929463098,B,876,Correct
1,new_learn,38,144,B,55.98051271596637,35.210720035417665,2.7990256357983183,0.5530886969543753,B,552,Correct
1,new_learn,38,145,A,23.968153228146004,44.12883168992001,1.1984076614073003,0.6931740672427658,A,810,Correct
1,new_learn,38,146,B,66.39107108622844,47.94269197027091,3.3195535543114216,0.7530820444356073,B,1986,Correct
1,new_learn,38,147,A,22.441250676440617,44.71030609032277,1.122062533822031,0.702307845765545,B,2839,Incorrect
1,new_learn,38,148,B,55.675989074039734,33.42386515376798,2.783799453701987,0.5250208461082668,A,1666,Incorrect
1,new_learn,38,149,A,37.5823014183993,46.20145371535799,1.8791150709199649,0.7257307378866875,B,579,Incorrect
1,new_learn,38,150,A,44.15665964273077,55.37623974106156,2.2078329821365386,0.8698479397697307,B,1056,Incorrect
1,new_learn,38,151,B,43.13802645935553,23.95246405485115,2.1569013229677765,0.3762444255504698,B,813,Correct
1,new_learn,38,152,A,27.627509852689286,53.353932366936704,1.3813754926344644,0.8380816098204752,A,739,Correct
1,new_learn,38,153,A,64.61411927486304,88.0544166899272,3.230705963743152,1.3831555429460487,A,1233,Correct
1,new_learn,38,154,B,85.71843005160247,59.933275400310926,4.285921502580123,0.9414296885159534,A,1639,Incorrect
1,new_learn,38,155,A,57.31580392253859,72.08435657045374,2.8657901961269294,1.132298425202423,A,1045,Correct
1,new_learn,38,156,A,11.343949627407621,30.614197902377857,0.5671974813703811,0.4808866961282717,B,3102,Incorrect
1,new_learn,38,157,A,52.73386518302075,73.03672134757626,2.6366932591510372,1.1472581361391518,A,1758,Correct
1,new_learn,38,158,B,48.866218733951115,27.159393207794366,2.443310936697556,0.42661875088781653,A,1509,Incorrect
1,new_learn,38,159,A,63.9846580611497,75.22323583913743,3.1992329030574855,1.181603825457433,A,818,Correct
1,new_learn,38,160,A,34.12626257517235,44.18412330067162,1.7063131287586173,0.6940425858334779,A,1169,Correct
1,new_learn,38,161,B,58.1304328100841,26.602862050839704,2.9065216405042054,0.4178767799169036,B,3101,Correct
1,new_learn,38,162,A,54.219621770337525,75.08198385169774,2.7109810885168764,1.1793850444272054,A,967,Correct
1,new_learn,38,163,B,36.15267095462871,11.961869302545615,1.8076335477314356,0.18789660362039282,B,2200,Correct
1,new_learn,38,164,B,61.62116445264769,44.54542570800236,3.0810582226323846,0.6997179107764507,A,1409,Incorrect
1,new_learn,38,165,A,63.260181746194945,83.7033809274269,3.163009087309747,1.314809633011162,A,1140,Correct
1,new_learn,38,166,A,58.82774135510138,80.36694633952652,2.941387067755069,1.262401041058508,A,635,Correct
1,new_learn,38,167,A,25.6079477235078,46.812857646652105,1.2803973861753901,0.7353346483813351,A,1335,Correct
1,new_learn,38,168,B,80.34228330094305,66.81548299049163,4.017114165047152,1.0495351525449115,A,1182,Incorrect
1,new_learn,38,169,A,28.072293330774457,59.93936084471211,1.403614666538723,0.9415252784530764,A,1444,Correct
1,new_learn,38,170,B,30.91054105051531,16.83383854757118,1.5455270525257654,0.2644253175638315,A,1334,Incorrect
1,new_learn,38,171,A,25.103347921932105,42.028747273687316,1.2551673960966054,0.6601860183729906,B,950,Incorrect
1,new_learn,38,172,B,64.66015020100278,36.341347395805016,3.233007510050139,0.570848550001078,B,2304,Correct
1,new_learn,38,173,A,35.38870063821972,54.74837507295205,1.769435031910986,0.8599854646258235,A,1915,Correct
1,new_learn,38,174,A,38.372827329569894,55.48834010290658,1.9186413664784947,0.871608808135916,A,4635,Correct
1,new_learn,38,175,B,66.0840609723645,58.17472764921639,3.3042030486182252,0.9138064850368262,A,3460,Incorrect
1,new_learn,38,176,B,69.2621798942887,51.681105468623215,3.4631089947144353,0.8118049063481299,A,1766,Incorrect
1,new_learn,38,177,A,20.320554858208858,40.79878156011537,1.0160277429104427,0.6408657621233658,A,1632,Correct
1,new_learn,38,178,B,46.31220933177663,32.97218628447145,2.315610466588831,0.5179258910204483,A,549,Incorrect
1,new_learn,38,179,B,44.59555681184279,32.21399349913382,2.2297778405921393,0.5060162265983409,B,1128,Correct
1,new_learn,38,180,A,14.778457713778863,40.74194359976797,0.7389228856889432,0.6399729535300036,A,894,Correct
1,new_learn,38,181,A,63.65489157817245,79.22879583106037,3.182744578908623,1.2445230146781243,A,1024,Correct
1,new_learn,38,182,A,56.782531670388735,71.7914743297692,2.8391265835194366,1.1276978417239159,B,818,Incorrect
1,new_learn,38,183,A,55.76696528387515,77.96386439616512,2.7883482641937576,1.224653518162316,B,626,Incorrect
1,new_learn,38,184,A,48.87356591144838,67.67126734536674,2.4436782955724192,1.062977781756575,A,550,Correct
1,new_learn,38,185,B,83.29318848440452,57.43830142550466,4.164659424220226,0.9022387289652077,B,2364,Correct
1,new_learn,38,186,B,46.95041379242838,39.87532385152462,2.347520689621419,0.626360122357318,A,672,Incorrect
1,new_learn,38,187,A,35.878268634069435,67.31998754909966,1.7939134317034717,1.0574598916200393,A,785,Correct
1,new_learn,38,188,A,27.566808947022082,49.59093760938263,1.378340447351104,0.7789726263913312,A,743,Correct
1,new_learn,38,189,B,37.51000795310743,21.262818334214092,1.8755003976553717,0.3339955693669068,B,1026,Correct
1,new_learn,38,190,A,44.03841021900716,69.36306926770882,2.2019205109503583,1.0895525442093699,A,1009,Correct
1,new_learn,38,191,A,45.57413729556078,62.79404341950134,2.278706864778039,0.9863665274795196,A,688,Correct
1,new_learn,38,192,A,48.574630179711036,68.43348548825495,2.428731508985552,1.0749506763472272,A,720,Correct
1,new_learn,38,193,B,65.14679124165295,44.8440720070534,3.2573395620826475,0.7044090358720532,A,1500,Incorrect
1,new_learn,38,194,A,52.43091555555765,78.92427535843146,2.6215457777778823,1.2397396182797311,A,965,Correct
1,new_learn,38,195,B,84.93767071369504,59.406804002477344,4.246883535684752,0.9331598951371577,B,555,Correct
1,new_learn,38,196,B,45.448756404690386,27.34084149970801,2.2724378202345195,0.42946893399222813,A,2042,Incorrect
1,new_learn,38,197,B,85.39151123127102,66.07691436038594,4.269575561563551,1.037933743632352,B,671,Correct
1,new_learn,38,198,B,44.17755654359839,17.33711947052631,2.20887782717992,0.2723308358150701,A,809,Incorrect
1,new_learn,38,199,B,79.31944667999807,62.86837856180201,3.965972333999903,0.9875341811642963,B,956,Correct
1,new_learn,38,200,B,74.82139719313402,55.406283298911475,3.741069859656701,0.8703198628728757,B,640,Correct
1,new_learn,38,201,B,86.79518978721164,68.10575982515084,4.339759489360582,1.0698027736692237,A,1044,Incorrect
1,new_learn,38,202,B,37.300991985233466,16.029993937736233,1.8650495992616731,0.25179855595940537,A,977,Incorrect
1,new_learn,38,203,B,52.12704492646301,24.76404964982499,2.6063522463231505,0.38899278226511536,B,817,Correct
1,new_learn,38,204,B,36.88100066018568,21.17602611028878,1.844050033009284,0.33263224030154437,B,871,Correct
1,new_learn,38,205,B,44.336385266655235,28.88118384580153,2.216819263332762,0.4536645749847315,B,823,Correct
1,new_learn,38,206,B,50.265038973769244,42.64389584496666,2.513251948688462,0.6698487495349779,B,744,Correct
1,new_learn,38,207,B,48.24521486482127,39.96352332813598,2.4122607432410637,0.6277455564961816,B,667,Correct
1,new_learn,38,208,A,57.64427284646608,70.33828490379949,2.882213642323304,1.1048711955994115,B,735,Incorrect
1,new_learn,38,209,B,63.39494503424059,48.5940627596041,3.16974725171203,0.7633137528682681,A,749,Incorrect
1,new_learn,38,210,B,79.14030887426904,59.79198200541888,3.9570154437134524,0.9392102570589853,B,593,Correct
1,new_learn,38,211,A,29.156808930123745,56.93031771709307,1.4578404465061874,0.8942593395327622,A,842,Correct
1,new_learn,38,212,B,82.71304528234778,63.915492702565786,4.135652264117389,1.0039822116247636,A,1471,Incorrect
1,new_learn,38,213,A,21.998783283252074,35.84237795645349,1.0999391641626035,0.563010756375915,A,638,Correct
1,new_learn,38,214,B,43.641526479491404,22.375675722455988,2.18207632397457,0.3514762923438761,A,1502,Incorrect
1,new_learn,38,215,A,37.93275245730742,54.825697499642835,1.8966376228653712,0.861200042464071,B,572,Incorrect
1,new_learn,38,216,A,44.50727556108266,74.10046424898543,2.225363778054133,1.1639673705610287,A,311,Correct
1,new_learn,38,217,B,38.01261046778791,18.602681410334178,1.9006305233893954,0.2922102362788863,B,861,Correct
1,new_learn,38,218,A,47.97136514463322,66.24987774010197,2.398568257231661,1.0406506460476317,B,899,Incorrect
1,new_learn,38,219,A,13.307173612664762,33.971557825881604,0.6653586806332382,0.5336239824839525,A,828,Correct
1,new_learn,38,220,A,32.50951967361699,64.85804580388213,1.6254759836808494,1.0187878011183322,A,781,Correct
1,new_learn,38,221,A,31.74454313483443,51.248680457851776,1.5872271567417215,0.8050123901627897,A,1688,Correct
1,new_learn,38,222,B,72.8162499709758,52.679586765824624,3.6408124985487906,0.8274890138883036,A,2141,Incorrect
1,new_learn,38,223,B,73.78571329563883,52.729231498215235,3.689285664781942,0.8282688315211426,B,340,Correct
1,new_learn,38,224,A,30.294823793238198,56.63311481243114,1.5147411896619098,0.8895908872232048,B,674,Incorrect
1,new_learn,38,225,B,75.2079888822285,44.19098637716158,3.7603994441114255,0.6941503907868871,A,289,Incorrect
1,new_learn,38,226,B,46.483423696210046,25.894871504295438,2.324171184810502,0.40675569041773113,B,455,Correct
1,new_learn,38,227,A,57.431766134902645,66.0804352800273,2.8715883067451324,1.0379890501087479,A,3871,Correct
1,new_learn,38,228,A,55.27909085289874,82.02087777002856,2.763954542644937,1.2883809352165405,A,1121,Correct
1,new_learn,38,229,B,61.437992198509754,36.196195496009366,3.0718996099254876,0.5685685092908149,A,733,Incorrect
1,new_learn,38,230,B,69.87039273245875,43.13849457993039,3.4935196366229375,0.6776178882961621,B,492,Correct
1,new_learn,38,231,A,25.844815794446284,38.758171577687435,1.292240789722314,0.6088119354751779,A,1293,Correct
1,new_learn,38,232,A,38.131983726205675,46.70320246599893,1.9065991863102838,0.7336121888314947,A,596,Correct
1,new_learn,38,233,B,61.40638667816813,40.79175986728808,3.0703193339084067,0.6407554656303558,B,1712,Correct
1,new_learn,38,234,A,38.555661093457296,59.731267878292385,1.927783054672865,0.9382565617802368,A,716,Correct
1,new_learn,38,235,A,61.25415158427637,83.40879754671481,3.0627075792138188,1.3101823280875882,B,1242,Incorrect
1,new_learn,38,236,A,25.19549454491377,53.54851769261891,1.2597747272456885,0.8411381489687731,A,360,Correct
1,new_learn,38,237,B,65.24006644588029,33.699811081766306,3.2620033222940146,0.5293553946092046,A,819,Incorrect
1,new_learn,38,238,A,54.505425035082844,63.45868995523621,2.725271251754142,0.9968067708490125,B,385,Incorrect
1,new_learn,38,239,B,54.31337814122098,23.206086421019197,2.7156689070610494,0.3645203530942189,A,689,Incorrect
1,new_learn,38,240,B,60.1171553553242,39.58945389554345,3.00585776776621,0.6218696875893557,B,1654,Correct
1,new_learn,38,241,B,49.28233441371179,27.962502740865855,2.4641167206855896,0.43923396593344316,B,555,Correct
1,new_learn,38,242,A,62.91437686489442,81.01135134314133,3.1457188432447207,1.272523331184972,A,607,Correct
1,new_learn,38,243,A,28.86608273543843,54.19373200198423,1.4433041367719215,0.8512731516402388,A,1654,Correct
1,new_learn,38,244,A,69.84216816883438,87.70995869065138,3.492108408441719,1.3777448093460731,A,844,Correct
1,new_learn,38,245,B,42.71265279396713,21.159870309949753,2.1356326396983563,0.3323784655832546,B,729,Correct
1,new_learn,38,246,A,43.05084858652811,63.549423961015016,2.1525424293264055,0.9982320172789397,A,928,Correct
1,new_learn,38,247,A,42.61841248816839,64.92909925151294,2.1309206244084193,1.019903906063778,A,780,Correct
1,new_learn,38,248,A,46.466647608311284,67.79290617628021,2.323332380415564,1.06488848004452,A,711,Correct
1,new_learn,38,249,A,46.5041104455198,71.45263981086147,2.32520552227599,1.122375441547,A,2057,Correct
1,new_learn,38,250,B,69.75768243958446,50.06118450533504,3.487884121979223,0.7863592473598188,A,784,Incorrect
1,new_learn,38,251,B,77.54373969483746,53.122102423140284,3.8771869847418725,0.8344400335789104,B,526,Correct
1,new_learn,38,252,B,64.21692631723239,46.42154944907971,3.2108463158616196,0.7291879935874206,B,605,Correct
1,new_learn,38,253,B,50.857181642229534,31.969477754430898,2.5428590821114767,0.5021753822621121,B,654,Correct
1,new_learn,38,254,B,47.25146842310073,26.102173069303397,2.3625734211550364,0.41001197578626447,A,1224,Incorrect
1,new_learn,38,255,A,56.67383462559124,65.21285467492605,2.8336917312795618,1.0243611258318324,B,3359,Incorrect
1,new_learn,38,256,B,77.92319491312647,61.78029349508522,3.8961597456563233,0.970442580903905,A,337,Incorrect
1,new_learn,38,257,B,41.66156486581582,28.301981869784353,2.083078243290791,0.44456649162073014,B,1749,Correct
1,new_learn,38,258,A,35.54732053429532,44.224552654189395,1.777366026714766,0.6946776486334819,B,526,Incorrect
1,new_learn,38,259,A,22.214511074032792,35.100588102779575,1.1107255537016396,0.5513587486018681,A,1166,Correct
1,new_learn,38,260,A,42.76697468790975,66.60593483683785,2.1383487343954872,1.0462435778444514,B,3227,Incorrect
1,new_learn,38,261,A,35.63661389319128,51.83932301893412,1.7818306946595641,0.8142901818167584,A,394,Correct
1,new_learn,38,262,A,25.394641614492613,39.253717651180665,1.2697320807246306,0.6165959549951859,A,772,Correct
1,new_learn,38,263,B,86.32934417152134,59.10907642294575,4.316467208576068,0.9284832012540201,B,702,Correct
1,new_learn,38,264,A,17.819160023398478,35.0820702684008,0.890958001169924,0.5510678711396443,A,846,Correct
1,new_learn,38,265,B,67.32346831260732,55.75651535619862,3.3661734156303655,0.8758212951640004,B,1325,Correct
1,new_learn,38,266,B,83.7642006106414,67.09677903910861,4.18821003053207,1.0539537405440063,A,978,Incorrect
1,new_learn,38,267,B,84.05119506047515,63.144950216250535,4.202559753023758,0.9918785585533295,B,513,Correct
1,new_learn,38,268,B,49.945271389642954,27.708879023951337,2.497263569482148,0.4352500539042692,A,851,Incorrect
1,new_learn,38,269,A,44.92712079646398,69.7299852698542,2.246356039823199,1.095316047293492,A,856,Correct
1,new_learn,38,270,A,18.26089613329989,42.75274927539016,0.9130448066649945,0.6715586152216604,A,1017,Correct
1,new_learn,38,271,A,28.85618888816291,52.21739298237541,1.4428094444081454,0.8202288909152091,A,1768,Correct
1,new_learn,38,272,B,69.1506820533132,58.76699433846747,3.45753410266566,0.9231097884364118,B,2784,Correct
1,new_learn,38,273,B,69.23291796436831,38.494334892249704,3.4616458982184155,0.6046675985115846,B,878,Correct
1,new_learn,38,274,B,79.04511970816097,57.13945818481787,3.9522559854080486,0.8975445103176249,B,889,Correct
1,new_learn,38,275,A,62.296633413103336,74.46556667665537,3.1148316706551666,1.1697023860839073,B,2074,Incorrect
1,new_learn,38,276,B,42.26434423360251,33.30671760770524,2.1132172116801256,0.5231806967577829,A,1370,Incorrect
1,new_learn,38,277,B,72.37032193940273,51.13004579771881,3.6185160969701364,0.8031488812791153,B,1126,Correct
1,new_learn,38,278,A,45.24263138342424,61.406155871605826,2.2621315691712116,0.964565640857133,A,1056,Correct
1,new_learn,38,279,A,39.27162782227699,46.35790644750496,1.9635813911138496,0.7281882916564224,B,1141,Incorrect
1,new_learn,38,280,A,16.557900935910776,33.5914585480742,0.8278950467955388,0.5276533969899799,A,1046,Correct
1,new_learn,38,281,A,44.50343627550993,56.81856106737152,2.2251718137754963,0.892503870183987,A,498,Correct
1,new_learn,38,282,B,68.2399549135975,42.06002009133133,3.411997745679875,0.6606772506438281,B,1094,Correct
1,new_learn,38,283,B,42.86633738503812,30.33163767442939,2.143316869251906,0.4764482504466738,A,851,Incorrect
1,new_learn,38,284,A,65.33225644044622,79.67884229466736,3.2666128220223105,1.2515923279973333,A,989,Correct
1,new_learn,38,285,A,40.315362314761266,61.59399526622413,2.0157681157380636,0.9675162151680711,B,702,Incorrect
1,new_learn,38,286,A,38.7734984915457,57.43820100059479,1.938674924577285,0.9022371514944124,A,587,Correct
1,new_learn,38,287,A,53.03584266101733,83.09682115702616,2.6517921330508667,1.3052818144178913,A,2364,Correct
1,new_learn,38,288,B,46.779311651268806,37.644708255021335,2.3389655825634406,0.5913216945025304,B,1573,Correct
1,new_learn,38,289,A,66.6928397311145,81.82477877958954,3.3346419865557255,1.2853006194778422,A,1081,Correct
1,new_learn,38,290,B,52.665779704432815,21.77043807446037,2.633288985221641,0.3419692416007811,B,1690,Correct
1,new_learn,38,291,A,20.459291948818553,42.910391952065964,1.0229645974409278,0.674034860596345,A,681,Correct
1,new_learn,38,292,B,57.92475263168132,33.108839601482465,2.896237631584066,0.5200724363045006,B,1264,Correct
1,new_learn,38,293,A,50.12049414902836,59.8749752338671,2.506024707451418,0.9405139116429385,A,706,Correct
1,new_learn,38,294,A,39.332056673358,70.44954564280789,1.9666028336679,1.1066188752009205,A,2326,Correct
1,new_learn,38,295,B,37.123154388435516,25.462734586229423,1.856157719421776,0.3999676995820255,B,1577,Correct
1,new_learn,38,296,B,53.93897866575153,27.919969012444447,2.6969489332875765,0.4385658476897507,B,920,Correct
1,new_learn,38,297,A,19.4258480767192,50.869972468858165,0.9712924038359599,0.7990636589823993,A,830,Correct
1,new_learn,38,298,A,57.10075358024986,65.27901577776471,2.8550376790124927,1.025400382004989,B,1678,Incorrect
1,new_learn,38,299,A,65.10343955749939,83.61295379037766,3.2551719778749693,1.3133892068639665,A,707,Correct
1,new_learn,38,300,A,18.84872786032984,38.31737607612787,0.9424363930164921,0.601887935928003,A,827,Incorrect
1,new_learn,38,301,B,84.75094685760038,57.561116342595284,4.23754734288002,0.9041679011716237,A,963,Incorrect
1,new_learn,38,302,B,65.3390706011554,54.072104590431046,3.26695353005777,0.8493626327271855,B,618,Incorrect
1,new_learn,38,303,A,65.928862972444,89.58128695219817,3.2964431486222,1.4071395649407246,B,1604,Correct
1,new_learn,38,304,B,59.652594481523685,32.18244667124487,2.982629724076184,0.5055206901846409,A,834,Correct
1,new_learn,38,305,B,70.7685271403039,37.5966535289163,3.538426357015195,0.5905668526300211,A,757,Incorrect
1,new_learn,38,306,B,43.23415209563326,28.525664331682727,2.161707604781663,0.44808008751591427,B,604,Correct
1,new_learn,38,307,A,35.04949066066493,57.25378104286928,1.7524745330332465,0.8993402895725833,A,5666,Incorrect
1,new_learn,38,308,A,39.59784926901758,62.20367021570601,1.979892463450879,0.9770929668799212,B,437,Incorrect
1,new_learn,38,309,B,47.72881194895373,26.389655510119432,2.3864405974476863,0.4145277394067831,B,1421,Correct
1,new_learn,38,310,A,16.831604403713897,39.44946741787665,0.8415802201856948,0.6196707851401558,A,638,Correct
1,new_learn,38,311,B,54.71503713864359,38.97366696326237,2.735751856932179,0.6121969290762014,B,1885,Correct
1,new_learn,38,312,B,31.254963812861067,11.447272203561031,1.5627481906430534,0.17981333129174992,B,1286,Incorrect
1,new_learn,38,313,B,37.67835495035912,27.75886605940648,1.883917747517956,0.4360352484210722,A,458,Correct
1,new_learn,38,314,B,43.499658780032945,18.362383261499286,2.174982939001647,0.28843564178363174,A,777,Incorrect
1,new_learn,38,315,A,44.14010067345912,54.14739001081229,2.207005033672956,0.8505452133451462,A,677,Correct
1,new_learn,38,316,A,32.81575104428043,46.67247060030405,1.6407875522140216,0.7331294538140041,B,842,Incorrect
1,new_learn,38,317,B,64.21861656088686,56.57552917016416,3.2109308280443427,0.8886863340697138,A,503,Incorrect
1,new_learn,38,318,B,82.17734503133595,65.38834953942924,4.108867251566798,1.0271177927171622,B,2299,Incorrect
1,new_learn,38,319,A,41.97466225843639,73.65655617629315,2.098733112921819,1.1569944788608324,A,544,Incorrect
1,new_learn,38,320,B,46.29736351239261,20.058448591787577,2.3148681756196305,0.3150773736918419,B,1191,Correct
1,new_learn,38,321,B,46.253317552062455,24.55256291285354,2.312665877603123,0.38567075636910947,B,703,Incorrect
1,new_learn,38,322,B,51.95984695824738,39.25296177926231,2.597992347912369,0.6165840817868569,A,2322,Correct
1,new_learn,38,323,A,26.97629324913681,50.3619213700069,1.3488146624568405,0.7910832109834023,A,1391,Incorrect
1,new_learn,38,324,A,54.50150741210484,72.73831279368454,2.725075370605242,1.1425707455357792,A,519,Incorrect
1,new_learn,38,325,B,69.58337385012959,47.755472419541356,3.4791686925064793,0.7501412066097056,B,1016,Incorrect
1,new_learn,38,326,B,77.06894506377141,57.58135582158625,3.8534472531885706,0.9044858221641762,A,512,Incorrect
1,new_learn,38,327,A,40.665382586717755,47.626838848380615,2.0332691293358875,0.7481206351988875,B,398,Incorrect
1,new_learn,38,328,B,88.89736605871249,64.74504586703114,4.444868302935625,1.017012802260996,B,1700,Correct
1,new_learn,38,329,B,80.41382143070008,50.25754608744849,4.020691071535004,0.7894436878788931,B,1671,Correct
1,new_learn,38,330,B,73.15902596178191,40.42682279143019,3.657951298089096,0.6350230474476676,B,770,Incorrect
1,new_learn,38,331,B,59.67317523383185,44.93701351530267,2.9836587616915926,0.7058689576697005,A,532,Correct
1,new_learn,38,332,A,46.057328094935166,53.02321151352672,2.302866404746758,0.8328866588031665,A,475,Correct
1,new_learn,38,333,B,60.41910406754681,50.72015430445421,3.0209552033773406,0.7967103207590704,A,861,Incorrect
1,new_learn,38,334,B,40.03559070822108,23.297789256873852,2.001779535411054,0.3659608178713905,A,756,Incorrect
1,new_learn,38,335,B,51.437575656792454,23.9899737847724,2.571878782839623,0.37683362701026346,B,501,Incorrect
1,new_learn,38,336,A,45.75691809742186,72.60456652937766,2.287845904871093,1.1404698641288213,A,669,Correct
1,new_learn,38,337,A,22.955412730150282,55.0304257739721,1.1477706365075142,0.8644159066771459,A,1722,Incorrect
1,new_learn,38,338,B,81.64316902327116,65.11488019439395,4.082158451163558,1.0228221462904377,B,1362,Correct
1,new_learn,38,339,A,42.36208784157493,74.52066404137724,2.1181043920787466,1.1705678534651192,A,1224,Correct
1,new_learn,38,340,A,52.79126592246918,80.80454170327909,2.639563296123459,1.269274772958558,A,657,Correct
1,new_learn,38,341,A,11.37690568711906,34.84202024155111,0.568845284355953,0.5472971741354192,A,1231,Incorrect
1,new_learn,38,342,B,63.797671704650064,46.4470744809607,3.1898835852325034,0.7295889398506205,B,1333,Incorrect
1,new_learn,38,343,A,19.500869533465462,49.39613716974273,0.9750434766732731,0.7759127082408874,A,733,Incorrect
1,new_learn,38,344,A,23.870638069008074,37.21126342037987,1.1935319034504035,0.5845131589613001,A,1289,Incorrect
1,new_learn,38,345,A,27.77577343620393,60.19711484210402,1.3887886718101965,0.9455740687762754,A,872,Correct
1,new_learn,38,346,A,42.258435482909384,53.83045403790828,2.112921774145469,0.8455667947244785,A,578,Incorrect
1,new_learn,38,347,A,56.39961439639214,66.04515021205009,2.819980719819607,1.0374347935570547,B,547,Incorrect
1,new_learn,38,348,A,22.311207229201724,47.70551075526333,1.1155603614600862,0.7493564106224208,B,1765,Correct
1,new_learn,38,349,B,40.62589999256444,22.998308581146897,2.031294999628222,0.3612565864176109,A,1042,Correct
1,new_learn,38,350,B,40.74050830163758,21.15213114653301,2.0370254150818794,0.33225689908857975,A,985,Correct
1,new_learn,38,351,B,77.8747610452074,45.873961870111536,3.89373805226037,0.7205865080110033,A,904,Incorrect
1,new_learn,38,352,A,28.390979167628394,61.107380886270775,1.4195489583814196,0.9598724943621081,B,481,Incorrect
1,new_learn,38,353,B,50.33692306057427,42.6124781216897,2.5168461530287134,0.6693552410917807,B,1042,Correct
1,new_learn,38,354,B,74.03420514823546,41.27582096256045,3.701710257411773,0.6483590795343375,B,919,Correct
1,new_learn,38,355,A,22.28673981872153,34.33440550342937,1.1143369909360765,0.5393235804747334,A,848,Incorrect
1,new_learn,38,356,A,40.24160231004913,51.99928867618481,2.0120801155024566,0.8168029164849855,B,490,Incorrect
1,new_learn,38,357,A,28.782655656884977,43.39668651745008,1.4391327828442488,0.6816735577668019,A,2996,Correct
1,new_learn,38,358,B,36.33936091792023,16.527457267389114,1.8169680458960116,0.2596126916687444,A,5953,Incorrect
1,new_learn,38,359,A,32.486985781121355,49.65004115286847,1.6243492890560676,0.7799010226814125,B,833,Correct
1,new_learn,38,360,A,39.83480286340763,56.25622749761338,1.9917401431703814,0.8836707551258914,B,567,Incorrect
1,new_learn,38,361,B,41.8815375908639,20.33385397602508,2.094076879543195,0.31940343135123994,B,658,Correct
1,new_learn,38,362,A,26.50380880952504,46.98362261145986,1.3251904404762518,0.738017018175988,A,1272,Correct
1,new_learn,38,363,B,73.13315387295728,54.367660126060386,3.656657693647864,0.8540052082244903,B,1331,Incorrect
1,new_learn,38,364,B,49.939808452452056,39.93049467158239,2.4969904226226025,0.6272267435722481,A,1826,Correct
1,new_learn,38,365,B,63.04248672870354,45.410244523008146,3.1521243364351768,0.7133024529559928,B,1352,Incorrect
1,new_learn,38,366,B,76.67121756471394,47.02660534498175,3.8335608782356974,0.7386921893753059,B,579,Correct
1,new_learn,38,367,B,66.01887724414895,52.65603239563964,3.3009438622074474,0.8271190227066383,B,603,Incorrect
1,new_learn,38,368,B,49.05239577053008,24.206061698678482,2.4526197885265044,0.38022792802454797,A,744,Incorrect
1,new_learn,38,369,A,27.688562908808883,40.936827312850696,1.3844281454404441,0.6430341797366287,B,533,Correct
1,new_learn,38,370,B,78.87668964398027,52.17783009294599,3.943834482199014,0.8196074385012777,B,1308,Incorrect
1,new_learn,38,371,A,33.00150756248408,61.86308863487633,1.650075378124204,0.9717431239185085,A,7344,Incorrect
1,new_learn,38,372,B,38.40353249202876,26.572571346291923,1.920176624601438,0.4174009746425068,B,1083,Correct
1,new_learn,38,373,A,14.825118698856237,40.708848831652,0.741255934942812,0.6394531021280767,B,2213,Correct
1,new_learn,38,374,A,47.92282415678239,76.41090349046506,2.3961412078391193,1.2002596652990185,A,2775,Incorrect
1,new_learn,38,375,A,11.259416747162167,36.89706944919597,0.5629708373581083,0.5795778116029322,B,1303,Incorrect
1,new_learn,38,376,A,58.151675059873526,67.92442391474866,2.907583752993676,1.066954355849466,B,2682,Incorrect
1,new_learn,38,377,B,71.93184967316421,61.554882997863345,3.5965924836582106,0.9669018410933338,A,743,Incorrect
1,new_learn,38,378,A,62.02716628977128,79.14314960563996,3.101358314488564,1.243177686915182,A,1093,Correct
1,new_learn,38,379,B,73.7831936826886,48.123655781623825,3.68915968413443,0.7559246173371668,B,3139,Incorrect
1,new_learn,38,380,B,34.81389711912085,23.551503537965086,1.7406948559560425,0.3699461524793257,B,827,Incorrect
1,new_learn,38,381,A,29.366910995548537,48.08561385437362,1.468345549777427,0.7553270561412786,A,1112,Incorrect
1,new_learn,38,382,B,52.30891214749337,30.97676595969214,2.615445607374669,0.4865819018546961,A,928,Correct
1,new_learn,38,383,A,20.594233103766292,51.59221481151153,1.0297116551883148,0.8104086151713557,B,1154,Incorrect
1,new_learn,38,384,A,50.450903533832005,61.708453697024886,2.5225451766916,0.9693141239947964,A,1071,Correct
1,new_learn,38,385,B,80.7705115843625,50.72657545570488,4.038525579218125,0.7968111839670539,A,1467,Correct
1,new_learn,38,386,B,43.112107489803336,34.53743834661715,2.155605374490167,0.5425128129177142,A,1160,Correct
1,new_learn,38,387,A,26.191846428222505,55.35886454243851,1.3095923214111251,0.8695750107879865,B,1815,Incorrect
1,new_learn,38,388,B,68.96290868532681,47.28360407065511,3.4481454342663405,0.7427291159180927,B,1148,Correct
1,new_learn,38,389,B,85.01771683856828,56.88116683373251,4.2508858419284135,0.8934872792623472,B,972,Correct
1,new_learn,38,390,B,63.960098556249854,52.368417956226594,3.1980049278124927,0.8226011856570064,B,2327,Correct
1,new_learn,38,391,A,28.396650924020875,59.089228312531915,1.419832546201044,0.9281714278647014,B,683,Correct
1,new_learn,38,392,A,47.869474441551176,54.91442122565636,2.393473722077559,0.8625937114932872,B,1763,Correct
1,new_learn,38,393,B,46.77128202653353,22.948481801103807,2.3385641013266762,0.36047390918693395,A,1761,Incorrect
1,new_learn,38,394,A,68.83444235521293,88.84908059122202,3.441722117760646,1.395638094317953,A,792,Correct
1,new_learn,38,395,B,82.38758115808056,56.76180813390248,4.119379057904029,0.891612397189707,A,756,Incorrect
1,new_learn,38,396,B,44.08112378610059,35.22801512507256,2.2040561893050294,0.5533603675873903,A,708,Incorrect
1,new_learn,38,397,A,42.00502958812993,57.06076376669712,2.1002514794064964,0.8963083812883916,A,531,Incorrect
1,new_learn,38,398,B,57.30088435005922,45.305637988592665,2.865044217502961,0.7116592973558069,B,792,Correct
1,new_learn,38,399,B,64.19053773960718,33.545945385156614,3.209526886980359,0.5269384778986622,B,740,Correct
1,new_learn,38,400,B,35.242472776542044,23.387856518627668,1.7621236388271024,0.36737559111066415,B,750,Incorrect
1,new_learn,38,401,B,63.687570048459314,52.4041458659024,3.1843785024229656,0.8231623983498346,100,755,Incorrect
1,new_learn,38,402,B,45.87468036133557,36.945309426098596,2.2937340180667785,0.5803355633881654,A,5438,Incorrect
1,new_learn,38,403,B,32.65043332584138,13.896935746225886,1.632521666292069,0.21829255623876317,A,2377,Correct
1,new_learn,38,404,A,50.56483901492806,67.72434808717375,2.528241950746403,1.063811572099115,B,1569,Correct
1,new_learn,38,405,B,47.26884552387932,25.857494847100092,2.363442276193966,0.40616857925942795,A,814,Incorrect
1,new_learn,38,406,B,39.19388132890198,13.281673075851138,1.9596940664450988,0.20862803281237643,B,593,Incorrect
1,new_learn,38,407,B,54.67012775842345,42.730299605001825,2.7335063879211727,0.6712059766238229,B,385,Correct
1,new_learn,38,408,B,70.93621604040472,38.11276975285722,3.546810802020236,0.5986739873176776,B,1881,Correct
1,new_learn,38,409,A,23.018322018054203,53.482745084111194,1.1509161009027102,0.8401049952502967,A,905,Incorrect
1,new_learn,38,410,B,62.05306420857706,35.3387346881201,3.102653210428853,0.5550995464167845,A,984,Correct
1,new_learn,38,411,A,31.111328639733976,41.39280748344427,1.5555664319866989,0.6501966995072257,A,1839,Incorrect
1,new_learn,38,412,B,43.0764072927644,19.514232500551255,2.15382036463822,0.306528847320875,B,1269,Incorrect
1,new_learn,38,413,B,37.36928679759153,17.492353588801286,1.8684643398795766,0.27476924764286587,B,730,Correct
1,new_learn,38,414,A,58.18239202623754,84.481359364018,2.909119601311877,1.3270300897163914,A,3231,Correct
1,new_learn,38,415,A,37.006505861920715,69.12763010212899,1.8503252930960357,1.0858542744446054,A,7814,Incorrect
1,new_learn,38,416,A,21.055096749454005,49.990808981416066,1.0527548374727003,0.7852537912151368,B,795,Incorrect
1,new_learn,38,417,B,47.11185395560182,17.763297354727992,2.355592697780091,0.2790252223657223,A,332,Incorrect
1,new_learn,38,418,B,77.38942379636073,66.19029526360949,3.8694711898180367,1.0397147266954743,A,614,Correct
1,new_learn,38,419,B,58.33401775274544,50.61009475891735,2.916700887637272,0.7949815094604903,B,1072,Incorrect
1,new_learn,38,420,A,16.42939355570465,40.95024185397637,0.8214696777852325,0.6432448948558871,B,901,Incorrect
1,new_learn,38,421,A,64.43506015696221,86.01053783646952,3.2217530078481103,1.351050368991798,A,1033,Correct
1,new_learn,38,422,B,48.088687463736505,40.232980272671995,2.404434373186825,0.6319781762832472,B,16268,Incorrect
1,new_learn,38,423,B,44.73373668899565,36.4483894849378,2.2366868344497823,0.5725299632053004,A,1467,Correct
1,new_learn,38,424,A,45.75853147433,69.08443594254302,2.2879265737164998,1.0851757821724388,A,769,Correct
1,new_learn,38,425,B,51.33394879513709,32.33043039528734,2.5666974397568545,0.5078452130861543,A,910,Correct
1,new_learn,38,426,B,87.16710711024098,66.4399408990877,4.358355355512049,1.0436361511675698,B,1283,Correct
1,new_learn,38,427,B,31.65661991424201,15.593290972491037,1.5828309957121005,0.2449388418223294,A,755,Incorrect
1,new_learn,38,428,B,53.87185726010223,23.917392556747153,2.6935928630051116,0.3756935237465002,B,841,Incorrect
1,new_learn,38,429,A,21.234126545267756,45.45264104183572,1.0617063272633878,0.713968415916425,B,663,Incorrect
1,new_learn,38,430,B,42.99606633230422,31.350652951091547,2.149803316615211,0.4924549049819618,A,2608,Incorrect
1,new_learn,38,431,A,62.531744387308294,81.7158031203986,3.126587219365415,1.2835888338261705,A,813,Incorrect
1,new_learn,38,432,A,34.53475594750604,47.36397051681408,1.726737797375302,0.7439915091023332,A,670,Correct
1,new_learn,38,433,A,47.50742470633772,64.29702274676231,2.3753712353168863,1.0099752715446215,A,733,Incorrect
1,new_learn,38,434,B,56.69307031561304,37.356112086683474,2.8346535157806523,0.5867884364910084,B,2822,Correct
1,new_learn,38,435,A,48.35192759483814,70.79819713145093,2.417596379741907,1.112095479977841,A,820,Incorrect
1,new_learn,38,436,A,56.11154654597733,64.48282475155605,2.8055773272988667,1.0128938426110328,B,686,Correct
1,new_learn,38,437,B,59.610227011023504,32.9739865452631,2.980511350551175,0.5179541694508362,B,600,Incorrect
1,new_learn,38,438,B,48.80767324021377,20.669553532384175,2.4403836620106882,0.3246765876515954,B,781,Correct
1,new_learn,38,439,B,72.31408872420826,59.76498676686147,3.615704436210413,0.9387862168433159,A,1074,Incorrect
1,new_learn,38,440,B,36.30229814388791,19.31278162981337,1.8151149071943957,0.303364464443028,B,1253,Incorrect
1,new_learn,38,441,A,42.853470694848184,74.29517606799863,2.142673534742409,1.1670258966619234,B,1144,Incorrect
1,new_learn,38,442,B,51.27147462243671,27.02936811853109,2.5635737311218354,0.4245763215617572,B,895,Correct
1,new_learn,38,443,B,64.44069794150307,46.0229187429189,3.2220348970751536,0.7229263170975699,A,1518,Correct
1,new_learn,38,444,A,32.166099385412764,44.15639661804855,1.6083049692706382,0.6936070561212926,B,2480,Correct
1,new_learn,38,445,B,53.488300865636965,44.18829973777328,2.674415043281848,0.6941081891540616,A,1333,Correct
1,new_learn,38,446,A,18.733964506045258,32.52327885825147,0.9366982253022629,0.5108744696586753,B,1757,Correct
1,new_learn,38,447,A,65.14807416100557,82.57906955767042,3.2574037080502785,1.2971489913132896,A,1640,Correct
1,new_learn,38,448,A,52.334363343548816,60.26554645008262,2.616718167177441,0.9466489899607698,A,1461,Incorrect
1,new_learn,38,449,A,61.4679922537281,80.18891067551803,3.073399612686405,1.2596044633878778,A,716,Correct
1,new_learn,38,450,B,84.67979032261375,58.07165295281152,4.233989516130688,0.9121873914918436,B,1481,Correct
1,new_learn,38,451,B,70.54338230273785,61.64610045123455,3.527169115136893,0.9683346815002845,B,922,Incorrect
1,new_learn,38,452,A,24.4104983375573,48.69036477885211,1.220524916877865,0.7648264614492449,B,1216,Incorrect
1,new_learn,38,453,A,14.546688063098571,38.97928108507626,0.7273344031549286,0.6122851154954357,B,1541,Incorrect
1,new_learn,38,454,B,62.948667949393844,41.25891596253475,3.147433397469692,0.6480935364148891,A,1001,Incorrect
1,new_learn,38,455,A,17.57412747816807,48.29386744392228,0.8787063739084034,0.7585982958763275,B,1574,Correct
1,new_learn,38,456,B,80.58783880226683,59.18138340338068,4.029391940113341,0.9296189966467082,B,6087,Correct
1,new_learn,38,457,B,49.486767696137875,26.44167221722242,2.4743383848068934,0.4153448159312764,A,2957,Incorrect
1,new_learn,38,458,A,59.16311608236853,68.38107797439972,2.958155804118427,1.0741274610446248,A,4439,Incorrect
1,new_learn,38,459,B,33.555868301227406,10.491681583261343,1.6777934150613703,0.16480294892888583,B,6007,Correct
1,new_learn,38,460,B,76.56896281509697,53.67512316292823,3.828448140754848,0.8431268630459132,B,2712,Incorrect
1,new_learn,38,461,B,69.95861326745215,47.49578660374448,3.4979306633726077,0.7460620713539607,B,1905,Incorrect
1,new_learn,38,462,B,34.63230152945445,11.57915598176437,1.7316150764727225,0.1818849568354063,B,2764,Incorrect
1,new_learn,38,463,A,34.07049398352411,47.89346048961778,1.7035246991762054,0.7523087181458812,A,4781,Incorrect
1,new_learn,38,464,B,85.79829709190102,60.103632608270175,4.289914854595051,0.9441056532810076,A,1167,Incorrect
1,new_learn,38,465,A,38.79165110912464,56.00657362142561,1.9395825554562323,0.8797492012090329,B,1204,Incorrect
1,new_learn,38,466,B,59.60194439609968,29.442632625713003,2.9800972198049838,0.4624837917964157,A,1228,Correct
1,new_learn,38,467,A,33.479443148408954,66.4539632216076,1.6739721574204478,1.0438564132946435,A,1059,Correct
1,new_learn,38,468,A,37.40643218312537,54.206396478847964,1.8703216091562682,0.8514720847776219,B,1128,Correct
1,new_learn,38,469,B,55.430768555613874,46.20343250640021,2.7715384277806936,0.7257618206636935,B,1018,Correct
1,new_learn,38,470,B,46.80714699442959,16.96628569361993,2.3403573497214794,0.2665057924689099,A,1678,Correct
1,new_learn,38,471,B,59.90161661242935,34.24225869809268,2.9950808306214673,0.5378761418412457,B,1105,Correct
1,new_learn,38,472,B,55.20195281706935,26.34888073382656,2.760097640853467,0.41388725071851584,A,1481,Correct
1,new_learn,38,473,B,53.82902651241086,23.873391961597008,2.691451325620543,0.37500236401411385,B,1051,Correct
1,new_learn,38,474,A,51.11527419552062,62.29944922311335,2.555763709776031,0.9785974600101162,A,926,Incorrect
1,new_learn,38,475,B,60.30990251637135,51.48937343141284,3.015495125818568,0.8087931865503403,B,766,Correct
1,new_learn,38,476,B,81.99108871778057,56.06692409524446,4.099554435889029,0.8806971842349828,B,919,Incorrect
1,new_learn,38,477,A,44.72912249253534,60.56709505035516,2.236456124626767,0.9513857042973525,A,499,Incorrect
1,new_learn,38,478,A,22.546920135796423,50.486567471442385,1.127346006789821,0.793041147366244,B,1927,Incorrect
1,new_learn,38,479,B,67.65166611345393,44.99587704290078,3.3825833056726964,0.7067935837990336,B,835,Incorrect
1,new_learn,38,480,A,46.10698988432262,54.893957251808004,2.3053494942161312,0.8622722641437609,B,473,Correct
1,new_learn,38,481,B,80.6539300648894,54.0358655696953,4.03269650324447,0.8487933915206018,B,1925,Correct
1,new_learn,38,482,B,77.77385183439085,52.71204569628028,3.8886925917195425,0.8279988775756181,B,792,Incorrect
1,new_learn,38,483,A,57.99555673544221,66.03033962385531,2.8997778367721105,1.0372021493817143,A,555,Correct
1,new_learn,38,484,A,50.140893372527785,67.07782442274079,2.5070446686263894,1.0536560021263424,A,1403,Correct
1,new_learn,38,485,A,20.854839002340736,42.78284332803538,1.0427419501170367,0.6720313314951953,B,1506,Correct
1,new_learn,38,486,B,86.45479318258893,63.85343966270975,4.3227396591294465,1.0030074847540402,A,1048,Incorrect
1,new_learn,38,487,B,74.57804875897874,59.00709690287057,3.7289024379489373,0.9268813106985961,B,461,Correct
1,new_learn,38,488,A,46.2395986425735,59.212693439319665,2.3119799321286747,0.9301108135411561,B,1006,Correct
1,new_learn,38,489,B,82.14952824405032,55.496681177710116,4.107476412202516,0.8717398294325454,B,1440,Correct
1,new_learn,38,490,A,14.015303798546768,37.59323674189201,0.7007651899273384,0.5905131818649492,A,1923,Correct
1,new_learn,38,491,A,38.01909547833392,65.43532663768137,1.9009547739166959,1.0278557072509416,B,1080,Incorrect
1,new_learn,38,492,A,33.49080161238951,52.07199330999481,1.6745400806194755,0.8179449582022827,A,473,Correct
1,new_learn,38,493,B,32.36832750639831,12.852154212944711,1.6184163753199154,0.2018811662909511,B,2039,Correct
1,new_learn,38,494,B,71.01331036999518,55.3499714089734,3.550665518499759,0.8694353177741797,B,1450,Correct
1,new_learn,38,495,A,24.64625553844268,37.40020392958351,1.232312776922134,0.5874810295396984,A,1873,Incorrect
1,new_learn,38,496,A,53.21092280973059,78.84278685093675,2.6605461404865296,1.238459599797244,A,1435,Incorrect
1,new_learn,38,497,A,37.366413719162345,54.23877470099612,1.8683206859581174,0.8519806807018067,B,437,Incorrect
1,new_learn,38,498,A,32.71177891793381,63.2420325837002,1.6355889458966908,0.9934035248151944,A,874,Incorrect
1,new_learn,38,499,B,66.51071392010373,44.32889766095737,3.3255356960051863,0.6963166961669872,B,544,Incorrect
1,new_learn,38,500,A,59.48871530698786,84.41298769842736,2.9744357653493925,1.3259561101047248,A,305,Incorrect
1,new_learn,38,501,A,68.55047568583227,88.73412200473551,3.4275237842916138,1.3938323290640875,B,592,Incorrect
1,new_learn,38,502,A,14.160601992338933,33.08051302617379,0.7080300996169467,0.5196274835000452,B,1533,Incorrect
1,new_learn,38,503,B,88.40389171125258,64.35019088149124,4.420194585562629,1.010810434651969,B,929,Incorrect
1,new_learn,38,504,A,66.19669354849424,80.16256857028893,3.309834677424712,1.2591906825665387,A,602,Incorrect
1,new_learn,38,505,B,63.47078021268763,48.47693394044598,3.1735390106343813,0.761473897679314,A,399,Correct
1,new_learn,38,506,B,59.70350040644379,52.123539083324886,2.9851750203221896,0.8187546373163697,A,436,Correct
1,new_learn,38,507,A,51.495555746050314,59.51670966556332,2.5747777873025153,0.9348862892558518,A,592,Incorrect
1,new_learn,38,508,A,31.528108268519226,62.55471106853881,1.5764054134259613,0.9826071037017682,B,1158,Correct
1,new_learn,38,509,A,20.167677912938178,42.09147007397212,1.008383895646909,0.6611712658159272,A,922,Correct
1,new_learn,38,510,B,59.731422134516485,49.83554240540968,2.9865711067258243,0.7828148695424884,A,1279,Correct
1,new_learn,38,511,A,46.845979481061676,73.9216347451011,2.342298974053084,1.161158323282788,A,2378,Correct
1,new_learn,38,512,A,55.330901405982395,79.87432182150442,2.76654507029912,1.254662913224526,A,732,Incorrect
1,new_learn,38,513,B,76.53690915382444,51.954565418943226,3.8268454576912223,0.8161004052030117,B,1016,Correct
1,new_learn,38,514,B,79.75382336128149,51.827260559737724,3.9876911680640745,0.8141007051507803,B,1829,Correct
1,new_learn,38,515,A,34.07740483606727,66.13013045592028,1.7038702418033633,1.0387696601062688,A,1195,Correct
1,new_learn,38,516,A,24.677272973647852,46.04297013490897,1.2338636486823926,0.7232412836264213,B,4427,Correct
1,new_learn,38,517,B,34.803784289879985,11.913294704635906,1.7401892144939992,0.18713359562067172,B,1702,Incorrect
1,new_learn,38,518,B,65.26019692139377,40.24513418983022,3.263009846069689,0.6321690895675302,B,1202,Incorrect
1,new_learn,38,519,A,43.713279007604804,63.06784311235658,2.18566395038024,0.9906673629976652,A,1251,Incorrect
1,new_learn,38,520,A,44.36865832655194,69.75739922368945,2.218432916327597,1.0957466646733656,A,997,Incorrect
1,new_learn,38,521,A,45.15174934181435,52.15019508692651,2.2575874670907177,0.8191733488418141,B,580,Incorrect
1,new_learn,38,522,B,49.0803118465356,18.558523367894015,2.45401559232678,0.2915166033702517,A,562,Correct
1,new_learn,38,523,A,33.063793681911754,44.43326699275343,1.6531896840955878,0.6979561257971402,B,1208,Correct
1,new_learn,38,524,B,52.74822006781014,41.9988176754835,2.637411003390507,0.6597158853437807,A,767,Correct
1,new_learn,38,525,A,19.554742377838345,42.17021533404242,0.9777371188919173,0.6624081934686366,B,1506,Incorrect
1,new_learn,38,526,B,88.82338762758869,62.99473160468655,4.441169381379434,0.9895189301207202,A,575,Correct
1,new_learn,38,527,A,51.865682079303106,78.8116143968814,2.5932841039651553,1.2379699440339709,B,2006,Correct
1,new_learn,38,528,B,88.94795900682286,68.22151035959178,4.447397950341143,1.0716209788124673,B,1740,Correct
1,new_learn,38,529,B,72.15413047949677,49.49910126623393,3.6077065239748385,0.7775300644864888,A,2181,Correct
1,new_learn,38,530,A,16.548921641218936,34.70968960296912,0.8274460820609468,0.5452185293253491,B,2256,Incorrect
1,new_learn,38,531,B,36.15137573288308,22.342514883687887,1.807568786644154,0.3509554031065724,A,670,Correct
1,new_learn,38,532,B,59.237193216002794,33.71728193462104,2.9618596608001395,0.5296298261241066,A,630,Correct
1,new_learn,38,533,A,30.62849088802394,59.43028850239835,1.5314245444011971,0.9335287887992829,A,1284,Incorrect
1,new_learn,38,534,B,71.35483482209173,55.96664891808695,3.5677417411045864,0.8791220654355056,B,1056,Correct
1,new_learn,38,535,B,58.50700576638589,42.91890754501744,2.925350288319294,0.6741686232176316,B,911,Incorrect
1,new_learn,38,536,B,77.60559558498431,55.30878081171455,3.8802797792492156,0.8687882973854526,A,539,Correct
1,new_learn,38,537,A,57.83868911555366,67.22076797516657,2.891934455777683,1.0559013541972366,B,1666,Incorrect
1,new_learn,38,538,A,52.696773687975906,78.66786530697979,2.634838684398795,1.2357119386099953,A,520,Correct
1,new_learn,38,539,B,62.905362374300914,53.59547700487383,3.1452681187150455,0.8418757841207616,B,809,Incorrect
1,new_learn,38,540,B,70.06910327530309,48.388692648033334,3.5034551637651545,0.7600878066993799,A,292,Correct
1,new_learn,38,541,B,77.06413477535386,45.206769073388315,3.8532067387676934,0.7101062680674349,B,1037,Incorrect
1,new_learn,38,542,A,36.72953779493441,63.2306248663552,1.8364768897467203,0.993224332810168,A,360,Correct
1,new_learn,38,543,A,20.662006302660256,37.12780512323506,1.033100315133013,0.5832021990953439,B,768,Correct
1,new_learn,38,544,A,36.304104420981716,50.36126909966201,1.8152052210490859,0.7910729651447841,B,4296,Incorrect
1,new_learn,38,545,A,45.0379334657696,58.17766334527308,2.2518966732884795,0.9138525988426504,A,517,Incorrect
1,new_learn,38,546,A,40.34238745321187,48.29805406855831,2.0171193726605936,0.7586640592223269,B,783,Correct
1,new_learn,38,547,B,52.293363336592215,34.97605314563099,2.6146681668296106,0.5494025580694024,A,993,Incorrect
1,new_learn,38,548,B,75.03531271140831,57.96730589624579,3.7517656355704156,0.9105483117601904,B,604,Incorrect
1,new_learn,38,549,A,14.27827237702498,36.50491441422281,0.7139136188512489,0.5734178547182326,B,719,Correct
1,new_learn,38,550,A,11.848465348856568,37.399519290189346,0.5924232674428284,0.587470275249243,B,1037,Incorrect
1,new_learn,38,551,B,60.33355496917161,45.02623055549557,3.0166777484585805,0.7072703756599259,A,574,Incorrect
1,new_learn,38,552,A,13.134536652386654,32.54462843368225,0.6567268326193327,0.5112098280053282,B,255,Incorrect
1,new_learn,38,553,A,41.40242774563279,49.230791976651375,2.0701213872816395,0.7733154720212764,B,484,Incorrect
1,new_learn,38,554,A,36.930262058025974,53.18268681652055,1.8465131029012987,0.8353916910047385,B,831,Incorrect
1,new_learn,38,555,B,59.59815941087709,28.41081933328429,2.9799079705438545,0.44627610649956395,B,770,Correct
1,new_learn,38,556,A,31.031865663428817,52.13244912096655,1.551593283171441,0.818894595860361,A,1184,Correct
1,new_learn,38,557,B,33.15472356220771,15.476802325260085,1.6577361781103854,0.24310904243049253,B,1359,Correct
1,new_learn,38,558,A,28.362590845171596,43.81764370172101,1.41812954225858,0.6882859377547089,A,521,Correct
1,new_learn,38,559,B,51.39899117047891,24.205813376845068,2.569949558523945,0.38022402739431005,B,892,Incorrect
1,new_learn,38,560,A,30.48791590414413,45.1434671445498,1.5243957952072065,0.7091119236944492,A,660,Incorrect
1,new_learn,38,561,A,15.458933447453532,37.75515290691855,0.7729466723726766,0.5930565550376733,B,439,Correct
1,new_learn,38,562,B,34.35808245128125,14.184956419257762,1.7179041225640623,0.2228167743911578,A,1000,Incorrect
1,new_learn,38,563,B,59.84100985227079,32.530876543777424,2.992050492613539,0.5109938138238383,B,653,Incorrect
1,new_learn,38,564,A,42.505392377671065,58.64835514802374,2.125269618883553,0.9212462083907825,A,358,Correct
1,new_learn,38,565,B,52.186433703081086,39.93643142454198,2.609321685154054,0.6273199978696682,A,604,Incorrect
1,new_learn,38,566,A,55.35110622619523,65.55669277751484,2.7675553113097613,1.0297621221174185,B,506,Correct
1,new_learn,38,567,A,50.59834377575223,65.05017116293101,2.5299171887876115,1.0218056992011135,B,522,Incorrect
1,new_learn,38,568,B,50.38416597993624,39.6360105870663,2.519208298996812,0.6226009983896738,B,603,Incorrect
1,new_learn,38,569,B,35.21543867788478,22.36823679002019,1.760771933894239,0.3513594418664218,B,1273,Correct
1,new_learn,38,570,B,38.98109268003399,24.785134459670793,1.9490546340016994,0.389323981683685,B,936,Incorrect
1,new_learn,38,571,A,17.9764424451865,43.026288051558026,0.898822122259325,0.6758553522700649,A,1499,Correct
1,new_learn,38,572,A,49.22906496799857,65.42472789306511,2.4614532483999283,1.0276892225598229,A,569,Incorrect
1,new_learn,38,573,B,44.15540283151739,33.408525283941295,2.2077701415758697,0.5247798879964941,B,29,Correct
1,new_learn,38,574,A,50.91842411297202,58.320217395087305,2.545921205648601,0.9160918326208296,B,626,Correct
1,new_learn,38,575,A,29.409122928337382,59.67548553105785,1.470456146416869,0.9373803347188767,A,804,Incorrect
1,new_learn,38,576,B,88.18873524876057,64.80001613541455,4.409436762438029,1.017876273217592,B,511,Incorrect
1,new_learn,38,577,A,35.49263759148721,47.598460161357046,1.7746318795743605,0.7476748638255287,A,723,Incorrect
1,new_learn,38,578,A,49.134781880420945,63.23565384498371,2.456739094021047,0.9933033278217399,A,2424,Correct
1,new_learn,38,579,A,58.548790723218346,68.65380623554067,2.9274395361609176,1.0784114665527584,A,2839,Correct
1,new_learn,38,580,A,33.341037512165194,43.460604379174285,1.6670518756082597,0.6826775771909316,B,1438,Incorrect
1,new_learn,38,581,A,64.38251881959499,85.54101846012708,3.2191259409797497,1.3436751758746204,A,425,Correct
1,new_learn,38,582,B,63.216251995813295,41.58792233325658,3.160812599790665,0.6532615564011088,B,853,Incorrect
1,new_learn,38,583,B,77.0702727854776,55.999110037428366,3.8535136392738796,0.879631963505757,A,610,Correct
1,new_learn,38,584,A,51.86560107183054,64.96697611519083,2.5932800535915272,1.0204988744471353,A,580,Incorrect
1,new_learn,38,585,A,41.45054582568152,66.05679735661421,2.0725272912840764,1.0376177464760443,A,538,Correct
1,new_learn,38,586,A,52.72812340010762,69.73236111767653,2.636406170005381,1.0953533670238156,B,849,Incorrect
1,new_learn,38,587,B,47.51468106049643,18.112663799978588,2.3757340530248214,0.2845130576547726,A,455,Incorrect
1,new_learn,38,588,B,40.9506716746001,18.12274458674941,2.0475335837300053,0.2846714062830807,B,3502,Correct
1,new_learn,38,589,B,59.073046186463344,36.48151193828399,2.953652309323167,0.5730502494858066,A,466,Incorrect
1,new_learn,38,590,A,31.469657515444336,53.14555458393815,1.5734828757722168,0.8348084192592771,B,514,Incorrect
1,new_learn,38,591,B,54.617049909280496,45.25209142601231,2.7308524954640245,0.7108181899176697,A,508,Correct
1,new_learn,38,592,A,11.237429001527385,35.75779341808044,0.5618714500763693,0.5616821055541148,B,1288,Correct
1,new_learn,38,593,A,58.0972940470636,76.68998145955626,2.90486470235318,1.2046434117863971,A,1316,Correct
1,new_learn,38,594,B,41.59716067084533,28.519812750750965,2.079858033542266,0.44798817109757877,B,1744,Correct
1,new_learn,38,595,B,71.41777676767822,42.249008187983605,3.570888838383911,0.6636458687241216,A,804,Correct
1,new_learn,38,596,A,45.82328869312856,66.12466312189943,2.2911644346564284,1.0386837794242958,B,1041,Incorrect
1,new_learn,38,597,A,47.36330738769615,68.7543966034595,2.3681653693848075,1.0799915363571368,A,336,Incorrect
1,new_learn,38,598,A,43.47048843102355,55.600820805900725,2.173524421551177,0.8733756508869011,B,854,Correct
1,new_learn,38,599,A,36.78309203121009,46.92907728438169,1.8391546015605045,0.7371602221818059,A,743,Correct
1,new_learn,38,600,A,46.92907728438169,63.21690796878991,2.3464538642190846,0.9930088682870621,B,944,Incorrect
1,new_learn,38,601,A,48.59774614161733,69.23148114737026,2.4298873070808664,1.0874855628485933,B,2784,Incorrect
1,new_learn,38,602,A,57.08043477252366,75.52200798854635,2.854021738626183,1.1862969274058341,A,648,Correct
1,new_learn,38,603,B,56.06692409524446,18.00891128221943,2.803346204762223,0.2828833169168545,B,1663,Correct
1,new_learn,38,604,B,47.61095389036045,32.34964007619769,2.3805476945180226,0.508146958048283,A,1307,Incorrect
1,new_learn,38,605,B,27.34084149970801,54.551243595309614,1.3670420749854006,0.8568889306160596,A,1241,Incorrect
1,new_learn,38,606,B,38.95307325371475,28.635266843313914,1.9476536626857375,0.4498017197426919,B,527,Correct
1,new_learn,38,607,A,54.825697499642835,62.06724754269258,2.7412848749821417,0.9749500445433108,A,1526,Correct
1,new_learn,38,608,B,56.76180813390248,17.612418841919435,2.838090406695124,0.2766552282286027,B,1344,Correct
1,new_learn,38,609,A,59.51670966556332,48.504444253949686,2.975835483278166,0.7619060286733199,B,2044,Incorrect
1,new_learn,38,610,A,40.79878156011537,79.67944514179115,2.0399390780057685,1.2516017974978098,A,1317,Correct
1,new_learn,38,611,B,64.80001613541455,11.811264751239435,3.2400008067707278,0.1855309128604894,B,733,Correct
1,new_learn,38,612,B,60.41265574614155,19.209241873421135,3.0206327873070777,0.3017380657528464,A,865,Incorrect
1,new_learn,38,613,B,27.75565500321293,44.104838504897565,1.3877827501606463,0.6927971831737522,A,1347,Incorrect
1,new_learn,38,614,A,69.69891639646359,48.80630260923883,3.4849458198231793,0.7666476086303253,B,1018,Incorrect
1,new_learn,38,615,A,78.92360261801906,48.03471231587503,3.946180130900953,0.7545274966442608,A,4304,Correct
1,new_learn,38,616,B,52.17783009294599,21.12331035601973,2.6088915046472994,0.33180418316984395,A,2160,Incorrect
1,new_learn,38,617,B,50.031882259322856,19.389595415247484,2.501594112966143,0.30457105256309913,B,801,Correct
1,new_learn,38,618,A,41.5394506341341,84.32557750815613,2.076972531706705,1.3245830740466997,A,786,Correct
1,new_learn,38,619,B,51.07069304621389,18.39128735253385,2.5535346523106943,0.2888896661838961,B,602,Correct
1,new_learn,38,620,B,16.52745726738911,63.66063908207977,0.8263728633694555,0.9999789803154654,A,1040,Incorrect
1,new_learn,38,621,A,46.04297013490897,75.32272702635214,2.302148506745448,1.1831666293716863,A,2579,Correct
1,new_learn,38,622,A,66.12209507901595,43.700359520354034,3.3061047539507973,0.686443642141885,B,713,Incorrect
1,new_learn,38,623,A,67.67126734536674,51.12643408855162,3.383563367268337,0.8030921486841825,A,455,Correct
1,new_learn,38,624,B,41.25891596253475,37.051332050606156,2.0629457981267376,0.5820009628795018,B,2254,Correct
1,new_learn,38,625,B,59.10907642294575,13.670655828478658,2.9554538211472874,0.21473815960251516,B,1397,Correct
1,new_learn,38,626,A,79.7326234691215,38.11967169514585,3.9866311734560753,0.5987824027736247,A,1620,Correct
1,new_learn,38,627,B,44.93701351530267,40.32682476616815,2.2468506757651334,0.633452282139984,B,1092,Correct
1,new_learn,38,628,A,45.1434671445498,69.51208409585587,2.25717335722749,1.0918932636562835,A,789,Correct
1,new_learn,38,629,B,33.42386515376798,44.324010925960266,1.6711932576883988,0.6962399355131526,B,848,Correct
1,new_learn,38,630,A,63.2306248663552,63.27046220506559,3.16153124331776,0.9938500962633235,A,872,Correct
1,new_learn,38,631,B,64.35019088149124,11.596108288747416,3.217509544074562,0.182151243050803,B,879,Correct
1,new_learn,38,632,B,50.61009475891735,41.66598224725456,2.530504737945867,0.6544877186628884,A,1207,Incorrect
1,new_learn,38,633,A,58.03316747917125,62.31888160538977,2.901658373958562,0.9789027031571231,A,703,Correct
1,new_learn,38,634,A,45.45264104183572,78.76587345473224,2.2726320520917858,1.2372514469948506,A,626,Correct
1,new_learn,38,635,B,46.40084449828509,42.74318301386503,2.3200422249142547,0.671408348737012,A,801,Incorrect
1,new_learn,38,636,B,36.196195496009366,38.562007801490246,1.8098097748004682,0.6057306020841703,B,681,Correct
1,new_learn,38,637,A,54.12367393304754,73.19127941096562,2.706183696652377,1.1496859285216372,A,655,Correct
1,new_learn,38,638,A,42.09147007397212,79.83232208706183,2.1045735036986057,1.254003182938638,A,614,Correct
1,new_learn,38,639,A,46.20145371535799,62.4176985816007,2.3100726857678997,0.9804549165896941,A,2501,Correct
1,new_learn,38,640,B,67.09677903910861,16.235799389358604,3.3548389519554305,0.2550313404338332,B,543,Correct
1,new_learn,38,641,A,63.11360364962421,54.13873872421634,3.155680182481211,0.8504093192530764,A,674,Correct
1,new_learn,38,642,A,79.16254501000671,48.53610278731747,3.9581272505003358,0.762403319752578,B,1009,Incorrect
1,new_learn,38,643,A,68.65380623554067,41.451209276781654,3.4326903117770335,0.6511140727317517,A,663,Correct
1,new_learn,38,644,B,61.49553773936623,19.951156205617053,3.074776886968311,0.31339202883094475,B,606,Correct
1,new_learn,38,645,A,57.06076376669712,57.99497041187007,2.853038188334856,0.9109828649554422,A,787,Correct
1,new_learn,38,646,A,83.38962484818856,34.11416298491349,4.169481242409428,0.5358640190838453,A,2049,Correct
1,new_learn,38,647,B,63.85343966270975,13.54520681741107,3.1926719831354875,0.21276761114466503,B,747,Correct
1,new_learn,38,648,A,45.894727026547336,73.74509227177029,2.294736351327367,1.1583852005964748,A,829,Correct
1,new_learn,38,649,A,44.71030609032277,77.55874932355938,2.2355153045161384,1.2182899854825326,A,701,Correct
1,new_learn,38,650,A,60.26554645008262,47.665636656451184,3.013277322504131,0.7487300697429368,A,1115,Correct
1,new_learn,38,651,B,39.6360105870663,49.61583402006376,1.981800529353315,0.7793636982958142,A,557,Incorrect
1,new_learn,38,652,A,83.02164143719904,42.96675731840827,4.1510820718599515,0.6749202457004345,B,1024,Incorrect
1,new_learn,38,653,A,67.06483062134659,44.237526298541596,3.3532415310673294,0.6948814381624178,A,437,Correct
1,new_learn,38,654,B,21.77043807446037,47.334220295567185,1.0885219037230185,0.7435241937197739,A,1580,Incorrect
1,new_learn,38,655,A,65.55669277751484,44.64889377380477,3.277834638875742,0.7013431833534806,B,357,Incorrect
1,new_learn,38,656,A,51.94204704221235,58.4478283105981,2.597102352110618,0.9180963401942626,A,503,Correct
1,new_learn,38,657,B,49.87539083107038,19.034252493056755,2.4937695415535193,0.2989893389938016,B,861,Correct
1,new_learn,38,658,B,25.857494847100092,52.73115447612068,1.2928747423550047,0.8282990375874462,A,1292,Incorrect
1,new_learn,38,659,B,54.02060174900387,16.572326952556494,2.7010300874501936,0.260317503035198,B,901,Correct
1,new_learn,38,660,A,57.43820100059479,61.2265015084543,2.8719100500297396,0.961743636719822,A,867,Correct
1,new_learn,38,661,B,48.24506499081865,44.09615198819541,2.4122532495409326,0.6926607356884683,A,825,Incorrect
1,new_learn,38,662,A,43.531257298153946,76.59128337119876,2.176562864907697,1.2030930658398604,A,1104,Correct
1,new_learn,38,663,B,23.133961749613714,48.783747289782156,1.1566980874806858,0.7662933105008032,B,1919,Correct
1,new_learn,38,664,A,41.39280748344427,68.88867136026602,2.069640374172214,1.0821007193048664,A,1025,Correct
1,new_learn,38,665,A,54.38372092933357,72.7107666013867,2.7191860464666786,1.1421380509589925,A,1016,Correct
1,new_learn,38,666,A,56.93031771709307,70.84319106987626,2.8465158858546533,1.1128022431099065,A,2049,Correct
1,new_learn,38,667,B,38.72406619455273,31.98663797808186,1.9362033097276363,0.5024449344248912,B,1038,Correct
1,new_learn,38,668,B,23.206086421019197,45.68662185877902,1.1603043210509598,0.7176437779943751,A,779,Incorrect
1,new_learn,38,669,A,44.15639661804855,67.83390061458724,2.2078198309024275,1.0655324191756372,A,928,Correct
1,new_learn,38,670,A,49.881094079209916,62.71696655259048,2.4940547039604954,0.985155806885275,B,9298,Incorrect
1,new_learn,38,671,A,48.07617278503344,60.606438486025525,2.403808639251672,0.9520037095396974,A,1728,Correct
1,new_learn,38,672,B,21.622742925980944,52.97170484670137,1.0811371462990471,0.8320775939726194,B,7470,Correct
1,new_learn,38,673,B,26.102173069303397,52.74853157689927,1.30510865346517,0.8285719964481798,B,1360,Correct
1,new_learn,38,674,B,30.53567620407251,59.92707347582613,1.5267838102036253,0.9413322689139556,A,4213,Incorrect
1,new_learn,38,675,B,39.93049467158239,50.060191547547944,1.9965247335791192,0.7863436500153724,B,481,Correct
1,new_learn,38,676,A,30.614197902377857,88.65605037259238,1.5307098951188929,1.3926059827341142,A,7841,Correct
1,new_learn,38,677,A,39.44946741787665,83.1683955962861,1.9724733708938322,1.3064061030807108,B,804,Incorrect
1,new_learn,38,678,A,66.03033962385531,42.00444326455779,3.3015169811927656,0.6598042518903201,B,648,Incorrect
1,new_learn,38,679,B,38.494334892249704,30.767082035631688,1.924716744612485,0.483288194477675,B,471,Correct
1,new_learn,38,680,B,67.28392905712643,18.391793887433593,3.3641964528563215,0.2888976228154952,B,838,Correct
1,new_learn,38,681,B,66.81548299049163,19.657716699056948,3.3407741495245817,0.30878269184053353,B,428,Correct
1,new_learn,38,682,B,24.785134459670793,61.01890731996601,1.2392567229835396,0.9584827548324084,A,7727,Incorrect
1,new_learn,38,683,B,23.40355730689155,59.38609145524374,1.1701778653445774,0.9328345432060264,B,841,Correct
1,new_learn,38,684,B,52.41273321295068,38.076706033231794,2.6206366606475338,0.5981074997344957,A,937,Incorrect
1,new_learn,38,685,A,42.78284332803538,79.14516099765926,2.139142166401769,1.243209281787139,A,754,Correct
1,new_learn,38,686,B,23.54531478780976,54.71343409406632,1.177265739390488,0.8594366130129403,A,1308,Incorrect
1,new_learn,38,687,A,85.69514991807813,42.807637012630174,4.284757495903906,0.6724207897820873,B,314,Incorrect
1,new_learn,38,688,B,51.36703798490366,31.40566966406908,2.568351899245183,0.4933191054885363,107,768,Incorrect
1,new_learn,38,689,A,59.93936084471211,71.92770666922554,2.9969680422356055,1.1298377743080026,A,702,Correct
1,new_learn,38,690,A,79.22879583106037,36.34510842182755,3.9614397915530186,0.5709076280596896,B,637,Incorrect
1,new_learn,38,691,A,84.41298769842736,40.51128469301214,4.2206493849213675,0.6363497718952579,A,403,Correct
1,new_learn,38,692,B,47.49578660374448,30.04138673254785,2.374789330187224,0.471888999313111,B,823,Correct
1,new_learn,38,693,A,54.19373200198423,71.13391726456157,2.7096866000992117,1.117368959497054,B,1441,Incorrect
1,new_learn,38,694,B,48.47693394044598,36.52921978731237,2.423846697022299,0.5737996426259373,A,489,Incorrect
1,new_learn,38,695,B,42.6124781216897,49.66307693942573,2.1306239060844847,0.7801057883378226,B,2585,Correct
1,new_learn,38,696,A,68.43348548825495,51.425369820288964,3.4216742744127475,0.8077878201777904,B,630,Incorrect
1,new_learn,38,697,B,58.72539723475378,31.22035004810759,2.936269861737689,0.4904081117681827,B,726,Correct
1,new_learn,38,698,A,37.251526602633575,85.28157110795507,1.862576330131679,1.3395997863967362,A,964,Correct
1,new_learn,38,699,B,59.79198200541888,20.85969112573096,2.989599100270944,0.32766326198374296,B,654,Correct
1,new_learn,38,700,B,51.13004579771881,27.62967806059727,2.5565022898859406,0.43400596808111735,B,747,Correct
1,new_learn,38,701,B,29.155124716966114,43.0781602337383,1.4577562358483056,0.6766701586023811,B,1805,Correct
1,new_learn,38,702,A,46.70320246599893,61.868016273794325,2.3351601232999464,0.9718205270896301,A,742,Correct
1,new_learn,38,703,B,12.006927333253032,68.25540718489937,0.6003463666626516,1.072153428899299,B,1605,Correct
1,new_learn,38,704,A,58.852098527333034,62.79859444477996,2.9426049263666516,0.9864380148174275,A,1087,Correct
1,new_learn,38,705,A,69.12763010212899,62.993494138079285,3.4563815051064495,0.9894994920407079,B,1907,Incorrect
1,new_learn,38,706,A,40.43330183788095,79.13705856403098,2.0216650918940475,1.2430820090573247,A,848,Correct
1,new_learn,38,707,A,34.10360979134701,79.17668518235178,1.7051804895673508,1.243704462522341,A,596,Correct
1,new_learn,38,708,B,18.362383261499286,56.500341219967055,0.9181191630749643,0.8875052845098255,B,887,Correct
1,new_learn,38,709,A,68.69740774291763,55.90296129123777,3.4348703871458817,0.8781216625323359,A,2766,Correct
1,new_learn,38,710,A,47.36397051681408,65.46524405249396,2.368198525840704,1.0283256489038897,A,805,Correct
1,new_learn,38,711,B,21.290738829593188,48.460112127243605,1.0645369414796593,0.7612096612554308,B,1045,Correct
1,new_learn,38,712,B,31.969477754430898,49.142818357770466,1.598473887721545,0.7719335856473465,A,1989,Incorrect
1,new_learn,38,713,A,65.6965521097644,63.12293983129916,3.28482760548822,0.9915328202349999,B,473,Incorrect
1,new_learn,38,714,B,29.31290009400923,57.60442814533437,1.4656450047004614,0.9048482413781179,B,993,Correct
1,new_learn,38,715,A,50.48353326155552,64.25871666516585,2.524176663077776,1.0093735610219652,A,787,Correct
1,new_learn,38,716,A,53.78360392222112,64.19541341339288,2.6891801961110557,1.0083791958683739,A,1795,Correct
1,new_learn,38,717,B,46.554290350172266,38.08926487917905,2.327714517508613,0.5983047736253231,B,943,Correct
1,new_learn,38,718,A,64.29702274676231,52.49257529366228,3.2148511373381154,0.8245514445528924,A,1748,Correct
1,new_learn,38,719,A,42.75274927539016,81.7391038667001,2.137637463769508,1.2839548410931902,B,1200,Incorrect
1,new_learn,38,720,A,33.03518093738586,87.25027832316138,1.651759046869293,1.370524167018543,A,367,Correct
1,new_learn,38,721,B,32.97218628447145,53.68779066822337,1.6486093142235723,0.843325843753786,B,809,Correct
1,new_learn,38,722,B,27.89751937254883,45.26457602776,1.3948759686274417,0.7110142975833375,A,979,Incorrect
1,new_learn,38,723,B,39.71261032841109,27.60492777031314,1.9856305164205543,0.4336171914304632,B,2094,Correct
1,new_learn,38,724,B,11.447272203561027,68.74503618713894,0.5723636101780514,1.0798445032814008,B,2364,Correct
1,new_learn,38,725,A,47.89346048961778,65.9295060164759,2.394673024480889,1.0356182587808238,A,1916,Correct
1,new_learn,38,726,A,32.52327885825147,81.26603549395475,1.6261639429125736,1.2765239004708782,A,1423,Correct
1,new_learn,38,727,A,44.224552654189395,64.45267946570468,2.2112276327094698,1.0124203215681775,B,979,Incorrect
1,new_learn,38,728,B,10.548143158711476,67.52345961336437,0.5274071579355738,1.060656023331563,A,316,Incorrect
1,new_learn,38,729,B,17.763297354727996,52.88814604439818,0.8881648677363998,0.8307650553753271,B,5863,Correct
1,new_learn,38,730,A,51.052155101334456,64.87656128860735,2.5526077550667226,1.019078641672284,A,5164,Correct
1,new_learn,38,731,A,60.126312571347604,66.74038054949256,3.00631562856738,1.0483554461603646,A,1251,Correct
1,new_learn,38,732,B,29.442632625713003,40.39805560390032,1.47213163128565,0.634571173522626,B,857,Correct
1,new_learn,38,733,A,39.61910675337384,70.6479639116995,1.9809553376686921,1.10973562208036,A,898,Correct
1,new_learn,38,734,B,45.25209142601231,45.382950090719504,2.2626045713006158,0.7128737130161832,B,777,Correct
1,new_learn,38,735,A,52.07199330999481,66.5091983876105,2.6035996654997406,1.0447240452533162,A,942,Correct
1,new_learn,38,736,B,62.86837856180201,20.680553320001934,3.143418928090101,0.32484937191145047,A,525,Incorrect
1,new_learn,38,737,B,53.47874347409734,26.83685125551753,2.673937173704867,0.42155227374907944,B,351,Correct
1,new_learn,38,738,B,46.07301146389106,39.82198131433698,2.3036505731945534,0.6255222197425554,A,866,Incorrect
1,new_learn,38,739,A,51.59221481151153,79.4057668962337,2.5796107405755766,1.2473028696693569,B,413,Incorrect
1,new_learn,38,740,A,66.12466312189943,54.17671130687144,3.3062331560949714,0.8510057911866121,A,300,Correct
1,new_learn,38,741,A,41.11464710448345,83.74509068777324,2.0557323552241726,1.315464808394597,A,2667,Correct
1,new_learn,38,742,B,21.543693111446686,63.721064017896985,1.0771846555723343,1.0009281329877504,B,647,Correct
1,new_learn,38,743,A,64.85804580388213,67.49048032638301,3.242902290194107,1.0601379859030566,A,1050,Correct
1,new_learn,38,744,B,19.28722067314015,63.30746278715608,0.9643610336570076,0.9944313000476939,B,797,Correct
1,new_learn,38,745,B,63.7356372864651,12.034233155360823,3.186781864323255,0.18903329236234143,B,1306,Correct
1,new_learn,38,746,B,58.76699433846747,30.849317946686796,2.9383497169233737,0.484579953147835,B,623,Correct
1,new_learn,38,747,B,47.02660534498175,23.328782435286058,2.3513302672490877,0.3664476575794465,A,811,Incorrect
1,new_learn,38,748,B,24.073063092796925,53.58229141690992,1.2036531546398463,0.8416686653893581,B,396,Correct
1,new_learn,38,749,A,40.74194359976797,85.22154228622114,2.0370971799883986,1.3386568558699212,B,496,Incorrect
1,new_learn,38,750,B,41.58792233325658,36.783748004186705,2.079396116662829,0.5777977625072559,A,343,Incorrect
1,new_learn,38,751,A,40.95024185397637,83.57060644429535,2.0475120926988186,1.3127240163072105,A,1073,Correct
1,new_learn,38,752,B,26.572571346291923,61.59646750797124,1.328628567314596,0.9675550490506243,B,5767,Correct
1,new_learn,38,753,B,25.894871504295438,53.516576303789954,1.294743575214772,0.8406364148063206,B,527,Correct
1,new_learn,38,754,A,80.80454170327909,47.20873407753082,4.040227085163954,0.7415530608162247,A,1041,Correct
1,new_learn,38,755,B,51.1168994920135,32.13458641324634,2.555844974600675,0.5047689030100054,B,448,Correct
1,new_learn,38,756,A,66.04515021205009,43.60038560360786,3.3022575106025043,0.6848732555298832,B,1118,Incorrect
1,new_learn,38,757,A,74.29517606799863,57.146529305151816,3.7147588033999313,0.8976555832160937,A,732,Correct
1,new_learn,38,758,A,59.731267878292385,61.444338906542704,2.9865633939146194,0.9651654185673803,A,411,Correct
1,new_learn,38,759,A,44.201113775458,83.97979933006066,2.2100556887728997,1.3191516031263182,B,1357,Incorrect
1,new_learn,38,760,B,46.96484521224084,44.02563517535485,2.348242260612042,0.6915530601825959,A,334,Incorrect
1,new_learn,38,761,A,80.16256857028893,33.80330645150576,4.008128428514446,0.5309810960754747,B,1544,Incorrect
1,new_learn,38,762,A,41.15411424447312,68.23563012687657,2.0577057122236564,1.071842771598329,A,836,Correct
1,new_learn,38,763,A,32.54462843368225,86.86546334761334,1.6272314216841124,1.3644795075176777,A,829,Correct
1,new_learn,38,764,B,30.453721278270123,60.3884472047374,1.522686063913506,0.9485795105004905,A,1191,Incorrect
1,new_learn,38,765,A,62.29944922311335,48.88472580447938,3.1149724611556673,0.7678794773005191,A,561,Correct
1,new_learn,38,766,A,72.91157833159096,46.496389061425404,3.645578916579548,0.7303635714691343,A,748,Correct
1,new_learn,38,767,A,61.107380886270775,71.60902083237161,3.055369044313539,1.1248318688886856,A,542,Correct
1,new_learn,38,768,B,33.545945385156614,35.80946226039282,1.6772972692578307,0.5624937178312552,B,880,Correct
1,new_learn,38,769,B,47.64721489111982,31.391328420650325,2.3823607445559913,0.49309383376369775,B,637,Correct
1,new_learn,38,770,B,24.332273596076416,59.48583431327317,1.2166136798038207,0.9344013003561933,A,754,Incorrect
1,new_learn,38,771,A,46.94221113350121,75.52341845658123,2.3471105566750605,1.186319082985917,B,681,Incorrect
1,new_learn,38,772,B,26.34888073382656,44.79804718293065,1.317444036691328,0.7036860796253193,B,876,Correct
1,new_learn,38,773,A,42.65320242216228,67.46264013058254,2.132660121108114,1.0597006731300502,A,1220,Correct
1,new_learn,38,774,A,79.14314960563996,37.97283371022872,3.957157480281998,0.596475877100207,A,953,Correct
1,new_learn,38,775,A,70.44954564280789,60.667943326642,3.5224772821403945,0.9529698253169021,A,724,Correct
1,new_learn,38,776,A,65.05017116293101,49.40165622424777,3.2525085581465505,0.7759994013463264,A,506,Correct
1,new_learn,38,777,A,70.33482525813147,45.86901689049553,3.5167412629065735,0.7205088324528344,A,692,Correct
1,new_learn,38,778,B,55.96664891808695,28.645165177908268,2.798332445904348,0.4499572024189138,A,958,Incorrect
1,new_learn,38,779,B,20.669553532384175,51.19232675978623,1.0334776766192086,0.804127188343563,B,615,Correct
1,new_learn,38,780,A,53.768430264796976,64.7873026948251,2.688421513239849,1.0176765709598037,A,899,Correct
1,new_learn,38,781,A,79.67884229466736,34.667743559553784,3.983942114733368,0.5445596424161452,B,1238,Incorrect
1,new_learn,38,782,B,10.49168158326134,66.4441316987726,0.5245840791630669,1.0437019800950835,B,987,Correct
1,new_learn,38,783,B,26.602862050839704,41.8695671899159,1.330143102541985,0.6576856234641202,A,903,Incorrect
1,new_learn,38,784,A,51.00967955384283,72.48933508589523,2.5504839776921413,1.1386598128472865,B,667,Incorrect
1,new_learn,38,785,A,65.27901577776471,42.89924641975014,3.2639507888882355,0.6738597869841264,A,5319,Correct
1,new_learn,38,786,A,82.57906955767042,34.85192583899443,4.128953477883521,0.547452770896206,A,687,Correct
1,new_learn,38,787,A,51.99928867618481,59.75839768995087,2.5999644338092405,0.9386827158652346,B,859,Incorrect
1,new_learn,38,788,B,48.31465774226654,37.54266394676334,2.415732887113327,0.5897187862567105,A,554,Incorrect
1,new_learn,38,789,B,62.06767857458089,11.470021909913939,3.1033839287290443,0.180170682843498,B,501,Correct
1,new_learn,38,790,B,23.917392556747153,46.12814273989777,1.1958696278373577,0.7245791717770208,B,685,Correct
1,new_learn,38,791,B,44.8440720070534,34.85320875834705,2.2422036003526697,0.5474729229462727,B,891,Correct
1,new_learn,38,792,B,49.08516247423881,26.076429240986656,2.4542581237119405,0.4096075926766887,B,523,Correct
1,new_learn,38,793,B,30.7068001054569,42.48264738236596,1.535340005272845,0.6673158646074328,B,756,Correct
1,new_learn,38,794,A,56.63311481243114,69.7051762067618,2.831655740621557,1.0949263474417246,A,537,Correct
1,new_learn,38,795,B,43.29762423009872,44.69758686115556,2.164881211504936,0.7021080525809898,A,523,Incorrect
1,new_learn,38,796,A,59.482065540412336,62.46677959230042,2.974103277020617,0.981225879302919,A,689,Correct
1,new_learn,38,797,B,27.02936811853109,48.72852537756329,1.3514684059265545,0.7654258867320831,B,631,Correct
1,new_learn,38,798,B,39.87532385152462,53.04958620757162,1.9937661925762311,0.8333009515284271,A,572,Incorrect
1,new_learn,38,799,A,32.29403367054191,89.38531783471363,1.6147016835270955,1.4040612892416253,100,1291,Correct
1,new_learn,38,800,B,11.579155981764373,65.36769847054555,0.5789577990882186,1.0267934064856932,B,659,Correct
1,new_learn,38,801,A,76.21684158820335,40.99676429664322,3.8108420794101674,0.6439756676764333,A,719,Correct
1,new_learn,38,802,B,23.95246405485115,56.86197354064447,1.1976232027425575,0.8931857917195294,B,859,Correct
1,new_learn,38,803,A,35.75779341808044,88.76257099847261,1.787889670904022,1.3942792048127197,A,842,Correct
1,new_learn,38,804,B,55.496681177710116,17.850471755949684,2.7748340588855056,0.2803945546580181,A,1266,Incorrect
1,new_learn,38,805,B,58.23523768737395,23.044028467013206,2.9117618843686977,0.36197475270541374,B,466,Correct
1,new_learn,38,806,A,64.71002377925593,45.50819225035826,3.2355011889627967,0.7148410122593873,A,1365,Correct
1,new_learn,38,807,B,18.602681410334178,61.98738953221209,0.9301340705167089,0.9736956378480318,B,769,Correct
1,new_learn,38,808,B,22.948481801103807,53.22871797346647,1.1474240900551904,0.8361147467272264,B,1404,Correct
1,new_learn,38,809,B,46.20343250640021,44.569231444386126,2.310171625320011,0.7000918504091334,B,1172,Correct
1,new_learn,38,810,B,45.206769073388315,22.935865224646136,2.2603384536694158,0.36027572846736955,A,927,Incorrect
1,new_learn,38,811,A,69.78384546218967,59.96864857010713,3.4891922731094835,0.941985328967783,A,720,Correct
1,new_learn,38,812,A,76.41090349046506,52.07717584321761,3.820545174523253,0.8180263652437815,A,565,Correct
1,new_learn,38,813,A,67.79290617628021,53.533352391688716,3.3896453088140106,0.8408999329788142,A,481,Correct
1,new_learn,38,814,A,73.65655617629315,58.02533774156361,3.682827808814658,0.9114598738548141,A,473,Correct
1,new_learn,38,815,A,68.5926544957051,60.770165162887245,3.4296327247852556,0.9545755221658248,A,486,Correct
1,new_learn,38,816,B,65.32767484398632,22.26592994946975,3.2663837421993156,0.3497524097729956,B,1087,Correct
1,new_learn,38,817,B,11.961869302545615,63.84732904537129,0.5980934651272808,1.0029114994013433,B,993,Correct
1,new_learn,38,818,A,47.451920033667534,79.76240545013957,2.3725960016833767,1.2529049349740444,A,1164,Correct
1,new_learn,38,819,A,88.73412200473551,31.449524314167732,4.436706100236775,0.49400797272141467,A,1686,Correct
1,new_learn,38,820,A,83.61295379037766,34.896560442500615,4.180647689518883,0.5481538896085606,A,585,Correct
1,new_learn,38,821,B,50.25754608744849,19.586178569299918,2.512877304372424,0.3076589735260523,B,1147,Correct
1,new_learn,38,822,A,80.64816490224032,33.774208714342336,4.032408245112016,0.5305240298889312,B,1506,Incorrect
1,new_learn,38,823,A,71.16626132517258,55.86913151464264,3.558313066258629,0.8775902656442166,A,523,Correct
1,new_learn,38,824,A,70.48662368754714,60.28926578469253,3.524331184377357,0.9470215723975626,A,961,Correct
1,new_learn,38,825,B,12.852154212944711,67.63167249360168,0.6426077106472355,1.0623558272794495,B,757,Correct
1,new_learn,38,826,A,73.45678113408064,53.34230582718166,3.6728390567040323,0.8378989805610696,A,1010,Correct
1,new_learn,38,827,B,47.12537176131688,41.81768051547529,2.3562685880658436,0.656870589487911,B,587,Correct
1,new_learn,38,828,A,70.79819713145093,51.64807240516186,3.539909856572547,0.8112860242006511,A,743,Correct
1,new_learn,38,829,B,33.699811081766306,34.75993355411971,1.6849905540883154,0.5460077594644592,B,643,Correct
1,new_learn,38,830,A,58.531662613169644,72.02162175729089,2.926583130658482,1.1313129890616394,A,588,Correct
1,new_learn,38,831,B,63.04601096177753,22.11710224008064,3.1523005480888764,0.34741462958065844,B,609,Correct
1,new_learn,38,832,A,48.69036477885211,75.5895016624427,2.4345182389426054,1.1873571155562173,A,637,Correct
1,new_learn,38,833,B,11.913294704635902,65.19621571012001,0.5956647352317951,1.0240997615838423,B,1303,Correct
1,new_learn,38,834,B,57.561116342595284,15.249053142399617,2.878055817129764,0.23953156663181494,A,655,Incorrect
1,new_learn,38,835,B,66.11949012637581,10.125404717735165,3.3059745063187904,0.15904948537930114,B,647,Correct
1,new_learn,38,836,B,35.3387346881201,37.94693579142294,1.766936734406005,0.5960690735428894,B,1885,Correct
1,new_learn,38,837,A,52.15019508692651,54.84825065818565,2.6075097543463257,0.861554306650038,A,744,Correct
1,new_learn,38,838,A,37.75515290691855,84.54106655254647,1.8877576453459277,1.3279679680406287,A,1289,Correct
1,new_learn,38,839,B,28.519812750750965,58.40283932915467,1.4259906375375482,0.9173896549262869,B,625,Correct
1,new_learn,38,840,A,73.62318164226322,39.00837631862563,3.681159082113161,0.6127421423553017,A,835,Correct
1,new_learn,38,841,B,54.19368111889717,33.1953908012118,2.7096840559448583,0.521431979370646,B,381,Correct
1,new_learn,38,842,B,64.7306616399702,18.175886961793637,3.23653308199851,0.28550616475824697,B,694,Correct
1,new_learn,38,843,B,39.58945389554345,39.8828446446758,1.9794726947771724,0.6264782586998825,A,658,Incorrect
1,new_learn,38,844,B,30.97676595969214,47.69108785250663,1.5488382979846071,0.749129856195701,B,315,Correct
1,new_learn,38,845,A,72.39022286952965,59.753444107965464,3.619511143476483,0.9386049051813631,A,725,Correct
1,new_learn,38,846,A,53.54851769261891,74.80450545508623,2.6774258846309453,1.1750264239655825,B,456,Incorrect
1,new_learn,38,847,B,39.24520797255768,33.652246326974364,1.9622603986278842,0.5286082491880838,A,334,Incorrect
1,new_learn,38,848,B,51.160851812354544,33.708813161873024,2.558042590617727,0.5294967989528561,B,484,Correct
1,new_learn,38,849,A,67.40170941515399,44.2153880731876,3.370085470757699,0.6945336917317395,B,1380,Incorrect
1,new_learn,38,850,A,46.35790644750496,60.72837217772301,2.317895322375248,0.9539190394900069,A,560,Correct
1,new_learn,38,851,B,51.827260559737724,20.24617663871851,2.5913630279868864,0.3180261989573968,B,740,Correct
1,new_learn,38,852,A,44.627776681725415,66.53120154599281,2.2313888340862706,1.0450696700569646,A,533,Correct
1,new_learn,38,853,B,50.61875124201139,36.57225027485836,2.53093756210057,0.5744755639437116,A,1099,Incorrect
1,new_learn,38,854,B,48.55886809892519,23.83481913416719,2.4279434049462596,0.3743964634577054,B,987,Correct
1,new_learn,38,855,B,22.36823679002019,64.78456132211522,1.1184118395010096,1.0176335095779732,B,1815,Correct
1,new_learn,38,856,B,15.409676697895833,57.57351283945586,0.7704838348947917,0.9043626248889608,B,523,Correct
1,new_learn,38,857,A,86.75076376321387,35.49464633639754,4.337538188160694,0.5575486008609718,A,675,Correct
1,new_learn,38,858,B,32.530876543777424,40.15899014772921,1.6265438271888712,0.6308159421184549,A,734,Incorrect
1,new_learn,38,859,A,35.754561469399235,83.08585061628428,1.7877280734699617,1.3051094895668884,B,527,Incorrect
1,new_learn,38,860,B,19.59691309200568,59.27395408364504,0.9798456546002839,0.9310730934919899,B,679,Correct
1,new_learn,38,861,B,59.00709690287057,25.42195124102126,2.9503548451435284,0.3993270762935516,B,1132,Correct
1,new_learn,38,862,A,47.626838848380615,59.334617413282245,2.3813419424190307,0.9320259908456426,A,821,Correct
1,new_learn,38,863,A,50.88274877809231,61.58922003895343,2.5441374389046154,0.9674412060735068,A,564,Correct
1,new_learn,38,864,B,15.476802325260081,66.8452764377923,0.7738401162630041,1.0500031469207358,B,644,Correct
1,new_learn,38,865,B,47.41555914946731,33.83946296808733,2.3707779574733654,0.5315490413098352,A,504,Incorrect
1,new_learn,38,866,B,18.12274458674941,59.0493283253999,0.9061372293374704,0.9275446803324401,B,607,Correct
1,new_learn,38,867,B,23.387856518627668,64.75752722345796,1.1693928259313835,1.0172088589492827,B,1331,Correct
1,new_learn,38,868,A,74.46556667665537,37.703366586896664,3.7232783338327686,0.5922430974249872,A,567,Correct
1,new_learn,38,869,B,22.998308581146897,59.37410000743556,1.149915429057345,0.9326461819843261,B,542,Correct
1,new_learn,38,870,B,22.807466141389256,48.37188335586817,1.1403733070694628,0.7598237669554893,A,465,Incorrect
1,new_learn,38,871,A,62.79404341950134,54.42586270443922,3.1397021709750668,0.8549194521877649,A,772,Correct
1,new_learn,38,872,A,71.45263981086147,53.4958895544802,3.5726319905430732,0.8403114681080298,A,1174,Correct
1,new_learn,38,873,B,15.657348655011631,56.79892484815686,0.7828674327505816,0.8921954251738418,B,643,Correct
1,new_learn,38,874,A,42.26526583646807,81.21291298521075,2.1132632918234036,1.275689454054826,A,664,Correct
1,new_learn,38,875,A,70.64191940066964,46.487666581488426,3.5320959700334815,0.7302265590746789,A,609,Correct
1,new_learn,38,876,B,26.695803240411113,47.55324033863617,1.3347901620205556,0.7469645525112459,B,1085,Correct
1,new_learn,38,877,B,61.554882997863345,28.06815032683579,3.0777441498931672,0.4408934743332064,A,676,Incorrect
1,new_learn,38,878,A,34.33440550342937,77.71326018127847,1.7167202751714685,1.2207170363600832,B,506,Incorrect
1,new_learn,38,879,B,32.9739865452631,40.389772988976496,1.6486993272631552,0.6344410705116401,A,527,Incorrect
1,new_learn,38,880,B,13.96779225913069,60.952185590818374,0.6983896129565345,0.9574346923617832,B,1590,Correct
1,new_learn,38,881,B,66.19029526360949,22.61057620363927,3.309514763180474,0.35516610047392655,A,720,Incorrect
1,new_learn,38,882,B,22.19273538879011,52.252864157660156,1.1096367694395055,0.8207860708336527,B,490,Correct
1,new_learn,38,883,B,21.15213114653301,59.25949169836242,1.0576065573266504,0.9308459188752036,B,587,Correct
1,new_learn,38,884,A,35.82606032548385,79.2645405809181,1.7913030162741927,1.2450844918959116,A,924,Correct
1,new_learn,38,885,A,36.75074359760299,88.28001103430508,1.8375371798801496,1.3866991706209935,B,923,Incorrect
1,new_learn,38,886,B,46.970818251001155,42.36557524571291,2.348540912550058,0.6654768997851864,A,283,Incorrect
1,new_learn,38,887,A,54.48897930112826,58.98486962337386,2.7244489650564128,0.9265321654087155,B,565,Incorrect
1,new_learn,38,888,A,50.869972468858165,80.5741519232808,2.5434986234429084,1.2656558187570341,A,692,Correct
1,new_learn,38,889,B,57.13945818481787,20.954880291839032,2.856972909240893,0.3291584899084752,B,1196,Correct
1,new_learn,38,890,A,67.31998754909966,64.12173136593057,3.3659993774549832,1.0072218009733285,B,1164,Incorrect
1,new_learn,38,891,A,79.30864481095645,41.38717728667883,3.965432240547823,0.6501082605832428,B,2092,Incorrect
1,new_learn,38,892,B,40.232980272671995,51.911312536263495,2.0116490136336,0.8154209905106456,A,923,Incorrect
1,new_learn,38,893,A,66.81657928581484,54.35346346642048,3.340828964290742,0.853782207616339,B,509,Incorrect
1,new_learn,38,894,A,70.33828490379949,42.35572715353392,3.5169142451899744,0.6653222063149794,A,614,Correct
1,new_learn,38,895,A,61.59399526622413,59.684637685238734,3.079699763311206,0.9375240964205726,A,1067,Correct
1,new_learn,38,896,A,81.01135134314133,37.08562313510558,4.050567567157066,0.5825396059752367,A,1178,Correct
1,new_learn,38,897,A,69.7299852698542,55.07287920353602,3.4864992634927097,0.8650827635893343,A,555,Correct
1,new_learn,38,898,B,65.38834953942924,17.822654968664054,3.2694174769714617,0.27995760958510313,B,981,Correct
