experiment,condition,subject,trial,cat,x,y,xt,yt,resp,rt,fb
1,relearn,3,0,A,30.900294262731393,45.23528487303135,1.5450147131365697,0.710554193200784,B,4568,Incorrect
1,relearn,3,1,B,53.91502235633637,43.23727867772041,2.6957511178168185,0.6791695852757053,B,2573,Correct
1,relearn,3,2,B,67.31520831347937,34.61000762218016,3.365760415673969,0.5436527284326397,B,2267,Correct
1,relearn,3,3,A,56.097620741669914,76.10932903423924,2.804881037083496,1.195522544818072,A,1776,Correct
1,relearn,3,4,B,54.103803438417685,41.30299985685353,2.705190171920884,0.6487860046075566,B,831,Correct
1,relearn,3,5,B,62.66082297455954,44.26865145531543,3.133041148727977,0.6953703509817303,B,1130,Correct
1,relearn,3,6,B,41.161531917928386,25.189834995503272,2.058076595896419,0.39568100283506075,B,1008,Correct
1,relearn,3,7,A,30.05482444458122,56.32967113793333,1.502741222229061,0.8848244051303017,A,1122,Correct
1,relearn,3,8,A,62.29923893967103,84.76851591280905,3.114961946983551,1.3315407342369519,A,731,Correct
1,relearn,3,9,B,64.82594946158639,45.63058188497875,3.2412974730793196,0.7167635041443836,B,588,Correct
1,relearn,3,10,B,51.28836933720254,30.556773095037556,2.564418466860127,0.47998466936390116,B,571,Correct
1,relearn,3,11,B,57.003691042108095,48.35738839709222,2.850184552105405,0.7595960806754661,A,786,Incorrect
1,relearn,3,12,A,13.432332241400381,41.21148071150217,0.6716166120700191,0.6473484252340633,B,988,Incorrect
1,relearn,3,13,A,53.69005398840089,65.44000532996182,2.6845026994200447,1.0279291999774247,B,955,Incorrect
1,relearn,3,14,A,55.1540575638999,71.76838625315924,2.7577028781949946,1.1273351750645988,A,956,Correct
1,relearn,3,15,A,32.991207814775336,61.43997829028493,1.649560390738767,0.9650969221673774,A,796,Correct
1,relearn,3,16,A,34.30312800530981,67.7006855482161,1.7151564002654904,1.063439881806342,A,630,Correct
1,relearn,3,17,B,48.47872753180319,33.29853884004196,2.4239363765901594,0.523052224975751,B,780,Correct
1,relearn,3,18,B,47.28167976292278,21.90939462728259,2.364083988146139,0.34415196602835335,B,653,Correct
1,relearn,3,19,A,35.25095529317879,53.148845667113015,1.7625477646589394,0.8348601154728996,A,484,Correct
1,relearn,3,20,B,84.33591470871535,66.54563456006348,4.216795735435768,1.0452963833118323,B,1451,Correct
1,relearn,3,21,B,40.22524970930214,15.78312053113094,2.011262485465107,0.24792067755661595,B,784,Correct
1,relearn,3,22,A,32.20402028748104,49.30531504171369,1.6102010143740524,0.7744860775898903,A,795,Correct
1,relearn,3,23,A,11.300802753633633,37.549890238884146,0.5650401376816816,0.5898322965879076,A,645,Correct
1,relearn,3,24,A,21.979651478861577,48.115304582908614,1.0989825739430787,0.755793437014505,A,460,Correct
1,relearn,3,25,A,48.77085057370681,57.61923624570091,2.4385425286853404,0.9050808464747436,B,585,Incorrect
1,relearn,3,26,A,58.48272523994231,75.39611839100851,2.9241362619971154,1.1843194582318932,A,4007,Correct
1,relearn,3,27,B,81.56161726471186,57.813477892997355,4.078080863235593,0.908131987135582,B,649,Correct
1,relearn,3,28,B,45.898041463088056,19.479103415074313,2.2949020731544025,0.3059770409365666,B,769,Correct
1,relearn,3,29,B,54.95614580876811,37.17848742930431,2.7478072904384057,0.5839983148974146,B,614,Correct
1,relearn,3,30,B,66.00688519177365,41.51873048809909,3.3003442595886825,0.6521746934389333,B,631,Correct
1,relearn,3,31,B,78.71492476150088,66.39220378396591,3.935746238075044,1.0428862983167189,B,1081,Correct
1,relearn,3,32,A,52.51331790483427,78.17943885336454,2.6256658952417133,1.2280397538175125,A,833,Correct
1,relearn,3,33,B,70.02376286124202,47.54165520131994,3.501188143062101,0.7467825735998285,B,529,Correct
1,relearn,3,34,B,75.52652263682782,61.20979384761094,3.776326131841391,0.9614811933970011,B,1060,Correct
1,relearn,3,35,B,37.23616107236961,25.73772704428611,1.8618080536184807,0.4042872710121429,A,587,Incorrect
1,relearn,3,36,B,35.10739967138919,22.056338964010816,1.7553699835694596,0.34646016227211346,B,2857,Correct
1,relearn,3,37,A,16.776119214148586,40.71522878696633,0.8388059607074294,0.6395533182318054,A,663,Correct
1,relearn,3,38,A,49.662080790152096,67.63086766339771,2.4831040395076047,1.0623431850361689,B,753,Incorrect
1,relearn,3,39,B,52.99421052998623,44.924186675842,2.6497105264993115,0.7056674741466085,B,11339,Correct
1,relearn,3,40,A,34.35842616997569,62.98031557912773,1.7179213084987845,0.9892924837207725,B,5824,Incorrect
1,relearn,3,41,A,14.503031164387423,37.002698146524416,0.7251515582193712,0.5812370233006088,A,531,Correct
1,relearn,3,42,A,19.31439246723182,42.963626934278246,0.9657196233615909,0.6748710737415055,A,605,Correct
1,relearn,3,43,A,23.783088235156466,40.171136779443145,1.1891544117578234,0.6310067409632467,A,542,Correct
1,relearn,3,44,A,33.01703546261013,52.64588295477527,1.6508517731305066,0.8269595956623504,B,5478,Incorrect
1,relearn,3,45,A,32.92051371078906,43.370938674664416,1.646025685539453,0.6812691115980958,A,4539,Correct
1,relearn,3,46,B,87.67377701848464,62.2448849679737,4.383688850924233,0.9777403666946395,B,532,Correct
1,relearn,3,47,A,38.2164941154065,69.8194707091461,1.910824705770325,1.0967216812869058,A,862,Correct
1,relearn,3,48,A,14.878990058264765,43.82807119810877,0.7439495029132382,0.6884497324849446,A,544,Correct
1,relearn,3,49,A,66.25832079984423,84.29769284917194,3.3129160399922113,1.3241450628476368,B,525,Incorrect
1,relearn,3,50,A,32.92427313763973,41.33479714693425,1.6462136568819863,0.649285475272165,B,378,Incorrect
1,relearn,3,51,A,63.97467439053119,83.25993222817395,3.1987337195265595,1.3078439571320768,B,512,Incorrect
1,relearn,3,52,B,87.76943464414516,68.9432018878247,4.388471732207258,1.0829572828287404,A,1129,Incorrect
1,relearn,3,53,B,52.943825732787005,35.99433293920461,2.64719128663935,0.5653976596633515,B,465,Correct
1,relearn,3,54,A,11.198930286103892,31.106957716777917,0.5599465143051945,0.4886269491927891,A,525,Correct
1,relearn,3,55,B,66.5463869710843,49.38983566409714,3.327319348554215,0.7758137244216737,B,1607,Correct
1,relearn,3,56,B,42.191727133880605,26.87675630820467,2.10958635669403,0.42217910085089466,B,553,Correct
1,relearn,3,57,B,52.812066172653296,41.928253566644344,2.640603308632665,0.6586074669140995,B,1101,Correct
1,relearn,3,58,A,37.949035484449496,52.83366310052874,1.8974517742224748,0.8299092392942963,A,832,Correct
1,relearn,3,59,A,25.55605602292679,41.19522675658827,1.2778028011463394,0.647093108707317,A,593,Correct
1,relearn,3,60,A,22.696331376217007,53.80320039854091,1.1348165688108502,0.8451386955583777,A,506,Correct
1,relearn,3,61,A,44.2193654875969,65.14348556855776,2.2109682743798453,1.023271478457069,A,663,Correct
1,relearn,3,62,B,79.2529462044849,47.42013191369836,3.962647310224245,0.7448736902616684,B,582,Correct
1,relearn,3,63,A,30.341432223791045,56.20861266372838,1.5170716111895524,0.8829228230642164,A,559,Correct
1,relearn,3,64,B,78.47215740825204,53.374604816289796,3.923607870412602,0.838406331895572,B,673,Correct
1,relearn,3,65,A,44.674786032355456,62.5379822890523,2.233739301617773,0.9823443286480764,B,683,Incorrect
1,relearn,3,66,B,41.45007271445456,17.05097961822187,2.072503635722728,0.26783616152557566,B,775,Correct
1,relearn,3,67,B,84.18235219421877,65.72209855046668,4.209117609710939,1.0323603099232526,A,690,Incorrect
1,relearn,3,68,B,64.42761180619857,42.6073470219718,3.2213805903099284,0.6692746419658877,B,547,Correct
1,relearn,3,69,B,39.786676432709896,23.18941930271905,1.9893338216354948,0.3642585466121775,B,864,Correct
1,relearn,3,70,B,79.50223895215787,53.87432228383433,3.9751119476078935,0.846255875520114,B,493,Correct
1,relearn,3,71,A,24.536979193470305,46.24111614483935,1.2268489596735153,0.7263537538720983,A,794,Correct
1,relearn,3,72,A,18.994386227332644,33.05034504068003,0.9497193113666321,0.5191536058920411,A,561,Correct
1,relearn,3,73,A,29.72101372111471,39.37093100631853,1.4860506860557354,0.6184371380722045,A,1215,Correct
1,relearn,3,74,B,32.49979080682013,15.40174810326355,1.6249895403410064,0.2419300934682665,A,1186,Incorrect
1,relearn,3,75,B,42.678192409136884,28.787949238486085,2.133909620456844,0.45220004919771883,B,546,Correct
1,relearn,3,76,A,25.964363073886837,38.28413236017897,1.2982181536943418,0.6013657448589875,A,515,Correct
1,relearn,3,77,A,15.871961499629371,37.724321790650166,0.7935980749814686,0.5925722609958194,A,697,Correct
1,relearn,3,78,B,55.06795022623851,23.623934762547936,2.7533975113119253,0.37108389949452564,B,897,Correct
1,relearn,3,79,A,60.44359833631185,70.1864075706242,3.0221799168155927,1.10248551202866,B,1062,Incorrect
1,relearn,3,80,B,75.92704035751281,57.10748655345395,3.7963520178756403,0.8970423011065443,B,472,Correct
1,relearn,3,81,B,87.21132107332647,68.72265687023878,4.360566053666323,1.0794929697935713,B,859,Correct
1,relearn,3,82,A,21.91264579932951,34.04762273114371,1.0956322899664754,0.5348188072217896,A,593,Correct
1,relearn,3,83,A,60.27976291010766,74.423995329459,3.013988145505383,1.1690493848891474,B,762,Incorrect
1,relearn,3,84,B,48.25798134586033,19.51182056398311,2.412899067293017,0.30649096070985793,B,568,Correct
1,relearn,3,85,A,27.009860956866824,48.70677249735832,1.350493047843341,0.7650841932888515,A,599,Correct
1,relearn,3,86,B,77.45768784122068,59.23273223661951,3.8728843920610334,0.9304255822330759,B,853,Correct
1,relearn,3,87,B,33.51741088916974,12.899768789520856,1.6758705444584872,0.2026290943108281,A,831,Incorrect
1,relearn,3,88,A,58.92751913567598,80.76448953650839,2.946375956783799,1.2686456349941224,B,613,Incorrect
1,relearn,3,89,A,39.633217146086345,71.66998465656255,1.981660857304317,1.1257894863997504,A,663,Correct
1,relearn,3,90,B,64.5036368843097,55.53490687843282,3.2251818442154847,0.872340277335389,B,700,Correct
1,relearn,3,91,A,37.35156106466461,65.89482158434716,1.8675780532332305,1.0350734369949757,A,610,Correct
1,relearn,3,92,A,27.00065811381457,49.33859966338131,1.3500329056907285,0.7750089112044327,A,695,Correct
1,relearn,3,93,A,54.861180222399454,77.1586797048854,2.743059011119973,1.2120057066077794,B,1199,Incorrect
1,relearn,3,94,B,78.0366713666329,50.36723836446501,3.901833568331645,0.7911667301370463,B,455,Correct
1,relearn,3,95,A,42.20742406339027,64.9948838043866,2.1103712031695134,1.0209372474039158,A,477,Correct
1,relearn,3,96,B,30.688771463629923,14.181275469936818,1.534438573181496,0.22275895417443323,A,729,Incorrect
1,relearn,3,97,A,49.84177598990068,67.01277504380708,2.492088799495034,1.0526342088714489,B,1415,Incorrect
1,relearn,3,98,B,59.44082044107419,39.492955708040775,2.9720410220537095,0.62035389760464,B,360,Correct
1,relearn,3,99,A,44.43068949565563,56.251068630453936,2.221534474782781,0.8835897198300467,A,868,Correct
1,relearn,3,100,B,43.95069921263922,34.45380352390459,2.197534960631961,0.5411990801946239,B,510,Correct
1,relearn,3,101,B,59.38852475716788,31.341178173259934,2.9694262378583938,0.49230607551981087,B,547,Correct
1,relearn,3,102,B,89.42739244166773,67.60619540728091,4.471369622083387,1.0619556341433487,B,543,Correct
1,relearn,3,103,B,37.27987311947079,26.485208987472017,1.8639936559735395,0.4160286899191622,B,1237,Correct
1,relearn,3,104,A,48.974370311742646,77.56608091007058,2.448718515587132,1.218405149774146,B,851,Incorrect
1,relearn,3,105,B,75.70858413822063,45.0831796175496,3.7854292069110316,0.7081649294348147,B,322,Correct
1,relearn,3,106,B,42.098331032202246,18.364452543570863,2.1049165516101125,0.28846814599040305,B,634,Correct
1,relearn,3,107,B,73.31915457888137,42.08537471145066,3.6659577289440684,0.6610755200853353,B,735,Correct
1,relearn,3,108,B,71.18725056132035,53.244810966980545,3.5593625280660177,0.8363675348782167,B,586,Correct
1,relearn,3,109,B,63.42797902783205,36.780984881877025,3.1713989513916028,0.5777543594835106,B,497,Correct
1,relearn,3,110,A,61.72341062173184,74.81894124886506,3.086170531086592,1.175253180884004,B,2106,Incorrect
1,relearn,3,111,A,57.80320408895975,77.48683735395869,2.8901602044479877,1.2171603949055187,A,782,Correct
1,relearn,3,112,B,84.39000104930892,64.8226156274885,4.219500052465446,1.018231265208964,B,902,Correct
1,relearn,3,113,A,54.69726490321882,65.69549634616838,2.734863245160941,1.0319424434752884,B,538,Incorrect
1,relearn,3,114,B,51.60113695091677,31.918882862839666,2.5800568475458387,0.5013806395634511,B,503,Correct
1,relearn,3,115,A,14.994822853630783,42.83749184760559,0.7497411426815391,0.6728897484332519,A,974,Correct
1,relearn,3,116,A,16.22122098948838,39.606794583347394,0.811061049474419,0.622142074476421,A,597,Correct
1,relearn,3,117,B,49.79727506083986,35.947105447187326,2.489863753041993,0.5646558119535068,B,725,Correct
1,relearn,3,118,A,57.229655066671356,74.4429990695819,2.8614827533335676,1.1693478949409515,A,1103,Correct
1,relearn,3,119,A,35.09439528539227,67.15400765810026,1.7547197642696133,1.0548526855890021,A,588,Correct
1,relearn,3,120,A,35.21340236949047,45.14186858117056,1.7606701184745233,0.7090868135196067,B,1157,Incorrect
1,relearn,3,121,B,72.68199179056295,46.90831987980156,3.6340995895281476,0.7368341656331231,B,554,Correct
1,relearn,3,122,B,52.27133175165541,26.094009875544586,2.6135665875827705,0.4098837486385518,B,550,Correct
1,relearn,3,123,B,66.0460159271132,46.74066727082111,3.3023007963556603,0.7342006846094825,B,531,Correct
1,relearn,3,124,B,65.63759811693046,33.474922387632844,3.281879905846523,0.5258228512623793,B,397,Correct
1,relearn,3,125,B,82.79766376720201,67.193066995267,4.139883188360101,1.055466228222488,B,1025,Correct
1,relearn,3,126,A,37.54304723171937,46.50017883590182,1.8771523615859684,0.7304231011074036,B,886,Incorrect
1,relearn,3,127,A,51.533090007565804,69.52131347071027,2.5766545003782904,1.0920382383374825,B,1106,Incorrect
1,relearn,3,128,A,60.50596576752338,73.71908627217572,3.025298288376169,1.157976699310097,A,636,Correct
1,relearn,3,129,B,60.23909923472237,48.89759063161459,3.0119549617361185,0.7680815575326074,B,574,Correct
1,relearn,3,130,B,37.82051927765852,26.866560759350662,1.8910259638829259,0.4220189495439993,B,923,Correct
1,relearn,3,131,A,64.4740441960368,84.86043710707605,3.22370220980184,1.332984628980044,A,659,Correct
1,relearn,3,132,B,38.57820592093208,24.70355601218091,1.9289102960466038,0.38804255042705754,B,418,Correct
1,relearn,3,133,B,44.913798645869754,15.766566201759254,2.245689932293488,0.24766064275892002,B,743,Correct
1,relearn,3,134,B,44.898309949653594,31.537554260972392,2.2449154974826797,0.4953907438923017,B,485,Correct
1,relearn,3,135,A,46.46087396306876,63.43062275411615,2.323043698153438,0.9963658922847844,B,946,Incorrect
1,relearn,3,136,A,19.314557900624546,32.55948063871911,0.9657278950312274,0.5114431258964953,A,701,Correct
1,relearn,3,137,A,51.51697264967707,78.86468497352985,2.575848632483854,1.2388035747025734,A,1006,Correct
1,relearn,3,138,A,41.497359867842704,70.07495319488368,2.074867993392135,1.100734790788476,A,573,Correct
1,relearn,3,139,B,50.391198099795645,21.424985354356853,2.5195599049897823,0.336542882962582,B,644,Correct
1,relearn,3,140,A,23.110433912480495,52.81868744126778,1.1555216956240246,0.8296740021887116,A,596,Correct
1,relearn,3,141,B,71.2121340780602,45.810489453117235,3.5606067039030105,0.7195894856163291,B,581,Correct
1,relearn,3,142,A,40.672306892414404,61.858131576360954,2.03361534462072,0.9716652586254321,B,584,Incorrect
1,relearn,3,143,B,80.36993072860957,62.194962111916304,4.0184965364304785,0.976956180305459,B,378,Correct
1,relearn,3,144,A,54.559160243476555,75.91582861755151,2.7279580121738274,1.1924830473804082,A,1019,Correct
1,relearn,3,145,A,59.17990740364586,67.92448499597151,2.958995370182293,1.0669553153110711,A,841,Correct
1,relearn,3,146,A,35.77843245915648,65.24110014906485,1.7889216229578238,1.0248048047020906,B,703,Incorrect
1,relearn,3,147,A,38.30882005635358,56.19387312026912,1.915441002817679,0.8826912948569722,A,436,Correct
1,relearn,3,148,A,20.6845665913315,38.747429841500264,1.034228329566575,0.6086432046777158,A,639,Correct
1,relearn,3,149,B,81.27367494412462,61.188302046068934,4.063683747206231,0.9611436009678174,B,675,Correct
1,relearn,3,150,B,53.605473641918564,22.536349904065215,2.6802736820959283,0.3540001564867016,B,594,Correct
1,relearn,3,151,B,70.99132689094756,46.653401086132654,3.549566344547378,0.7328299105858621,B,575,Correct
1,relearn,3,152,A,41.256651493469356,64.55404834979635,2.0628325746734677,1.0140126202760027,A,725,Correct
1,relearn,3,153,B,74.13475148540132,53.597203522297825,3.7067375742700666,0.8419029041930393,B,1118,Correct
1,relearn,3,154,B,84.30823445894286,69.52681039266265,4.2154117229471435,1.0921245837855975,B,1854,Correct
1,relearn,3,155,B,33.4703660415722,17.48709132983806,1.6735183020786097,0.27468658827236503,A,740,Incorrect
1,relearn,3,156,B,60.270800142850696,44.916076306000924,3.0135400071425344,0.7055400767550554,B,356,Correct
1,relearn,3,157,B,50.99072843938994,21.72026246968461,2.5495364219694974,0.34118108504401634,B,621,Correct
1,relearn,3,158,A,28.38898395484554,39.3038169369332,1.419449197742277,0.6173829127355371,A,838,Correct
1,relearn,3,159,B,64.57731422490359,48.50251753574369,3.2288657112451795,0.7618757638545124,B,356,Correct
1,relearn,3,160,B,84.95916980158755,64.70228334185015,4.247958490079378,1.0163410900862084,B,516,Correct
1,relearn,3,161,A,44.59893327848633,68.59674224422484,2.2299466639243164,1.077515107473247,A,983,Correct
1,relearn,3,162,A,45.925706624912706,55.24515495392455,2.2962853312456355,0.8677888647483957,B,638,Incorrect
1,relearn,3,163,A,40.09059214725376,53.17800521579167,2.004529607362688,0.835318152592454,A,821,Correct
1,relearn,3,164,B,52.51456164977066,24.809614925429948,2.6257280824885334,0.389708519940612,B,514,Correct
1,relearn,3,165,A,40.76575480441294,70.1928636475181,2.0382877402206474,1.1025869238473645,A,883,Correct
1,relearn,3,166,B,86.46183812565688,68.5010204513806,4.323091906282844,1.0760115130673074,B,499,Correct
1,relearn,3,167,B,78.83844228263051,50.465653620035894,3.9419221141315255,0.7927126333565596,A,543,Incorrect
1,relearn,3,168,A,27.5236775393615,40.44336710477855,1.376183876968075,0.6352829249140369,B,390,Incorrect
1,relearn,3,169,B,60.942717772259726,42.011295390497956,3.0471358886129862,0.6599118848328956,B,597,Correct
1,relearn,3,170,B,60.85316569343702,47.429084204546314,3.042658284671851,0.745014312517472,B,605,Correct
1,relearn,3,171,A,48.150144898903875,59.3216111905135,2.4075072449451937,0.9318216895761364,A,778,Correct
1,relearn,3,172,A,12.127741718905515,39.26867583338593,0.6063870859452757,0.6168309175718214,A,640,Correct
1,relearn,3,173,A,20.979119094002822,52.69260679396655,1.0489559547001412,0.8276935320121047,A,531,Correct
1,relearn,3,174,A,28.428160447690928,49.22434155964451,1.4214080223845462,0.7732141491078698,A,523,Correct
1,relearn,3,175,A,58.46663592743023,80.14079556876055,2.9233317963715115,1.258848673058298,A,842,Correct
1,relearn,3,176,B,55.847415365886285,45.5212693548358,2.7923707682943144,0.7150464269361715,B,779,Correct
1,relearn,3,177,B,69.68662776221247,48.18163403943023,3.4843313881106237,0.7568353376811296,B,813,Correct
1,relearn,3,178,A,43.88444773686682,56.755690890969404,2.1942223868433413,0.8915163077624131,B,672,Incorrect
1,relearn,3,179,B,62.80062235687243,33.28428784988397,3.1400311178436215,0.5228283709458175,B,661,Correct
1,relearn,3,180,B,45.82888316785126,15.721693553693395,2.291444158392563,0.24695578485136593,B,542,Correct
1,relearn,3,181,B,70.5225163865312,58.356181695825306,3.52612581932656,0.9166567585357797,B,1645,Correct
1,relearn,3,182,B,38.37368119678989,17.008615491465044,1.9186840598394945,0.2671707073786006,B,913,Correct
1,relearn,3,183,A,28.779624907666076,56.925092845718986,1.4389812453833037,0.8941772674451383,A,671,Correct
1,relearn,3,184,A,25.679903142820944,40.55674998823079,1.2839951571410473,0.6370639390825189,A,754,Correct
1,relearn,3,185,A,22.343721055931614,47.696619756031986,1.1171860527965807,0.7492167511330794,A,768,Correct
1,relearn,3,186,A,16.55009374388045,38.57249759732805,0.8275046871940225,0.6058953754118788,A,613,Correct
1,relearn,3,187,A,40.20356257188302,64.25541243642188,2.010178128594151,1.009321658318226,A,857,Correct
1,relearn,3,188,B,59.25525767478592,31.740468929477657,2.962762883739296,0.4985781200517105,B,1124,Correct
1,relearn,3,189,A,15.86789491034742,40.69310765651592,0.793394745517371,0.6392058403272449,A,650,Correct
1,relearn,3,190,B,67.10179051808949,58.28436005752916,3.3550895259044746,0.9155285868795799,B,751,Correct
1,relearn,3,191,B,48.49821466025961,31.4537041519889,2.4249107330129807,0.4940736294603755,B,551,Correct
1,relearn,3,192,A,17.28574102345791,32.64844842069547,0.8642870511728955,0.512840628547811,A,615,Correct
1,relearn,3,193,A,50.04390478749037,57.60343704466686,2.5021952393745184,0.9048326732052379,B,813,Incorrect
1,relearn,3,194,A,16.076347335185094,41.454104519652134,0.8038173667592546,0.651159551100413,A,578,Correct
1,relearn,3,195,A,43.674344672391456,67.89358005848516,2.1837172336195727,1.0664698616882373,A,589,Correct
1,relearn,3,196,B,62.70483907856054,41.88411262405084,3.135241953928027,0.6579141026092282,B,669,Correct
1,relearn,3,197,A,59.32733577743147,68.06177696216866,2.9663667888715737,1.0691118924730805,B,1945,Incorrect
1,relearn,3,198,B,66.01437814641132,43.66834716680019,3.300718907320566,0.6859407932681407,B,511,Correct
1,relearn,3,199,A,67.45156523644691,83.55583430221627,3.372578261822346,1.3124919760420433,A,477,Correct
1,relearn,3,200,A,50.462220973397336,60.836470797744155,2.523111048669867,0.9556170486426151,A,1758,Correct
1,relearn,3,201,A,63.033429084466064,76.18370012538627,3.1516714542233033,1.1966907631860066,A,572,Correct
1,relearn,3,202,B,42.16338214151166,19.39917726026732,2.108169107075583,0.3047215638327099,B,481,Correct
1,relearn,3,203,B,60.46393341914144,37.55951767380067,3.0231966709570717,0.5899835239819409,B,593,Correct
1,relearn,3,204,B,79.06276793109254,58.23311827177311,3.953138396554627,0.9147236827911396,B,1080,Correct
1,relearn,3,205,A,36.26164765251622,48.35729011416396,1.813082382625811,0.7595945368508391,A,1224,Correct
1,relearn,3,206,B,40.69178521075378,17.668333128015053,2.0345892605376887,0.27753352778074636,B,777,Correct
1,relearn,3,207,A,33.69567778038444,47.792857520960006,1.6847838890192222,0.7507284504095582,A,625,Correct
1,relearn,3,208,A,61.657282176831714,71.35020279417556,3.0828641088415853,1.1207663646516193,A,2625,Correct
1,relearn,3,209,B,66.1435835914437,46.02597804170218,3.307179179572185,0.7229743724504835,B,453,Correct
1,relearn,3,210,B,80.89749666238528,67.42430589974033,4.044874833119263,1.0590985204400758,B,1115,Correct
1,relearn,3,211,B,73.15351020991352,52.86924243487451,3.657675510495676,0.8304681181712976,B,652,Correct
1,relearn,3,212,B,50.49814952170989,39.41500571288145,2.5249074760854944,0.6191294619439405,B,573,Correct
1,relearn,3,213,B,47.259994391382584,21.962323800693945,2.362999719569129,0.34498337554010183,B,450,Correct
1,relearn,3,214,A,39.91375642100569,52.04339993834437,1.9956878210502844,0.8174958145706909,B,409,Incorrect
1,relearn,3,215,B,80.92158189208686,57.774607160052184,4.046079094604343,0.9075214070902811,B,442,Correct
1,relearn,3,216,B,71.59891851816361,54.92198007161652,3.5799459259081807,0.8627124455679773,B,514,Correct
1,relearn,3,217,B,68.41343203361919,53.74066446421113,3.4206716016809593,0.8441563833989987,B,521,Correct
1,relearn,3,218,A,39.282285456311534,53.71546413667027,1.9641142728155767,0.8437605375796465,A,687,Correct
1,relearn,3,219,B,44.562109368985666,28.994513612633448,2.228105468449283,0.4554447547992925,B,2316,Correct
1,relearn,3,220,A,41.914399095892335,72.50118934366937,2.095719954794617,1.1388460190929715,A,635,Correct
1,relearn,3,221,B,51.51358940516021,38.21466162176726,2.575679470258011,0.6002745010518192,B,414,Correct
1,relearn,3,222,B,34.704986066585676,22.008340321791547,1.7352493033292837,0.3457062013632217,A,732,Incorrect
1,relearn,3,223,A,24.507194708205585,40.705457092281065,1.2253597354102792,0.6393998248106236,A,569,Correct
1,relearn,3,224,B,70.58283829468142,47.63694605236816,3.5291419147340712,0.7482793987878655,B,449,Correct
1,relearn,3,225,B,47.31433831512492,20.034250866450737,2.3657169157562463,0.31469727671108294,B,862,Correct
1,relearn,3,226,B,41.3459183264185,25.651320774542334,2.0672959163209246,0.4029300045008872,B,558,Correct
1,relearn,3,227,B,61.72361618861539,44.12688497710906,3.0861808094307697,0.6931434883494382,B,510,Correct
1,relearn,3,228,A,21.981102776683727,41.837858335798686,1.0990551388341863,0.6571875419483783,A,529,Correct
1,relearn,3,229,A,25.103376997165924,38.51707145167521,1.2551688498582962,0.6050247435518799,A,656,Correct
1,relearn,3,230,B,82.15326930149624,54.075696158224126,4.107663465074812,0.8494190489421537,B,474,Correct
1,relearn,3,231,A,40.28262464089008,52.30324831406094,2.014131232044504,0.8215775033116829,A,612,Correct
1,relearn,3,232,A,44.84546985134907,75.5563399552907,2.2422734925674535,1.1868362126783711,A,574,Correct
1,relearn,3,233,A,53.474606057262925,65.93292810060929,2.6737303028631465,1.0356720127526908,A,1064,Correct
1,relearn,3,234,A,55.328148618537426,80.83291891836647,2.766407430926871,1.2697205212107976,A,1819,Correct
1,relearn,3,235,B,34.98078168330008,14.87687884063061,1.749039084165004,0.2336854663703528,B,520,Correct
1,relearn,3,236,A,22.968200270591687,45.056226709657096,1.1484100135295845,0.7077415541476747,A,844,Correct
1,relearn,3,237,B,63.63913176202101,30.318211105980588,3.1819565881010505,0.4762373464026654,B,699,Correct
1,relearn,3,238,A,40.63007888902714,66.27613670504755,2.031503944451357,1.0410631209044512,A,1528,Correct
1,relearn,3,239,B,76.7627790823779,52.156392503244916,3.8381389541188953,0.8192706976296998,B,1395,Correct
1,relearn,3,240,B,67.03493143460861,42.839827604828216,3.3517465717304304,0.6729264384219077,B,598,Correct
1,relearn,3,241,B,59.8479021161499,30.01495731523503,2.9923951058074953,0.47147384699676803,B,773,Correct
1,relearn,3,242,A,32.24070664499597,59.02289351410695,1.6120353322497982,0.9271294432876552,A,770,Correct
1,relearn,3,243,A,54.43432991940865,62.96707750336517,2.7217164959704325,0.9890845405129557,B,727,Incorrect
1,relearn,3,244,A,37.212597748460794,45.01350291087568,1.8606298874230396,0.707070450285749,A,1195,Correct
1,relearn,3,245,B,67.87389784775748,47.9997513826311,3.393694892387874,0.753978331589052,B,365,Correct
1,relearn,3,246,A,40.25473103481427,61.02940395157914,2.0127365517407134,0.9586476355362247,A,599,Correct
1,relearn,3,247,B,78.43451225311537,48.03857347300281,3.9217256126557687,0.7545881475585958,B,554,Correct
1,relearn,3,248,B,37.59683956973218,13.099244448057338,1.8798419784866092,0.20576245062796908,B,897,Correct
1,relearn,3,249,B,66.11162100791881,37.22144272320813,3.305581050395941,0.5846730550762196,B,606,Correct
1,relearn,3,250,A,26.600567703653432,36.805210197486836,1.3300283851826717,0.5781348898512638,A,750,Correct
1,relearn,3,251,A,56.594790259630244,71.8770063391169,2.8297395129815124,1.1290413753849833,A,897,Correct
1,relearn,3,252,A,49.2336862942886,56.444600287655916,2.46168431471443,0.8866297079925608,B,573,Incorrect
1,relearn,3,253,A,12.5358992209847,40.32764601113135,0.626794961049235,0.6334651822256998,A,803,Correct
1,relearn,3,254,B,44.89753861446501,36.1215956680451,2.2448769307232506,0.567396697933357,B,1075,Correct
1,relearn,3,255,A,31.36961672692776,64.31881786069295,1.5684808363463878,1.0103176283936648,A,777,Correct
1,relearn,3,256,A,16.611815059698138,42.227993541382496,0.8305907529849068,0.6633157714272225,A,700,Correct
1,relearn,3,257,A,25.28860969315003,44.1316626537884,1.2644304846575014,0.6932185359192233,A,590,Correct
1,relearn,3,258,B,66.851500095294,37.83364394488275,3.3425750047647,0.594289489378878,B,883,Correct
1,relearn,3,259,A,60.96907209133039,80.39136588025833,3.04845360456652,1.2627846223073438,A,694,Correct
1,relearn,3,260,B,63.50437654981204,46.9515889254417,3.175218827490602,0.7375138342126776,B,576,Correct
1,relearn,3,261,B,86.1409713389273,58.75076387771974,4.307048566946365,0.9228548409551647,A,2876,Incorrect
1,relearn,3,262,B,72.14087951532926,51.86276474389058,3.607043975766463,0.814658403571312,B,505,Correct
1,relearn,3,263,B,35.236715149777886,11.145306789079363,1.7618357574888943,0.17507006965288088,A,584,Incorrect
1,relearn,3,264,B,69.35141282436872,37.290019348667236,3.467570641218436,0.5857502541899712,B,725,Correct
1,relearn,3,265,B,63.646287347416134,54.53680167565297,3.182314367370807,0.8566620774725744,B,650,Correct
1,relearn,3,266,B,56.529485661473544,42.820754121333124,2.826474283073677,0.672626832843775,B,636,Correct
1,relearn,3,267,A,54.36777678361493,71.24600755049936,2.7183888391807467,1.1191296695912585,A,1160,Correct
1,relearn,3,268,B,41.306003068170575,14.806546950415346,2.0653001534085287,0.23258069562228603,B,737,Correct
1,relearn,3,269,B,86.31661551978218,61.4331526977041,4.3158307759891095,0.9649897060098359,A,1990,Incorrect
1,relearn,3,270,A,52.4732788627965,69.01134947157419,2.623663943139825,1.0840277425710767,B,1314,Incorrect
1,relearn,3,271,A,27.23742527953943,42.701123720296714,1.3618712639769714,0.670747682898565,A,919,Correct
1,relearn,3,272,A,45.44282362042927,73.56559022884463,2.2721411810214636,1.1555655890996768,A,783,Correct
1,relearn,3,273,A,67.90009903212514,89.47981696515203,3.395004951606257,1.4055456781114049,A,645,Correct
1,relearn,3,274,A,46.86132314764101,76.08283668618733,2.3430661573820504,1.1951064039879908,A,1599,Correct
1,relearn,3,275,A,37.55440511592353,45.437419304541145,1.8777202557961765,0.7137293134261274,B,606,Incorrect
1,relearn,3,276,A,50.40631891193945,65.95716592772699,2.5203159455969724,1.0360527396507506,A,1936,Correct
1,relearn,3,277,B,49.44751412241094,35.12380368917767,2.472375706120547,0.5517234181802533,B,415,Correct
1,relearn,3,278,A,28.84056653743633,42.421200572364114,1.4420283268718166,0.6663506603729911,A,1128,Correct
1,relearn,3,279,A,60.96597708870609,79.08180249915635,3.0482988544353042,1.242214048819943,A,922,Correct
1,relearn,3,280,A,19.78601534714122,33.806762194052865,0.989300767357061,0.5310353787524682,A,728,Correct
1,relearn,3,281,B,81.15448863724251,56.41669381049833,4.057724431862125,0.8861913540744314,B,714,Correct
1,relearn,3,282,B,43.26612653516511,26.34572699396775,2.1633063267582555,0.41383771188865687,B,1435,Correct
1,relearn,3,283,B,62.88030617498499,54.557219163536196,3.1440153087492497,0.856982794622268,B,723,Correct
1,relearn,3,284,A,34.3950858711072,44.058419986903296,1.71975429355536,0.6920680427981455,A,623,Correct
1,relearn,3,285,A,65.39711998379875,88.2650917670218,3.269855999189937,1.3864648193185232,A,713,Correct
1,relearn,3,286,B,46.1306672190827,19.587457157766302,2.3065333609541354,0.3076790575467171,B,545,Correct
1,relearn,3,287,B,71.46392536141134,57.80050615302942,3.573196268070567,0.9079282275206443,B,552,Correct
1,relearn,3,288,B,79.65273320247354,66.78061125432532,3.982636660123677,1.0489873885941214,A,1907,Incorrect
1,relearn,3,289,B,30.035068112444893,12.998775147281709,1.5017534056222448,0.20418428254182897,A,633,Incorrect
1,relearn,3,290,B,65.04077430789475,50.4756076445093,3.252038715394738,0.7928689908073562,B,844,Correct
1,relearn,3,291,B,34.71260405897371,20.91054833980972,1.7356302029486854,0.32846212523440227,B,549,Correct
1,relearn,3,292,B,57.585015141085144,35.11874842688887,2.8792507570542574,0.5516440103059109,B,695,Correct
1,relearn,3,293,B,77.57065682435564,55.701433783882564,3.878532841217782,0.8749560758493189,B,578,Correct
1,relearn,3,294,B,71.89814082528113,54.934865002377876,3.5949070412640567,0.8629148415870868,B,462,Correct
1,relearn,3,295,B,41.9183483062813,21.07964422710295,2.095917415314065,0.3311182772207656,B,913,Correct
1,relearn,3,296,B,48.30538129169796,19.14293670024005,2.415269064584898,0.3006965465280429,B,841,Correct
1,relearn,3,297,A,24.062591792880916,34.89830793969623,1.2031295896440457,0.5481813392303201,A,664,Correct
1,relearn,3,298,A,60.13708765559311,85.54235182494494,3.0068543827796557,1.3436961203202022,A,992,Correct
1,relearn,3,299,A,51.62126101253755,64.74164751299053,2.5810630506268772,1.0169594210405546,A,2041,Correct
1,relearn,3,300,A,28.960187221464224,54.41716714079583,1.4480093610732112,0.8547828625934604,A,1044,Incorrect
1,relearn,3,301,A,30.493206731180116,53.67142469679027,1.524660336559006,0.8430687676756705,A,653,Incorrect
1,relearn,3,302,B,54.05089470846302,41.69463815131664,2.7025447354231513,0.6549378445513053,B,497,Incorrect
1,relearn,3,303,A,39.660884996646594,58.72338882213171,1.9830442498323295,0.9224248345875298,B,950,Correct
1,relearn,3,304,A,30.57665209599095,40.4826240493547,1.5288326047995475,0.635899571557451,B,1776,Correct
1,relearn,3,305,B,39.515387912699964,13.812395331355336,1.9757693956349982,0.2169645985073194,B,531,Incorrect
1,relearn,3,306,A,56.42760609050637,64.04148101109999,2.8213803045253187,1.0059612313474098,B,1012,Correct
1,relearn,3,307,B,63.723610449814444,42.12377998384469,3.186180522490722,0.6616787886933964,B,484,Incorrect
1,relearn,3,308,A,28.099757733025122,49.166863117197586,1.404987886651256,0.7723112798452144,A,658,Incorrect
1,relearn,3,309,B,32.81572030379583,16.753897870378978,1.6407860151897915,0.2631696123428814,A,534,Correct
1,relearn,3,310,B,85.31410407982995,65.93695998970468,4.265705203991497,1.0357353455185014,A,731,Correct
1,relearn,3,311,B,74.12080889168365,62.31536895233491,3.706040444584182,0.978847526531964,A,486,Incorrect
1,relearn,3,312,A,45.574006981861615,60.65929593129297,2.2787003490930804,0.9528339923483959,B,375,Correct
1,relearn,3,313,A,30.72101764477216,43.329763828699996,1.536050882238608,0.6806223386301232,A,745,Incorrect
1,relearn,3,314,A,16.544367694694966,38.953771461904125,0.8272183847347483,0.6118844112716687,B,1078,Correct
1,relearn,3,315,A,45.37565607053836,62.42419623266151,2.268782803526918,0.9805569814538851,B,2072,Incorrect
1,relearn,3,316,A,44.20168397554788,62.45045629203088,2.2100841987773943,0.9809694735018734,A,628,Correct
1,relearn,3,317,A,69.818095739266,86.00639683046626,3.4909047869633003,1.3509853222216064,A,672,Correct
1,relearn,3,318,B,42.0586852563647,14.398002561127704,2.102934262818235,0.22616329536202912,B,620,Incorrect
1,relearn,3,319,A,36.311008813149705,66.78851555996353,1.8155504406574852,1.049111549136745,A,480,Incorrect
1,relearn,3,320,A,50.871645911962574,67.0923320953304,2.5435822955981284,1.0538838881144832,B,749,Incorrect
1,relearn,3,321,A,53.45668000780294,70.675754284487,2.672834000390147,1.1101721522353085,A,532,Correct
1,relearn,3,322,B,57.04670350974058,45.61375550899698,2.8523351754870294,0.7164991960485294,A,756,Incorrect
1,relearn,3,323,A,53.39899011573837,80.28537915442604,2.6699495057869185,1.26111978671108,A,637,Incorrect
1,relearn,3,324,B,78.30745343655221,64.51353038851366,3.9153726718276105,1.0133761656284819,B,572,Correct
1,relearn,3,325,A,48.77923878499619,65.02430102251013,2.4389619392498094,1.0213993319856454,A,1489,Correct
1,relearn,3,326,B,48.57027027515944,34.96543183354043,2.428513513757972,0.5492357188892265,B,1928,Correct
1,relearn,3,327,B,65.01451702410895,35.353110672659014,3.2507258512054475,0.5553253638538623,B,1057,Correct
1,relearn,3,328,A,49.21738661685221,67.5617280769362,2.4608693308426104,1.0612571429516702,A,700,Correct
1,relearn,3,329,A,36.81131379967215,50.32064984615661,1.8405656899836074,0.7904349194027497,A,907,Correct
1,relearn,3,330,B,34.96368054128078,22.4893164672967,1.748184027064039,0.3532613569895764,A,691,Correct
1,relearn,3,331,A,22.09216513789725,34.473463460177044,1.1046082568948625,0.5415078977514418,A,626,Correct
1,relearn,3,332,B,88.34600160764853,62.659529440681254,4.417300080382427,0.984253586841188,B,809,Incorrect
1,relearn,3,333,A,44.762005659585,67.45312766565135,2.23810028297925,1.0595512516803236,A,1106,Incorrect
1,relearn,3,334,A,19.19835621217565,46.818317652588256,0.9599178106087826,0.7354204139540229,A,611,Incorrect
1,relearn,3,335,A,22.63084996410962,49.89940907221368,1.131542498205481,0.783818084798692,B,634,Incorrect
1,relearn,3,336,A,46.23229520995709,76.87375228255831,2.3116147604978545,1.207530077123834,B,689,Correct
1,relearn,3,337,A,50.78184830544572,63.21945285650086,2.539092415272286,0.9930488432897469,B,519,Incorrect
1,relearn,3,338,A,59.47739161720177,82.74917987431576,2.9738695808600886,1.2998210779186536,B,4280,Correct
1,relearn,3,339,A,20.275587224542736,49.91705077236489,1.0137793612271369,0.7840951999766512,B,1292,Correct
1,relearn,3,340,A,31.498001948707255,54.20114246810424,1.5749000974353629,0.85138955496985,B,898,Correct
1,relearn,3,341,B,54.10379630207909,40.13053551735007,2.705189815103955,0.6303689778296562,A,764,Incorrect
1,relearn,3,342,B,71.4513441254118,60.17619347322129,3.5725672062705893,0.9452454366823503,A,689,Correct
1,relearn,3,343,A,51.2816724876656,71.98095028088741,2.5640836243832803,1.1306741230042403,A,1214,Incorrect
1,relearn,3,344,B,71.00075587499626,40.38526618404147,3.5500377937498127,0.6343702777852649,A,659,Incorrect
1,relearn,3,345,A,52.91268545748176,64.55827944405641,2.645634272874088,1.014079082149223,B,761,Correct
1,relearn,3,346,B,48.59068499385496,29.194238855391724,2.4295342496927477,0.45858203157622157,B,602,Correct
1,relearn,3,347,A,52.876367253130816,71.7514959196291,2.643818362656541,1.1270698623259239,A,784,Incorrect
1,relearn,3,348,B,45.28356975261181,19.84572096528395,2.2641784876305904,0.31173585594864495,B,430,Incorrect
1,relearn,3,349,B,51.494143456082064,39.31786750370427,2.574707172804103,0.617603618522271,B,423,Incorrect
1,relearn,3,350,B,64.28172883317477,56.471257753262364,3.2140864416587385,0.8870484424831235,A,736,Incorrect
1,relearn,3,351,B,59.795860104650366,38.87031430332658,2.989793005232518,0.6105734692902853,A,273,Correct
1,relearn,3,352,A,53.47338006226675,69.783227291757,2.6736690031133374,1.096152371017853,A,314,Correct
1,relearn,3,353,A,35.22087911626496,53.83780878350448,1.761043955813248,0.8456823227981486,B,1294,Correct
1,relearn,3,354,A,48.555840358880204,79.39152369552714,2.42779201794401,1.2470791379958401,A,639,Incorrect
1,relearn,3,355,B,66.43270066831161,41.019494658741536,3.3216350334155806,0.6443327153693408,A,2116,Incorrect
1,relearn,3,356,B,67.02364668031129,40.99164035530673,3.351182334015564,0.6438951809941327,B,720,Incorrect
1,relearn,3,357,A,51.217161645656226,68.99539166200472,2.5608580822828113,1.0837770778845224,B,586,Incorrect
1,relearn,3,358,B,75.3629479615638,47.625437814137406,3.7681473980781903,0.7480986278044579,B,471,Incorrect
1,relearn,3,359,A,47.81773688598289,78.46076832791734,2.3908868442991444,1.2324588668699792,B,576,Correct
1,relearn,3,360,B,88.65622126289952,63.64126968399937,4.432811063144976,0.9996747265218962,A,614,Incorrect
1,relearn,3,361,A,57.69046160988023,77.33155453021455,2.8845230804940116,1.2147212180140026,B,610,Incorrect
1,relearn,3,362,A,49.3721292113559,76.1869058198096,2.468606460567795,1.1967411181162564,B,313,Incorrect
1,relearn,3,363,B,75.5527570355116,57.44658654381194,3.77763785177558,0.9023688712992493,B,426,Correct
1,relearn,3,364,A,37.884687540803206,60.244814659791686,1.8942343770401604,0.9463233357604013,B,1503,Incorrect
1,relearn,3,365,A,42.95426418016111,54.93292422016866,2.1477132090080557,0.8628843558514333,A,549,Correct
1,relearn,3,366,A,48.629701744729786,61.99164921645877,2.4314850872364895,0.9737625488117116,A,881,Incorrect
1,relearn,3,367,B,69.8989763968175,54.133858506430684,3.494948819840875,0.8503326609713598,B,598,Correct
1,relearn,3,368,A,18.700731111723638,31.96459692209179,0.9350365555861819,0.5020987143270124,B,5314,Correct
1,relearn,3,369,B,54.988403763713954,30.257868891136937,2.7494201881856974,0.4752894931083947,A,2916,Incorrect
1,relearn,3,370,A,39.16909546794035,55.08740483364035,1.9584547733970175,0.8653109316534568,A,679,Correct
1,relearn,3,371,B,76.68094090332298,64.88788227071943,3.8340470451661486,1.0192564712434575,B,1639,Incorrect
1,relearn,3,372,B,58.97289034067701,50.900169123476154,2.94864451703385,0.7995379869239534,A,1153,Correct
1,relearn,3,373,B,36.69978678471266,16.604891565457454,1.834989339235633,0.2608290267784813,B,700,Incorrect
1,relearn,3,374,A,21.33268150874685,42.05734606066251,1.0666340754373425,0.6606352470683048,A,660,Correct
1,relearn,3,375,B,52.50145191222926,35.872613634868586,2.6250725956114627,0.563485697301841,B,9195,Incorrect
1,relearn,3,376,B,60.59019343588246,32.247488737563074,3.029509671794123,0.5065423685732388,A,8080,Incorrect
1,relearn,3,377,A,22.14740231955971,42.413635694601474,1.1073701159779856,0.6662318315509691,B,640,Correct
1,relearn,3,378,A,51.401305288033505,75.6382628592795,2.5700652644016753,1.1881230546450305,A,2976,Incorrect
1,relearn,3,379,A,32.04553482153878,45.65795882963519,1.602276741076939,0.7171935401854357,B,6785,Correct
1,relearn,3,380,B,57.86404002463741,35.25034440214001,2.8932020012318707,0.5537111150513657,B,675,Incorrect
1,relearn,3,381,B,41.61522197557183,13.948430309007666,2.0807610987785914,0.21910143093943846,B,1326,Incorrect
1,relearn,3,382,A,28.644404442499223,53.740304291337715,1.4322202221249611,0.844150725816733,B,724,Incorrect
1,relearn,3,383,B,74.50648107598015,54.40265857404116,3.7253240537990076,0.8545549625598073,A,568,Incorrect
1,relearn,3,384,A,11.145468281602987,32.239095603617116,0.5572734140801494,0.5064105295335126,A,712,Correct
1,relearn,3,385,B,67.61158415542158,58.77845324860684,3.3805792077710795,0.9232897845759719,A,959,Incorrect
1,relearn,3,386,B,86.34974722971744,67.320729491402,4.317487361485871,1.0574715460224715,A,594,Incorrect
1,relearn,3,387,B,62.21233379415851,53.82865933932102,3.1106166897079253,0.8455386036649927,B,414,Correct
1,relearn,3,388,B,38.010859957816734,17.810619691698708,1.9005429978908368,0.2797685598966118,A,2221,Incorrect
1,relearn,3,389,A,33.45565587194443,55.343927285034034,1.6727827935972215,0.8693403768973533,B,374,Correct
1,relearn,3,390,B,47.25802513141216,26.519547827818414,2.362901256570608,0.4165680831619874,B,499,Correct
1,relearn,3,391,B,37.91745210876401,21.21845049083523,1.8958726054382005,0.3332986409128335,B,574,Correct
1,relearn,3,392,B,30.74719329960164,12.586827924503368,1.537359664980082,0.19771343069809322,B,448,Incorrect
1,relearn,3,393,A,13.266544257224968,30.60057567300301,0.6633272128612484,0.480672718649624,A,554,Incorrect
1,relearn,3,394,A,66.71526653417618,81.02913318445859,3.335763326708809,1.2728026476952201,B,422,Correct
1,relearn,3,395,A,55.16076723784959,79.3760138847215,2.7580383618924795,1.2468355104574123,B,543,Correct
1,relearn,3,396,B,72.08149003277475,55.87817136194142,3.6040745016387374,0.8777322632335337,B,1012,Incorrect
1,relearn,3,397,A,21.821646176227222,49.523641589740954,1.091082308811361,0.7779155429867206,A,474,Incorrect
1,relearn,3,398,A,23.46733610668661,40.324577726813615,1.1733668053343305,0.6334169857283413,B,760,Correct
1,relearn,3,399,A,39.378205597164644,66.51120068773847,1.9689102798582323,1.0447554973101778,B,1378,Incorrect
1,relearn,3,400,B,55.221747670837864,36.24277633725501,2.761087383541893,0.5693001994340917,A,711,Correct
1,relearn,3,401,A,65.48493844114134,79.77317710010577,3.2742469220570674,1.2530741356560489,A,845,Correct
1,relearn,3,402,A,19.547358296118233,36.68194527128461,0.9773679148059117,0.5761986489182529,B,945,Correct
1,relearn,3,403,A,24.38245630247957,53.23790880477889,1.2191228151239786,0.8362591159678835,107,1597,Incorrect
1,relearn,3,404,B,52.71036138231723,45.582174724119405,2.6355180691158613,0.7160031262396992,A,965,Correct
1,relearn,3,405,A,36.74635827860695,51.64333066600383,1.8373179139303475,0.8112115411361306,A,2503,Correct
1,relearn,3,406,A,35.206287844553046,61.82702363439003,1.7603143922276525,0.9711766162156112,B,968,Correct
1,relearn,3,407,A,42.53501451312725,62.87952692262588,2.1267507256563625,0.9877092992066154,A,811,Incorrect
1,relearn,3,408,A,57.32941680296125,77.61857811764149,2.8664708401480623,1.21922977398234,A,912,Correct
1,relearn,3,409,A,21.819508616082345,45.07817302758075,1.0909754308041173,0.7080862861034863,B,671,Correct
1,relearn,3,410,B,74.85668530936235,45.98479212995798,3.742834265468117,0.7223274256616485,A,1465,Correct
1,relearn,3,411,A,11.369158272612022,35.113049003116075,0.5684579136306012,0.5515544839666393,B,923,Incorrect
1,relearn,3,412,B,53.569243816125216,42.345561906464475,2.678462190806261,0.6651625309874031,A,710,Incorrect
1,relearn,3,413,A,38.12386136929446,60.756890351297365,1.9061930684647228,0.9543670019129818,B,609,Incorrect
1,relearn,3,414,A,36.235340240486394,67.95917668737187,1.8117670120243197,1.067500251125291,B,563,Correct
1,relearn,3,415,B,41.16669480132987,32.64460635563446,2.0583347400664933,0.5127802775309594,A,524,Correct
1,relearn,3,416,B,86.13426264852895,64.94718760930665,4.306713132426447,1.020188037323579,B,2934,Incorrect
1,relearn,3,417,A,59.20979630653072,83.67387643124343,2.960489815326536,1.3143461774688723,B,895,Incorrect
1,relearn,3,418,A,40.329947499335866,58.13297524481333,2.0164973749667934,0.9131506398021145,A,412,Correct
1,relearn,3,419,B,32.8884744695482,17.103804651076803,1.6444237234774102,0.26866593520128906,A,482,Incorrect
1,relearn,3,420,A,17.999218470859095,40.474398141227184,0.8999609235429546,0.6357703592947385,B,927,Correct
1,relearn,3,421,A,34.85054869242865,57.63855198113636,1.7425274346214326,0.9053842573374572,B,594,Incorrect
1,relearn,3,422,B,51.95555815994567,29.053864402704882,2.5977779079972834,0.4563770348296583,A,340,Correct
1,relearn,3,423,B,51.00304523874983,19.765958060241797,2.5501522619374914,0.310482943166098,A,890,Correct
1,relearn,3,424,B,49.70875749316871,22.728019758253264,2.4854378746584356,0.35701089951586057,A,637,Correct
1,relearn,3,425,B,45.259974622419634,15.577164513084323,2.2629987311209816,0.24468552799032667,A,657,Incorrect
1,relearn,3,426,B,50.81560321996269,35.26892390487064,2.5407801609981346,0.5540029611977952,A,823,Correct
1,relearn,3,427,A,25.94530189854525,44.632593477440565,1.2972650949272626,0.701087138896935,B,1055,Correct
1,relearn,3,428,A,61.4273681534804,70.60528688185275,3.0713684076740204,1.109065252863142,A,992,Correct
1,relearn,3,429,A,36.7782300888517,56.29904009174591,1.838911504442585,0.8843432537819309,A,1411,Incorrect
1,relearn,3,430,B,79.9346635289469,65.24866496706146,3.9967331764473446,1.02492363258531,A,594,Incorrect
1,relearn,3,431,A,20.802436005983456,41.075954373001196,1.0401218002991728,0.6452195824870505,B,759,Incorrect
1,relearn,3,432,B,33.23908305798484,20.629962047200163,1.661954152899242,0.3240546860566014,A,467,Correct
1,relearn,3,433,B,70.8711888939462,40.18485532359963,3.5435594446973098,0.6312222313509464,A,859,Correct
1,relearn,3,434,B,79.46280981410243,64.79350684341975,3.9731404907051218,1.0177740254980374,107,850,Incorrect
1,relearn,3,435,B,66.2695367921519,57.09407147455042,3.3134768396075946,0.8968315775398908,B,528,Correct
1,relearn,3,436,A,22.200112776698344,37.81812868230135,1.1100056388349173,0.5940457762041569,A,660,Correct
1,relearn,3,437,B,50.48254355111354,29.458200275101134,2.524127177555677,0.4627283278611728,B,510,Incorrect
1,relearn,3,438,B,64.2736173239571,40.18514711960547,3.2136808661978544,0.6312268148718878,A,495,Incorrect
1,relearn,3,439,B,67.89335123446733,57.854940764270566,3.3946675617233666,0.9087832843945254,B,409,Incorrect
1,relearn,3,440,A,18.45694589797241,32.922944101749444,0.9228472948986206,0.5171523966230173,B,898,Correct
1,relearn,3,441,B,79.83270497765245,63.29345484032758,3.9916352488826226,0.9942112637334523,A,650,Incorrect
1,relearn,3,442,B,56.08818354092809,25.204531513516493,2.804409177046405,0.3959118552001792,A,678,Correct
1,relearn,3,443,A,27.721948502210516,57.63828340495527,1.3860974251105258,0.9053800385526699,B,985,Incorrect
1,relearn,3,444,B,77.17203631694645,58.807618995747916,3.8586018158473223,0.923747919060746,A,745,Incorrect
1,relearn,3,445,B,63.07603220219189,32.70460021713107,3.1538016101095945,0.5137226589036507,A,346,Correct
1,relearn,3,446,B,74.56431686308984,56.1718971934334,3.7282158431544925,0.8823460978054576,B,459,Incorrect
1,relearn,3,447,A,49.10063074833866,71.6025204803492,2.455031537416933,1.1247297615978888,A,447,Incorrect
1,relearn,3,448,A,65.7304039554966,82.01503722639526,3.28652019777483,1.288289192171684,A,333,Correct
1,relearn,3,449,A,56.3243752345243,65.12158331983281,2.8162187617262147,1.0229274387386118,A,706,Incorrect
1,relearn,3,450,B,32.35337515088692,17.136575145087317,1.6176687575443458,0.2691806929174788,B,467,Correct
1,relearn,3,451,A,21.552165906039406,47.7089634844624,1.0776082953019703,0.7494106459658539,B,736,Correct
1,relearn,3,452,B,36.181573308682204,11.391440978221627,1.8090786654341102,0.17893633645491394,B,637,Incorrect
1,relearn,3,453,A,25.54159525806504,55.56697033952157,1.277079762903252,0.8728439290044144,B,672,Incorrect
1,relearn,3,454,B,51.37002955999959,35.618406027916905,2.5685014779999795,0.5594926135494107,A,486,Correct
1,relearn,3,455,A,17.837806989089724,41.95564424757234,0.8918903494544863,0.6590377187240007,A,560,Correct
1,relearn,3,456,A,40.86411837856418,72.87726365540608,2.043205918928209,1.1447533805677508,B,778,Correct
1,relearn,3,457,A,56.81190673950228,67.11176654742054,2.8405953369751136,1.054189163774048,B,590,Correct
1,relearn,3,458,A,41.36365277099612,56.428680959221175,2.0681826385498057,0.8863796477662576,B,739,Correct
1,relearn,3,459,A,23.103453837340634,55.574849366908126,1.1551726918670318,0.8729676924771897,A,569,Correct
1,relearn,3,460,B,50.52610231716207,26.05461691877413,2.5263051158581034,0.40926496552058567,B,442,Incorrect
1,relearn,3,461,A,66.38652428393532,83.63157144563188,3.319326214196766,1.313681652308835,A,625,Incorrect
1,relearn,3,462,A,28.37082479618629,53.764188031928065,1.4185412398093147,0.8445258907366274,A,360,Correct
1,relearn,3,463,A,22.000812918159873,37.8583111675955,1.1000406459079937,0.5946769612071723,B,333,Correct
1,relearn,3,464,A,45.20721522389264,63.70283107096711,2.2603607611946317,1.0006417305271091,A,467,Incorrect
1,relearn,3,465,B,56.01653265428925,39.106573104841054,2.8008266327144624,0.6142846138662043,B,335,Incorrect
1,relearn,3,466,B,69.4475859384747,60.62118273307762,3.4723792969237355,0.9522353116308052,A,810,Correct
1,relearn,3,467,A,18.440692401931518,46.948985485252194,0.9220346200965759,0.7374729394698106,A,459,Correct
1,relearn,3,468,A,16.356388791747364,35.566846521057826,0.8178194395873681,0.5586827187095549,A,583,Correct
1,relearn,3,469,A,39.404851766989665,57.03577657495736,1.9702425883494834,0.8959158833983742,B,493,Incorrect
1,relearn,3,470,A,60.595986219499395,69.77726245406352,3.02979931097497,1.0960586755664643,A,454,Correct
1,relearn,3,471,A,16.2248188152549,46.31404562990891,0.811240940762745,0.7274993275447216,107,1051,Incorrect
1,relearn,3,472,A,50.83140254144839,59.8414473227294,2.54157012707242,0.9399872564463364,B,570,Correct
1,relearn,3,473,A,35.378442667049924,50.87091990178193,1.768922133352496,0.7990785412239646,B,400,Incorrect
1,relearn,3,474,A,51.69571209371848,73.47022862251914,2.5847856046859237,1.1540676524903435,A,1279,Incorrect
1,relearn,3,475,A,45.01438915475099,55.13603411363563,2.2507194577375493,0.8660747985973697,A,371,Incorrect
1,relearn,3,476,B,77.37877784328103,49.954440989862746,3.868938892164051,0.7846825241396882,B,363,Incorrect
1,relearn,3,477,A,65.91430201794061,88.9141857461152,3.2957151008970307,1.396660763699569,B,394,Incorrect
1,relearn,3,478,B,40.8582460017289,22.179833419709258,2.042912300086445,0.34840000864601994,B,259,Correct
1,relearn,3,479,B,42.85201428834459,17.805279502444176,2.1426007144172297,0.2796846763999577,B,462,Incorrect
1,relearn,3,480,B,73.49323079149089,42.82144499500751,3.674661539574544,0.672637685062075,A,2258,Incorrect
1,relearn,3,481,B,63.14159707811061,33.50085425882802,3.1570798539055307,0.5262301881425822,B,358,Correct
1,relearn,3,482,B,59.476391975908356,36.902273248421444,2.973819598795418,0.5796595526900197,B,379,Incorrect
1,relearn,3,483,A,63.90835682076269,88.81997723243197,3.1954178410381346,1.395180939827105,A,600,Correct
1,relearn,3,484,A,24.198936655969554,51.26668562851365,1.2099468327984777,0.8052952147221796,B,727,Incorrect
1,relearn,3,485,B,40.375278145273874,13.324863371518717,2.018763907263694,0.20930646439025466,B,656,Correct
1,relearn,3,486,B,66.300059960926,53.90988463227565,3.3150029980463,0.8468144875831524,B,901,Correct
1,relearn,3,487,B,35.216431279346644,14.301204736800031,1.7608215639673321,0.22464279869307266,B,1143,Correct
1,relearn,3,488,B,70.77903306107345,48.619454796450924,3.5389516530536724,0.7637126100503563,B,739,Incorrect
1,relearn,3,489,A,43.911942934164,66.49828210085303,2.1955971467082005,1.0445525726219076,A,570,Incorrect
1,relearn,3,490,A,24.24319322607534,47.21931440496193,1.212159661303767,0.7417192562108754,B,259,Correct
1,relearn,3,491,A,30.68005422474641,44.944256505207875,1.5340027112373205,0.7059827302890815,B,658,Correct
1,relearn,3,492,A,62.10100169894216,85.78085732992386,3.105050084947108,1.347442556031615,A,627,Incorrect
1,relearn,3,493,B,38.564001488928724,28.27753530581947,1.9282000744464363,0.4441824858919423,B,533,Correct
1,relearn,3,494,B,59.81570034501391,33.08083130465174,2.9907850172506953,0.5196324830066857,B,1089,Incorrect
1,relearn,3,495,B,66.58579932405175,58.1718042776756,3.329289966202588,0.9137605648240448,A,412,Correct
1,relearn,3,496,A,59.504561679774014,72.30334664357058,2.975228083988701,1.1357383132269876,A,698,Correct
1,relearn,3,497,A,24.137578437160396,51.33272346451833,1.2068789218580198,0.806332534624436,A,801,Incorrect
1,relearn,3,498,B,72.11799531585515,39.40234382874733,3.605899765792758,0.6189305695330586,B,506,Incorrect
1,relearn,3,499,A,54.425290964512904,81.22750319115806,2.7212645482256455,1.2759186364739181,B,546,Incorrect
1,relearn,3,500,A,45.686750170274955,67.51849488496397,2.284337508513748,1.0605780375602143,B,293,Correct
1,relearn,3,501,A,51.30079932718215,67.67311846347232,2.5650399663591075,1.063006859051782,B,552,Incorrect
1,relearn,3,502,B,45.44378530247376,24.088809386428814,2.2721892651236884,0.3783861330106481,B,276,Correct
1,relearn,3,503,A,28.839905733325168,40.7359577097921,1.4419952866662584,0.6398789273901369,A,693,Incorrect
1,relearn,3,504,A,54.97609060540859,67.34967741929778,2.748804530270429,1.0579262590105414,B,208,Correct
1,relearn,3,505,B,59.25739840371101,46.68779384029614,2.9628699201855504,0.7333701507049457,B,278,Correct
1,relearn,3,506,A,20.427739718483537,38.66076794187641,1.0213869859241769,0.6072819227416935,B,284,Incorrect
1,relearn,3,507,B,37.96914283248211,22.926793284386946,1.8984571416241056,0.3601332267630092,B,269,Correct
1,relearn,3,508,A,45.64033426316706,67.80972370224622,2.2820167131583533,1.065152649124652,B,355,Correct
1,relearn,3,509,B,65.03938695212375,56.937748483886296,3.2519693476061877,0.8943760617446028,B,276,Incorrect
1,relearn,3,510,A,63.686351104481915,78.24943822702392,3.1843175552240957,1.2291393014077332,A,1735,Incorrect
1,relearn,3,511,A,26.054530102546735,50.70983613547706,1.3027265051273367,0.7965482433397849,B,269,Correct
1,relearn,3,512,B,37.528850448894396,28.373414036406167,1.8764425224447197,0.44568854547017567,B,373,Incorrect
1,relearn,3,513,A,48.32112229600921,59.34400965437681,2.4160561148004605,0.9321735238237596,B,309,Correct
1,relearn,3,514,A,64.04787905351982,82.00936523433963,3.202393952675991,1.2882000967288176,A,1290,Incorrect
1,relearn,3,515,B,69.23277226394377,56.336235811962,3.461638613197189,0.8849275227888102,B,971,Correct
1,relearn,3,516,B,75.11352663011516,62.28819858982476,3.755676331505758,0.9784207354756779,B,6250,Correct
1,relearn,3,517,B,52.68443006323084,38.738543313389805,2.6342215031615424,0.608503615420577,B,921,Incorrect
1,relearn,3,518,A,21.11464086777034,35.193994018043426,1.055732043388517,0.5528259652878418,A,1299,Correct
1,relearn,3,519,B,72.82249672365502,56.49227280706715,3.641124836182751,0.8873785461763631,A,793,Correct
1,relearn,3,520,A,12.565767851630195,37.60282790604883,0.6282883925815098,0.5906638395192214,A,1045,Incorrect
1,relearn,3,521,A,39.790370686679154,53.63894987354339,1.9895185343339576,0.8425586543449753,B,366,Correct
1,relearn,3,522,B,59.65198592915602,52.10240785868267,2.982599296457801,0.8184227088158829,B,338,Incorrect
1,relearn,3,523,A,22.8674995196673,42.91416755042921,1.1433749759833651,0.6740941675567494,B,1466,Incorrect
1,relearn,3,524,B,66.5009336654567,35.3267897454913,3.325046683272835,0.5549119156967335,B,1635,Correct
1,relearn,3,525,A,21.162759023452107,40.455076792804405,1.0581379511726055,0.6354668602634262,B,793,Correct
1,relearn,3,526,A,48.85591739520678,63.39693315164462,2.442795869760339,0.9958366972466498,B,998,Correct
1,relearn,3,527,A,27.83711069962124,58.44405623766166,1.391855534981062,0.9180370886111329,B,627,Incorrect
1,relearn,3,528,B,42.76469825056801,17.0077489870296,2.1382349125284006,0.26715709635875723,B,294,Incorrect
1,relearn,3,529,A,31.129020217202324,50.840910406953405,1.5564510108601162,0.7986071531815085,B,975,Incorrect
1,relearn,3,530,A,48.51678366115078,66.53293909212651,2.425839183057539,1.045096963367809,B,419,Incorrect
1,relearn,3,531,B,42.54956202952266,22.50703462273121,2.1274781014761333,0.35353967312431744,B,379,Incorrect
1,relearn,3,532,A,37.104143602856645,51.40128919627464,1.8552071801428323,0.8074095626203042,B,281,Incorrect
1,relearn,3,533,A,47.46553225285244,58.825445123193866,2.3732766126426217,0.9240279312158768,B,258,Correct
1,relearn,3,534,A,45.221358240987854,59.54833866440339,2.2610679120493926,0.9353831164078336,B,260,Incorrect
1,relearn,3,535,B,79.31365594235186,52.526604225905714,3.9656827971175925,0.8250859697706198,B,303,Incorrect
1,relearn,3,536,A,15.564707950644792,41.42416145592286,0.7782353975322396,0.6506892065552236,A,672,Correct
1,relearn,3,537,B,51.29408383634183,39.68741779448037,2.5647041918170914,0.6234085009154418,A,527,Correct
1,relearn,3,538,A,52.854866519683846,72.94067386568611,2.6427433259841924,1.1457494258216423,B,625,Correct
1,relearn,3,539,B,40.26031679733063,21.561689971749214,2.0130158398665317,0.3386902340711402,A,343,Correct
1,relearn,3,540,A,31.210884189650685,52.74911024227903,1.5605442094825344,0.8285810861027095,B,647,Correct
1,relearn,3,541,A,41.84108010901961,50.439476977691974,2.09205400545098,0.7923014516201431,A,652,Incorrect
1,relearn,3,542,A,38.16135179302909,66.91896638063463,1.9080675896514547,1.0511606658361206,B,656,Incorrect
1,relearn,3,543,B,71.31830590953668,57.82488358509069,3.5659152954768336,0.9083111473280295,A,375,Correct
1,relearn,3,544,A,38.757047393226586,69.55257599694205,1.9378523696613292,1.0925293089511947,B,638,Incorrect
1,relearn,3,545,B,46.406854869311054,35.05247276081035,2.320342743465553,0.5506029545775907,A,497,Incorrect
1,relearn,3,546,A,20.519968131302228,38.67031784569024,1.0259984065651113,0.6074319322800136,A,308,Incorrect
1,relearn,3,547,B,48.89857754559908,27.28732129955292,2.4449288772799544,0.42862824065409877,B,455,Incorrect
1,relearn,3,548,A,49.081183122628524,61.58471038971195,2.454059156131426,0.9673703686688703,B,865,Incorrect
1,relearn,3,549,B,43.734255339168286,31.632021397211208,2.186712766958414,0.49687463019836936,B,7369,Correct
1,relearn,3,550,A,58.93406049910092,69.53940821026978,2.9467030249550463,1.0923224698418263,A,731,Correct
1,relearn,3,551,A,49.73370425276535,58.35700242065359,2.4866852126382675,0.9166696504512354,A,824,Correct
1,relearn,3,552,A,31.746098184796878,61.42208902116087,1.5873049092398441,0.9648159181850864,A,640,Incorrect
1,relearn,3,553,B,72.08902767749838,56.79228370158123,3.604451383874919,0.8920911062873749,B,436,Incorrect
1,relearn,3,554,A,31.165995473340686,47.661093148819674,1.558299773667034,0.7486587004919534,B,463,Correct
1,relearn,3,555,B,81.98093642581073,52.29503162654956,4.099046821290536,0.82144843588607,B,645,Incorrect
1,relearn,3,556,B,71.90500672071477,47.73065513767966,3.5952503360357384,0.7497513776578119,A,3346,Incorrect
1,relearn,3,557,B,53.22326505266876,46.080533681299514,2.661163252633438,0.7238313304333379,A,698,Incorrect
1,relearn,3,558,B,71.20105326135008,40.4655576448599,3.560052663067504,0.6356314931025306,B,561,Correct
1,relearn,3,559,B,53.829846780121756,31.552813176114903,2.691492339006088,0.49563043037086907,B,602,Incorrect
1,relearn,3,560,A,26.835435814826216,51.78651901354843,1.341771790741311,0.8134607384397594,B,1484,Correct
1,relearn,3,561,B,59.3919523853101,35.10554600083591,2.969597619265505,0.551436627082423,A,2229,Correct
1,relearn,3,562,B,71.56150337576486,45.21673206016683,3.578075168788243,0.7102627662977908,A,1359,Correct
1,relearn,3,563,B,58.924260194227266,32.090724551844474,2.9462130097113635,0.504079922502241,A,663,Incorrect
1,relearn,3,564,A,39.818773874425084,57.83645565668823,1.9909386937212543,0.9084929210036179,B,1286,Incorrect
1,relearn,3,565,B,36.755253444037365,15.300640732190022,1.837762672201868,0.24034190259732463,A,2841,Correct
1,relearn,3,566,A,34.80374046030422,62.31748800545005,1.740187023015211,0.9788808125404597,B,1234,Correct
1,relearn,3,567,B,67.26010560698585,41.47544542562241,3.3630052803492925,0.6514947732674987,A,2138,Incorrect
1,relearn,3,568,B,47.25267608970181,32.371449956777866,2.3626338044850907,0.5084895468513149,A,562,Correct
1,relearn,3,569,A,43.93488028549848,70.60085568549017,2.196744014274924,1.1089956477934457,B,437,Correct
1,relearn,3,570,A,19.273213881179885,46.64721856293323,0.9636606940589942,0.7327327957385424,A,1055,Correct
1,relearn,3,571,B,43.30399120159166,28.57869213765038,2.165199560079583,0.448913046344234,B,789,Incorrect
1,relearn,3,572,B,63.13369698996175,32.633564059627325,3.1566848494980877,0.5126068255508855,B,782,Incorrect
1,relearn,3,573,A,35.38574001679722,47.33193968404501,1.7692870008398611,0.7434883699577549,A,527,Correct
1,relearn,3,574,B,39.07805735986957,28.211498029335424,1.9539028679934785,0.4431451747786154,A,908,Incorrect
1,relearn,3,575,B,53.46732864406266,31.812960902049984,2.673366432203133,0.4997168212940977,A,779,Incorrect
1,relearn,3,576,B,72.21320404579244,44.78859436109784,3.610660202289622,0.7035375950471912,B,437,Incorrect
1,relearn,3,577,A,33.264196251929704,45.12205577778734,1.6632098125964854,0.7087755947318278,B,961,Correct
1,relearn,3,578,A,40.05600756697672,49.45655332118771,2.002800378348836,0.776861722928576,B,461,Correct
1,relearn,3,579,A,45.616703237147476,74.88125990864414,2.280835161857374,1.1762320801027215,A,498,Correct
1,relearn,3,580,B,78.46559496007141,55.58499541406147,3.923279748003571,0.8731270662131893,A,606,Incorrect
1,relearn,3,581,B,46.84180594291304,30.5444906373094,2.342090297145652,0.47979173696906713,B,329,Incorrect
1,relearn,3,582,B,44.03610627408664,16.989706889063044,2.201805313704332,0.26687369174662173,B,400,Correct
1,relearn,3,583,A,26.309756004376034,51.07136894869993,1.3154878002188015,0.802227187490048,A,625,Correct
1,relearn,3,584,B,52.441733054851554,31.250471989583403,2.6220866527425777,0.49088126611844407,A,535,Incorrect
1,relearn,3,585,A,68.25458958711319,85.13862011657939,3.4127294793556593,1.3373543174750901,A,1645,Incorrect
1,relearn,3,586,B,65.95511404784486,53.295587968818474,3.297755702392243,0.8371651381579434,B,1025,Correct
1,relearn,3,587,A,59.842216915573346,79.05688422286836,2.992110845778667,1.2418226334513105,B,728,Correct
1,relearn,3,588,A,39.78791036059129,66.0946573361779,1.9893955180295646,1.038212449644356,A,547,Correct
1,relearn,3,589,B,45.760771709171514,33.62045643716994,2.2880385854585756,0.5281088947667438,B,959,Incorrect
1,relearn,3,590,A,43.13040126994137,51.05669274485875,2.156520063497069,0.8019966542191977,B,1309,Incorrect
1,relearn,3,591,B,77.7344417411662,64.2699988823744,3.8867220870583092,1.0095507816754579,B,999,Incorrect
1,relearn,3,592,B,55.67831856525839,47.911978771263506,2.7839159282629193,0.7525996026337577,A,519,Correct
1,relearn,3,593,A,50.76641022488397,69.17805033844343,2.5383205112441987,1.0866462736645939,B,699,Correct
1,relearn,3,594,B,53.125454524994154,22.196018841708625,2.656272726249708,0.3486542486602622,A,466,Incorrect
1,relearn,3,595,A,42.42924152206628,62.578888660364996,2.1214620761033136,0.9829868844260815,B,853,Correct
1,relearn,3,596,A,24.089835220516335,50.64408988053884,1.2044917610258168,0.79551550358221,B,1262,Incorrect
1,relearn,3,597,A,52.43411054568695,77.75908155893814,2.6217055272843477,1.221436796877248,A,610,Incorrect
1,relearn,3,598,A,23.52573756902201,52.13957196646325,1.1762868784511005,0.8190064812557865,B,4592,Incorrect
1,relearn,3,599,A,36.65778303857102,47.402275429997985,1.8328891519285508,0.7445932012716082,B,5963,Incorrect
1,relearn,3,600,A,52.19199783076518,62.805355236621985,2.609599891538259,0.9865442130873444,B,515,Incorrect
1,relearn,3,601,B,82.9105487162035,56.70266954869922,4.145527435810175,0.8906834504656157,A,1400,Incorrect
1,relearn,3,602,B,52.259149857941274,26.233378475194908,2.6129574928970634,0.4120729454825647,B,389,Correct
1,relearn,3,603,B,71.10520873283825,50.79104962211367,3.5552604366419125,0.7978239418047347,B,687,Correct
1,relearn,3,604,B,77.8644748391722,61.529169289444084,3.89322374195861,0.9664979311060011,B,432,Correct
1,relearn,3,605,B,51.13245646772683,31.68446413724552,2.5566228233863417,0.49769839883249894,B,417,Correct
1,relearn,3,606,B,36.561144068438814,15.110590603944246,1.8280572034219407,0.23735660216377102,B,321,Correct
1,relearn,3,607,A,27.359555625723967,48.99700306189817,1.3679777812861982,0.7696431243358794,B,660,Incorrect
1,relearn,3,608,B,43.78862203056087,35.021556221738244,2.1894311015280437,0.5501173187174739,B,440,Correct
1,relearn,3,609,A,52.875699080435496,59.93274100904288,2.6437849540217746,0.9414212943175441,A,531,Correct
1,relearn,3,610,A,35.4082293456098,44.44216486321143,1.77041146728049,0.6980958932194574,B,407,Incorrect
1,relearn,3,611,A,31.32864348727822,50.51921820388733,1.566432174363911,0.793554023872161,A,548,Correct
1,relearn,3,612,B,51.46395665588412,29.605007865965916,2.5731978327942056,0.46503437610593273,B,676,Correct
1,relearn,3,613,B,57.62500143482257,35.70172728495089,2.8812500717411287,0.56080142079434,B,712,Correct
1,relearn,3,614,A,64.55488276970149,86.24873900395417,3.227744138485075,1.3547920241810294,A,1414,Correct
1,relearn,3,615,A,48.12803535147169,65.92423805496051,2.4064017675735845,1.035535509834843,A,2244,Correct
1,relearn,3,616,A,50.34989956793103,79.53985589400243,2.5174949783965515,1.2494091347209442,A,636,Correct
1,relearn,3,617,B,71.74438756824341,43.62960216399078,3.58721937841217,0.6853321881871939,B,655,Correct
1,relearn,3,618,A,35.83765998591209,50.763729654636826,1.7918829992956047,0.797394800759127,A,675,Correct
1,relearn,3,619,B,87.97095672021506,60.672560642194824,4.398547836010753,0.9530423539400024,B,752,Correct
1,relearn,3,620,B,66.90023793191918,35.74146885539039,3.3450118965959588,0.5614256799230142,B,470,Correct
1,relearn,3,621,A,21.477958359413922,35.3445877087951,1.073897917970696,0.555191485450554,A,663,Correct
1,relearn,3,622,A,30.259868539416015,41.00608995820288,1.5129934269708007,0.6441221548256617,A,457,Correct
1,relearn,3,623,B,53.92159524559061,24.88371312605785,2.6960797622795303,0.3908724517542962,B,470,Correct
1,relearn,3,624,B,67.94628307946496,44.433447433986416,3.3973141539732477,0.6979589601613999,B,532,Correct
1,relearn,3,625,A,31.73326814817183,59.9088384296124,1.5866634074085915,0.9410458334778409,A,601,Correct
1,relearn,3,626,A,21.290610249386663,44.36081958355251,1.0645305124693332,0.6968181245545539,A,608,Correct
1,relearn,3,627,B,59.31931783828565,42.77996313054442,2.965965891914282,0.6719860894588027,B,381,Correct
1,relearn,3,628,B,46.73785854142572,20.828164642343154,2.336892927071286,0.3271680451407196,A,639,Incorrect
1,relearn,3,629,A,47.39215815702678,65.6241990930161,2.369607907851339,1.0308225088416667,A,1022,Correct
1,relearn,3,630,B,82.31579593890204,65.72311186703878,4.115789796945102,1.032376227062746,B,655,Correct
1,relearn,3,631,A,63.36159278946867,85.68768914904419,3.1680796394734334,1.345979073668615,B,543,Incorrect
1,relearn,3,632,A,59.0649611859253,67.43267081116872,2.953248059296265,1.0592299161615324,B,380,Incorrect
1,relearn,3,633,A,24.87697197200569,55.11186788616999,1.2438485986002845,0.8656951963840143,A,564,Correct
1,relearn,3,634,A,67.14688279348114,88.06783765117441,3.357344139674057,1.3833663589123406,A,751,Correct
1,relearn,3,635,B,59.51374743290925,50.84247714162008,2.975687371645462,0.7986317633921033,B,613,Correct
1,relearn,3,636,B,55.43813111923448,34.024908233997834,2.771906555961724,0.5344620087349723,B,551,Correct
1,relearn,3,637,A,64.31766164486207,84.16378577520331,3.2158830822431037,1.3220416554484191,A,687,Correct
1,relearn,3,638,B,53.78676503390605,31.057079107895824,2.689338251695302,0.4878434578366128,B,535,Correct
1,relearn,3,639,B,55.777836527121174,27.356619521480155,2.7888918263560587,0.4297167745786659,B,649,Correct
1,relearn,3,640,B,67.24163918379774,47.76937304593477,3.3620819591898874,0.7503595571384949,B,753,Correct
1,relearn,3,641,B,61.66257011302278,52.887687011400864,3.0831285056511386,0.8307578449018663,B,688,Correct
1,relearn,3,642,B,42.13373697196455,24.092960334948806,2.1066868485982275,0.3784513359575273,B,1033,Correct
1,relearn,3,643,A,54.72814727206376,76.51591235969052,2.736407363603188,1.201909140759621,A,971,Correct
1,relearn,3,644,B,35.40574183975835,20.09860581415899,1.7702870919879174,0.3157081618657949,B,737,Correct
1,relearn,3,645,A,34.77270621832757,46.447196702194226,1.7386353109163786,0.7295908596972672,A,1050,Correct
1,relearn,3,646,A,41.71508776033842,49.22398875929326,2.085754388016921,0.7732086073329114,A,554,Correct
1,relearn,3,647,A,67.38087893727317,80.01457318724329,3.369043946863658,1.2568659765258319,A,711,Correct
1,relearn,3,648,A,12.290559169014909,36.2491989354086,0.6145279584507455,0.569401085369973,A,597,Correct
1,relearn,3,649,B,38.55295492843607,13.421837460723609,1.9276477464218036,0.21082972982142784,B,1490,Correct
1,relearn,3,650,B,67.09277591157891,53.69836017344036,3.3546387955789454,0.8434918691534949,B,692,Correct
1,relearn,3,651,B,63.31829367834872,55.300469958738574,3.165914683917436,0.8686577508121807,B,956,Correct
1,relearn,3,652,B,76.45920113140902,58.3818663379658,3.822960056570451,0.9170602119510731,B,984,Correct
1,relearn,3,653,A,51.1343703221159,69.71604375358619,2.556718516105795,1.0950970544680547,A,644,Correct
1,relearn,3,654,A,17.805892612088122,38.22198868115364,0.8902946306044061,0.6003895942315225,A,586,Correct
1,relearn,3,655,A,41.71802058465122,73.73022380602966,2.085901029232561,1.1581516472827702,A,638,Correct
1,relearn,3,656,A,64.29373836302011,89.17610266177195,3.2146869181510054,1.4007749449899598,A,689,Correct
1,relearn,3,657,B,72.90186133641619,47.493469299954064,3.6450930668208095,0.7460256712311404,B,565,Correct
1,relearn,3,658,B,81.68679579006707,54.706874234228444,4.084339789503353,0.8593335709755642,B,485,Correct
1,relearn,3,659,A,25.919979132219424,47.4137897686823,1.2959989566109713,0.7447740680807161,A,581,Correct
1,relearn,3,660,A,42.46356379934443,61.98469040540318,2.1231781899672213,0.9736532400632618,B,375,Incorrect
1,relearn,3,661,A,44.72934303212116,73.06912294085122,2.236467151606058,1.147767099176138,A,1118,Correct
1,relearn,3,662,B,68.14400086795726,57.02425402212609,3.407200043397863,0.8957348875617476,B,617,Correct
1,relearn,3,663,A,39.45372618916081,66.69364664859756,1.9726863094580407,1.047621351761738,B,1111,Incorrect
1,relearn,3,664,A,48.64442228595743,63.71510175355004,2.432221114297872,1.0008344779583946,B,726,Incorrect
1,relearn,3,665,B,45.03656026219247,27.28984719011842,2.2518280131096233,0.42866791725032033,B,651,Correct
1,relearn,3,666,B,61.579151180423075,32.60416480290346,3.0789575590211538,0.5121450231061621,B,561,Correct
1,relearn,3,667,B,71.01544070634313,47.417821572197475,3.5507720353171566,0.744837399502236,B,765,Correct
1,relearn,3,668,B,50.895031978244916,23.330737335026075,2.544751598912246,0.36647836507275505,B,586,Correct
1,relearn,3,669,B,76.38975910532642,54.7908727673136,3.8194879552663212,0.8606530168478274,B,593,Correct
1,relearn,3,670,B,66.25579400512851,35.304779529308256,3.3127897002564253,0.5545661800294106,B,414,Correct
1,relearn,3,671,B,40.44077865451717,20.709719714082382,2.0220389327258586,0.3253075165583246,B,340,Correct
1,relearn,3,672,B,34.5254691581228,15.958030573371087,1.72627345790614,0.2506681580753196,A,865,Incorrect
1,relearn,3,673,B,33.4829485253816,20.623817833907836,1.67414742626908,0.3239581729798951,A,560,Incorrect
1,relearn,3,674,B,67.10597448674389,38.54815294047653,3.3552987243371946,0.6055129704362842,B,518,Correct
1,relearn,3,675,B,45.844525862248,19.29482386606134,2.2922262931124,0.3030823845496366,B,637,Correct
1,relearn,3,676,A,43.341155864805195,56.84659910526169,2.1670577932402595,0.8929442906532712,B,707,Incorrect
1,relearn,3,677,A,20.930300212996197,37.98573739287475,1.04651501064981,0.596678567673232,A,636,Correct
1,relearn,3,678,A,39.986256109258434,52.21450796322911,1.9993128054629217,0.8201835731404316,A,658,Correct
1,relearn,3,679,B,53.26045131494097,26.694757599239495,2.6630225657470485,0.41932027181565545,B,497,Correct
1,relearn,3,680,A,45.66513907223552,66.67861572274761,2.283256953611776,1.0473852465306037,A,962,Correct
1,relearn,3,681,A,31.393064468099308,55.06240565029408,1.5696532234049654,0.8649182453997251,A,981,Correct
1,relearn,3,682,A,38.99905512634759,47.0221541147611,1.9499527563173797,0.7386222696145026,B,981,Incorrect
1,relearn,3,683,A,44.52222090836895,71.48407610292527,2.2261110454184476,1.1228692416680186,A,505,Correct
1,relearn,3,684,A,23.12354408342159,34.13847573792853,1.1561772041710794,0.5362459229151484,A,696,Correct
1,relearn,3,685,A,51.886997964425234,75.50384409652769,2.5943498982212616,1.1860116096572024,A,879,Correct
1,relearn,3,686,B,47.97376674784989,36.73377760534712,2.3986883373924943,0.577012829317799,B,578,Correct
1,relearn,3,687,A,61.06116540569681,76.084321098934,3.0530582702848403,1.1951297210888898,A,529,Correct
1,relearn,3,688,B,67.12773054347073,44.42406391643572,3.356386527173537,0.6978115642123893,B,586,Correct
1,relearn,3,689,A,21.722147039201626,45.62487950536059,1.0861073519600815,0.7166739313748016,A,775,Correct
1,relearn,3,690,A,36.71338275868189,66.54596765335383,1.8356691379340944,1.0453016155290018,A,837,Correct
1,relearn,3,691,B,45.340443297499995,31.873042543274977,2.2670221648749997,0.5006605815075379,B,433,Correct
1,relearn,3,692,A,39.96837705902456,54.28687632705313,1.9984188529512281,0.8527362592770388,B,686,Incorrect
1,relearn,3,693,A,67.67366751462374,87.19556936188546,3.383683375731187,1.3696648006643932,A,471,Correct
1,relearn,3,694,A,14.6277607284119,40.60922231093456,0.731388036420595,0.6378881724001337,A,636,Correct
1,relearn,3,695,B,66.25222238287053,37.889862511616776,3.312611119143526,0.5951725685601128,B,581,Correct
1,relearn,3,696,A,26.255154949345783,47.26284851672566,1.3127577474672893,0.7424030884393631,A,600,Correct
1,relearn,3,697,B,80.02483161508047,62.62624167482171,4.001241580754024,0.9837307038377942,B,831,Correct
1,relearn,3,698,B,58.84922373792541,49.012945237193065,2.9424611868962707,0.7698935434398229,B,601,Correct
1,relearn,3,699,A,39.68520033793143,70.85443869614646,1.9842600168965714,1.1129789204102103,B,1374,Incorrect
1,relearn,3,700,A,46.30301514661998,72.88820897664061,2.315150757330999,1.144925309271659,A,610,Correct
1,relearn,3,701,B,54.070074295170585,43.37109098463146,2.7035037147585292,0.6812715040774635,B,611,Correct
1,relearn,3,702,A,41.334416070703135,51.26927253802202,2.0667208035351567,0.8053358498017146,B,477,Incorrect
1,relearn,3,703,A,59.07008312654166,70.70330462457319,2.953504156327083,1.1106049119654018,A,449,Correct
1,relearn,3,704,B,30.571900969833433,15.29395157688543,1.5285950484916717,0.24023682959150652,B,1676,Correct
1,relearn,3,705,A,63.908639587924355,77.73901188600345,3.195431979396218,1.2211215431919902,A,1338,Correct
1,relearn,3,706,A,29.612552914315998,49.055255182737554,1.4806276457157999,0.7705581465103047,A,708,Correct
1,relearn,3,707,B,81.94254464720282,53.5577145732351,4.09712723236014,0.8412826132316719,B,481,Correct
1,relearn,3,708,A,33.97372647581253,56.20260283375179,1.6986863237906267,0.8828284208756976,A,800,Correct
1,relearn,3,709,B,60.727507820884064,33.94434997966929,3.0363753910442033,0.5331966026350495,B,495,Correct
1,relearn,3,710,B,68.10321507780806,35.304831875706135,3.405160753890403,0.5545670022847058,B,521,Correct
1,relearn,3,711,A,61.93729693058564,71.00387983839187,3.096864846529282,1.1153263363833217,A,581,Correct
1,relearn,3,712,B,47.01317566972422,29.807972541389454,2.3506587834862107,0.4682225377721769,B,450,Correct
1,relearn,3,713,B,38.87882371728517,16.754414918995888,1.9439411858642586,0.2631777341235635,B,593,Correct
1,relearn,3,714,B,39.0970374497653,23.983444278382336,1.9548518724882653,0.3767310617637305,B,350,Correct
1,relearn,3,715,A,22.62991717774897,46.371089708328334,1.1314958588874484,0.7283953738331878,A,589,Correct
1,relearn,3,716,A,13.748866979248433,39.4194689718537,0.6874433489624217,0.6191995706519319,A,512,Correct
1,relearn,3,717,A,46.12584214072131,67.88194156599971,2.306292107036066,1.0662870446757815,A,470,Correct
1,relearn,3,718,A,39.55790657382117,57.5465026038989,1.9778953286910588,0.9039383491009733,B,997,Incorrect
1,relearn,3,719,B,80.7005156878585,53.996585616654265,4.035025784392925,0.8481763834610667,B,657,Correct
1,relearn,3,720,A,49.76205427912638,60.29133079616675,2.488102713956319,0.9470540095219475,B,536,Incorrect
1,relearn,3,721,A,22.319583278518184,48.670425163887295,1.1159791639259091,0.7645132507098007,A,586,Correct
1,relearn,3,722,B,48.20235523259055,41.099120363427595,2.4101177616295275,0.645583473013734,B,708,Correct
1,relearn,3,723,A,58.36996203479849,77.6722945371433,2.9184981017399245,1.22007354952676,A,541,Correct
1,relearn,3,724,A,42.462817293724264,67.16708115060014,2.123140864686213,1.0550580435289743,A,688,Correct
1,relearn,3,725,B,36.95837395794061,17.881527459475404,1.8479186978970303,0.28088237650826037,B,570,Correct
1,relearn,3,726,A,27.189443747708708,60.22285890234705,1.3594721873854354,0.9459784555289408,A,496,Correct
1,relearn,3,727,A,42.1933919654948,55.52754122085376,2.10966959827474,0.8722245778566929,B,455,Incorrect
1,relearn,3,728,A,61.55763019716836,79.92686487589233,3.0778815098584182,1.2554882575928372,A,409,Correct
1,relearn,3,729,A,20.425225527940785,52.23690895102662,1.0212612763970392,0.8205354470339208,A,662,Correct
1,relearn,3,730,B,37.04727659342286,26.385792696199083,1.8523638296711429,0.4144670624676113,B,513,Correct
1,relearn,3,731,A,44.65983073635999,63.06995347984389,2.2329915368179996,0.9907005125726379,A,518,Correct
1,relearn,3,732,A,29.578050644950448,47.10996231240061,1.4789025322475222,0.740001557557649,B,1583,Incorrect
1,relearn,3,733,B,54.25997165680342,35.808657800070065,2.712998582840171,0.5624810813980547,B,575,Correct
1,relearn,3,734,B,38.35073862847787,25.270928400328224,1.9175369314238935,0.39695481505932406,B,538,Correct
1,relearn,3,735,A,50.259445748588455,69.7798689228668,2.512972287429423,1.0960996178826852,A,633,Correct
1,relearn,3,736,B,53.21315759161418,42.52496491435893,2.6606578795807088,0.6679805868455687,A,473,Incorrect
1,relearn,3,737,A,23.760524655433237,50.341124524210095,1.188026232771662,0.790756534893537,A,1106,Correct
1,relearn,3,738,B,50.86698104186085,43.335840015586946,2.543349052093043,0.6807177831505528,B,1572,Correct
1,relearn,3,739,B,59.214804495469124,29.389586662223312,2.960740224773456,0.4616505477504066,B,569,Correct
1,relearn,3,740,B,47.13109249477354,26.977745646235938,2.3565546247386773,0.42376543766314423,B,450,Correct
1,relearn,3,741,B,52.850828255074106,40.59648840860612,2.6425414127537055,0.6376881487301009,B,614,Correct
1,relearn,3,742,B,65.41742874471832,40.155930521197526,3.2708714372359164,0.6307678816172815,B,429,Correct
1,relearn,3,743,B,50.06248094881895,22.81894903135466,2.5031240474409473,0.35843921319771865,B,311,Correct
1,relearn,3,744,A,37.389892215477786,45.915531344910676,1.8694946107738895,0.7212394797942162,B,323,Incorrect
1,relearn,3,745,A,51.6992996197688,67.99919289126399,2.58496498098844,1.0681288241861513,A,447,Correct
1,relearn,3,746,B,44.6836722912701,33.051398410518765,2.2341836145635052,0.5191701521867755,B,409,Correct
1,relearn,3,747,A,37.99286069227444,57.49765554949133,1.8996430346137219,0.9031710613645918,A,1410,Correct
1,relearn,3,748,A,39.172843083736055,58.807276674529646,1.9586421541868027,0.9237425418916236,A,451,Correct
1,relearn,3,749,B,47.50905693734467,24.955529780863106,2.3754528468672333,0.39200054513000415,B,561,Correct
1,relearn,3,750,A,62.78476471645422,80.86909936415337,3.139238235822711,1.2702888423242362,A,440,Correct
1,relearn,3,751,A,47.01085315766112,58.843684324685405,2.350542657883056,0.9243144319229426,A,470,Correct
1,relearn,3,752,A,20.33740620085207,38.342912108474295,1.0168703100426035,0.6022890549861099,A,718,Correct
1,relearn,3,753,B,65.34166100206777,50.16010760338637,3.2670830501033885,0.7879131277503608,A,626,Incorrect
1,relearn,3,754,A,19.9072106849067,42.24067913150412,0.9953605342453351,0.6635150362108851,B,325,Incorrect
1,relearn,3,755,B,57.04244940763132,37.39864105437979,2.8521224703815657,0.5874564799534059,B,562,Correct
1,relearn,3,756,A,51.57082666609467,65.64824233961866,2.5785413333047336,1.031200179276142,A,392,Correct
1,relearn,3,757,B,58.728577684515976,49.07139110105852,2.9364288842257986,0.770811608922585,B,1848,Correct
1,relearn,3,758,A,27.150560425205953,38.7064123178951,1.3575280212602976,0.6079989029235837,A,533,Correct
1,relearn,3,759,B,85.80361090943633,69.36136054568723,4.2901805454718165,1.0895257036666197,A,1099,Incorrect
1,relearn,3,760,B,70.3350052802168,56.50738443616984,3.5167502640108403,0.887615919091227,B,1330,Correct
1,relearn,3,761,A,51.626367847269485,73.27269076277777,2.5813183923634746,1.1509647350454968,A,838,Correct
1,relearn,3,762,B,58.06259314364135,29.325348301780206,2.9031296571820677,0.46064149394417303,B,551,Correct
1,relearn,3,763,B,72.47567132167842,53.925282803199536,3.623783566083921,0.8470563614864184,B,714,Correct
1,relearn,3,764,B,68.86559745714767,41.52375985855579,3.4432798728573832,0.6522536946053281,B,451,Correct
1,relearn,3,765,B,42.088911318688204,28.355457734881668,2.10444556593441,0.44540648854540066,B,1970,Correct
1,relearn,3,766,B,45.0506681333883,19.762531331115536,2.2525334066694147,0.3104291162308534,B,590,Correct
1,relearn,3,767,A,33.88808078527608,43.8281666612823,1.6944040392638042,0.6884512320169679,B,1041,Incorrect
1,relearn,3,768,A,20.845479636682168,44.23405413718707,1.0422739818341085,0.6948268975794005,A,579,Correct
1,relearn,3,769,A,18.263580487915522,32.595976963715515,0.913179024395776,0.5120164088289539,A,757,Correct
1,relearn,3,770,A,14.415641715464371,38.41170617745442,0.7207820857732186,0.6033696696947024,A,474,Correct
1,relearn,3,771,B,76.98951827474677,52.94875691931563,3.8494759137373387,0.8317171287721684,B,981,Correct
1,relearn,3,772,B,59.76656361491255,29.659046724681147,2.9883281807456274,0.4658832165136736,B,666,Correct
1,relearn,3,773,A,16.68725380239139,37.557734747511496,0.8343626901195694,0.589955517841281,A,589,Correct
1,relearn,3,774,B,75.96772742458926,61.59007240347921,3.798386371229463,0.9674545949841686,A,1083,Incorrect
1,relearn,3,775,B,43.40077242817547,31.79535189427086,2.1700386214087732,0.49944021964671825,B,710,Correct
1,relearn,3,776,B,68.65381323741013,57.184434853193416,3.432690661870507,0.8982510021723827,B,759,Correct
1,relearn,3,777,B,57.644251853771934,50.6497760489502,2.882212592688597,0.795604821706751,B,436,Correct
1,relearn,3,778,B,52.36260320139985,43.52719212916849,2.6181301600699927,0.6837235351219361,B,673,Correct
1,relearn,3,779,B,44.94092912647663,24.47567371438666,2.2470464563238317,0.3844629836638897,B,414,Correct
1,relearn,3,780,B,79.97991882238085,66.22969215885277,3.9989959411190426,1.040333571678827,B,1839,Correct
1,relearn,3,781,B,39.368246560939895,24.17779917259214,1.9684123280469947,0.3797839813029243,B,746,Correct
1,relearn,3,782,B,66.77303084294327,56.30043120576703,3.3386515421471636,0.8843651053498763,B,397,Correct
1,relearn,3,783,A,48.9380128667149,72.76513687455144,2.446900643335745,1.1429920972127328,A,649,Correct
1,relearn,3,784,B,65.50112508171709,34.35919177465708,3.2750562540858543,0.5397129223127276,B,545,Correct
1,relearn,3,785,B,57.18666204099301,44.97634980856233,2.859333102049651,0.7064868507193206,B,490,Correct
1,relearn,3,786,B,62.226575667366504,32.33130106267724,3.111328783368325,0.5078588894975335,B,404,Correct
1,relearn,3,787,A,44.94002688511214,61.404641302491996,2.2470013442556067,0.9645418500611261,B,1477,Incorrect
1,relearn,3,788,B,54.918274717816495,25.450921768072572,2.745913735890825,0.3997821442683267,B,422,Correct
1,relearn,3,789,B,33.891761846530926,14.9449935910296,1.6945880923265464,0.23475541036762568,B,741,Correct
1,relearn,3,790,A,50.562415830002664,71.06738078291185,2.5281207915001334,1.1163238068873216,A,787,Correct
1,relearn,3,791,A,12.121358822060738,35.54739233861976,0.606067941103037,0.5583771331264097,A,570,Correct
1,relearn,3,792,A,37.20062059244234,68.76285649283219,1.860031029622117,1.080124423988654,A,918,Correct
1,relearn,3,793,B,73.26939505021191,55.27137661277273,3.6634697525105957,0.8682007536024076,B,866,Correct
1,relearn,3,794,A,45.64123373783045,63.31785483786571,2.2820616868915224,0.9945945379985192,A,1009,Correct
1,relearn,3,795,B,84.77674697442785,61.511766315357406,4.238837348721392,0.9662245658282946,A,1652,Incorrect
1,relearn,3,796,A,24.2377752853097,35.76028931004116,1.211888764265485,0.5617213109333545,A,586,Correct
1,relearn,3,797,B,70.86385898857178,46.36230968547564,3.543192949428589,0.7282574575567259,B,502,Correct
1,relearn,3,798,B,76.2585842436354,43.87543401125003,3.8129292121817695,0.6891937058140342,B,515,Correct
1,relearn,3,799,B,35.67302444219682,14.53167939515507,1.783651222109841,0.22826308616070667,B,959,Correct
1,relearn,3,800,B,58.688500502940784,46.096304362436065,2.934425025147039,0.7240790557133413,B,871,Correct
1,relearn,3,801,B,52.08227525262681,29.2221981862602,2.6041137626313406,0.45902121571850013,B,432,Correct
1,relearn,3,802,B,64.30862084344963,31.708744712678218,3.215431042172481,0.49807979721952045,B,348,Correct
1,relearn,3,803,B,81.77113516100874,68.44008233536806,4.088556758050437,1.0750542993793644,B,308,Correct
1,relearn,3,804,B,56.636969629171496,33.48865081113734,2.8318484814585747,0.5260384968345146,B,377,Correct
1,relearn,3,805,B,74.37871631808432,58.35094992625265,3.718935815904216,0.9165745780915061,B,307,Correct
1,relearn,3,806,B,48.32867371433521,37.79215377086028,2.4164336857167603,0.5936377632493522,B,355,Correct
1,relearn,3,807,B,44.122276040176004,27.66735090182139,2.2061138020088005,0.434597731687265,B,383,Correct
1,relearn,3,808,B,33.67095139137385,15.026372705564558,1.6835475695686923,0.236033710509519,B,340,Correct
1,relearn,3,809,A,50.60888510196298,63.03527890297013,2.530444255098149,0.9901558455927731,B,627,Incorrect
1,relearn,3,810,A,28.754620435816918,56.70027042520204,1.4377310217908459,0.8906457651218468,A,667,Correct
1,relearn,3,811,B,75.08772268256818,53.640629229699,3.7543861341284095,0.8425850336097815,B,455,Correct
1,relearn,3,812,A,20.687368694514934,43.77306116699647,1.0343684347257467,0.6875856369368639,A,463,Correct
1,relearn,3,813,A,48.59907469073911,64.27768488194191,2.4299537345369555,1.009671513074342,A,812,Correct
1,relearn,3,814,B,74.0905285873397,54.65180462972911,3.704526429366985,0.858468539650908,B,534,Correct
1,relearn,3,815,B,52.200056981026506,38.25949406318537,2.610002849051325,0.6009787273948274,B,704,Correct
1,relearn,3,816,B,61.465244901217766,41.52602133153536,3.073262245060888,0.6522892177398226,B,457,Correct
1,relearn,3,817,A,47.57660537983221,71.14143438565974,2.3788302689916105,1.1174870381591444,A,827,Correct
1,relearn,3,818,B,46.6688819392854,30.166848225568497,2.33344409696427,0.47385974383702134,B,592,Correct
1,relearn,3,819,B,56.21678328321158,43.42935864988925,2.8108391641605794,0.6821867704230421,B,461,Correct
1,relearn,3,820,B,60.03357026443265,45.49249891165989,3.0016785132216324,0.7145945018715619,B,560,Correct
1,relearn,3,821,A,31.17028180167256,62.97637485737935,1.5585140900836278,0.9892305830082996,A,718,Correct
1,relearn,3,822,B,37.059249513244595,22.475410469232955,1.8529624756622298,0.35304292208278687,B,331,Correct
1,relearn,3,823,A,51.51390971213837,67.75563508713128,2.5756954856069183,1.0643030271452123,A,474,Correct
1,relearn,3,824,B,45.01399992262428,27.731306140352327,2.250699996131214,0.43560233822490196,B,427,Correct
1,relearn,3,825,A,27.065527004827672,50.718105988909706,1.3532763502413838,0.7966781458937361,A,864,Correct
1,relearn,3,826,B,61.02186654920262,43.22914225334795,3.051093327460131,0.6790417786205302,B,412,Correct
1,relearn,3,827,B,46.586373644899346,24.720165944667194,2.3293186822449674,0.38830345863643523,B,366,Correct
1,relearn,3,828,B,61.44640521030248,46.81848300807399,3.0723202605151236,0.735423011351919,B,1149,Correct
1,relearn,3,829,B,54.13691899597118,23.400348989857115,2.706845949798559,0.3675718223898622,B,453,Correct
1,relearn,3,830,B,83.62467429593049,64.02842834284051,4.181233714796525,1.0057562005138412,B,2257,Correct
1,relearn,3,831,B,75.7769020326121,60.6384317880046,3.788845101630605,0.9525062591520052,B,453,Correct
1,relearn,3,832,A,50.761478897336175,77.1809721516513,2.538073944866809,1.2123558755427308,A,479,Correct
1,relearn,3,833,B,33.53462628160495,13.905972414383434,1.6767313140802473,0.2184345038902466,B,620,Correct
1,relearn,3,834,B,45.390977754299186,24.422538754307492,2.269548887714959,0.3836283416627221,B,347,Correct
1,relearn,3,835,A,22.625514950729986,37.76963167338404,1.1312757475364992,0.5932839869694784,B,409,Incorrect
1,relearn,3,836,B,43.42537295633464,32.478784436413356,2.171268647816732,0.5101755529148135,B,452,Correct
1,relearn,3,837,B,54.50013462460889,26.22125979120961,2.7250067312304447,0.41188258563966773,B,558,Correct
1,relearn,3,838,B,83.65107352720317,59.65292518571995,4.1825536763601585,0.9370259576429967,B,1672,Correct
1,relearn,3,839,A,19.103244433449884,45.611364257011516,0.9551622216724942,0.7164616343501772,A,569,Correct
1,relearn,3,840,B,61.5287901962329,44.74863964119419,3.076439509811645,0.7029099877745633,B,453,Correct
1,relearn,3,841,A,29.429318678806556,38.90634008789965,1.4714659339403278,0.611139360991058,A,808,Correct
1,relearn,3,842,B,60.91771239885533,42.6010605207461,3.045885619942766,0.6691758938355507,B,739,Correct
1,relearn,3,843,A,31.700497260120358,62.7110282509081,1.585024863006018,0.9850625282605743,A,767,Correct
1,relearn,3,844,B,39.159251487433025,25.694516301073357,1.9579625743716513,0.40360851824497623,B,467,Correct
1,relearn,3,845,A,21.698497723491744,38.85067596181915,1.0849248861745873,0.610264990943243,A,577,Correct
1,relearn,3,846,A,36.268868522866384,61.506975291228564,1.8134434261433194,0.9661493085972629,A,680,Correct
1,relearn,3,847,B,32.0169549102665,15.67226630824392,1.6008477455133248,0.2461793834954096,B,544,Correct
1,relearn,3,848,A,19.960285681850706,41.59771107764857,0.9980142840925353,0.6534153176384574,A,604,Correct
1,relearn,3,849,A,67.72787627636092,80.16704386520402,3.386393813818046,1.2592609803346784,A,632,Correct
1,relearn,3,850,B,61.196986306124,51.23418770215115,3.0598493153062005,0.8047847384885928,B,409,Correct
1,relearn,3,851,A,46.00477659286591,68.59189896981053,2.3002388296432956,1.0774390294966503,B,475,Incorrect
1,relearn,3,852,B,61.77221915477722,53.10416810069299,3.0886109577388607,0.8341583219006726,B,315,Correct
1,relearn,3,853,A,52.41347814035747,81.04533225553087,2.6206739070178737,1.2730571021085983,A,405,Correct
1,relearn,3,854,B,70.70336134713247,52.933638517066655,3.535168067356624,0.8314796494649718,B,439,Correct
1,relearn,3,855,B,76.82797191330181,57.37557419202933,3.84139859566509,0.9012534118858775,B,437,Correct
1,relearn,3,856,A,29.349968358390672,50.20368996010329,1.4674984179195336,0.7885977178088007,A,559,Correct
1,relearn,3,857,B,64.21541161110265,32.1943255758304,3.2107705805551325,0.5057072835815338,B,685,Correct
1,relearn,3,858,A,41.32274892989375,69.56418990199568,2.0661374464946873,1.0927117397451744,B,306,Incorrect
1,relearn,3,859,B,61.116684674464146,28.36198099477518,3.0558342337232074,0.44550895567219523,B,399,Correct
1,relearn,3,860,B,57.742350237739345,43.68999027275809,2.8871175118869674,0.6862807623815316,B,575,Correct
1,relearn,3,861,A,38.1042409418784,51.398036594393076,1.90521204709392,0.8073584708694231,B,872,Incorrect
1,relearn,3,862,A,14.954695556778656,36.68130272161285,0.7477347778389328,0.5761885557716111,A,591,Correct
1,relearn,3,863,A,23.73761147709604,43.2360979611907,1.1868805738548018,0.6791510386238266,A,450,Correct
1,relearn,3,864,A,27.115255194077523,55.13922077230858,1.3557627597038762,0.8661248545147519,A,413,Correct
1,relearn,3,865,A,23.718418232096944,54.71979617183555,1.1859209116048472,0.8595365482968472,A,408,Correct
1,relearn,3,866,A,52.202623612474284,80.60242978955318,2.610131180623714,1.266100006441737,A,532,Correct
1,relearn,3,867,A,34.495546695272644,66.86939703454297,1.7247773347636324,1.0503820323684965,A,728,Correct
1,relearn,3,868,A,11.13721269411867,35.303630870515505,0.5568606347059335,0.5545481369392867,A,559,Correct
1,relearn,3,869,B,68.27294119520529,52.91001837245032,3.413647059760265,0.8311086251009545,B,1306,Correct
1,relearn,3,870,B,43.738041737530175,26.404920366121758,2.186902086876509,0.41476751920415816,B,554,Correct
1,relearn,3,871,B,56.6074881362815,29.452810566115943,2.8303744068140753,0.46264366651040845,B,592,Correct
1,relearn,3,872,B,70.20456267835293,46.568254287523835,3.5102281339176464,0.7314924278009313,B,407,Correct
1,relearn,3,873,A,53.38814688278762,71.8054024308345,2.669407344139381,1.1279166238238418,A,672,Correct
1,relearn,3,874,A,20.634126939179737,46.2207115332763,1.0317063469589869,0.7260332389831693,A,612,Correct
1,relearn,3,875,A,48.908149474402286,67.6354319311053,2.445407473720114,1.0624148803856646,A,488,Correct
1,relearn,3,876,B,59.561750245327566,26.68588901348005,2.978087512266378,0.41918096439630753,B,400,Correct
1,relearn,3,877,B,79.62057284153636,62.832108473117685,3.981028642076818,0.9869644519435176,A,997,Incorrect
1,relearn,3,878,A,62.76592962411415,83.1105481456475,3.1382964812057077,1.305497437450935,A,487,Correct
1,relearn,3,879,B,66.22765350411882,33.15200166030646,3.3113826752059414,0.520750424339077,B,394,Correct
1,relearn,3,880,B,79.76779944430885,56.58411535874029,3.988389972215442,0.8888212056044793,B,695,Correct
1,relearn,3,881,B,42.1512112355015,25.31943798943665,2.1075605617750752,0.39771680190318254,B,625,Correct
1,relearn,3,882,B,50.31818178973543,29.949065371485073,2.5159090894867715,0.47043881876468985,B,436,Correct
1,relearn,3,883,B,45.36880720478603,37.93438894356962,2.2684403602393015,0.595871988117681,B,473,Correct
1,relearn,3,884,A,42.85712671382186,67.23628023083253,2.1428563356910932,1.0561450201394407,A,599,Correct
1,relearn,3,885,B,84.46647838622123,66.20730511497956,4.223323919311062,1.0399819168159885,A,358,Incorrect
1,relearn,3,886,B,58.92435461510084,46.61938571248469,2.9462177307550417,0.7322955983460544,B,305,Correct
1,relearn,3,887,A,37.72732539669391,53.72416340533988,1.8863662698346955,0.8438971853723669,A,746,Correct
1,relearn,3,888,A,15.534158595128648,31.299814108490704,0.7767079297564323,0.4916563303098027,A,621,Correct
1,relearn,3,889,B,45.830303556231904,30.034852021275427,2.291515177811595,0.47178635230847715,A,572,Incorrect
1,relearn,3,890,A,25.804292533108423,52.75581414078847,1.290214626655421,0.828686390694248,A,522,Correct
1,relearn,3,891,B,59.132885016951015,47.953915107043414,2.9566442508475506,0.753258337055781,B,394,Correct
1,relearn,3,892,A,48.33959708952898,59.64208816047303,2.416979854476449,0.9368557300484842,B,1515,Incorrect
1,relearn,3,893,B,88.00478363691789,63.37652055027576,4.400239181845894,0.9955160568541442,B,616,Correct
1,relearn,3,894,A,36.779613268419396,65.38943608485329,1.8389806634209698,1.027134860132772,A,534,Correct
1,relearn,3,895,A,64.2197556160535,87.59606692200784,3.2109877808026748,1.3759558016276987,A,563,Correct
1,relearn,3,896,A,65.50047463793265,85.19893306665708,3.2750237318966327,1.338301711079492,A,404,Correct
1,relearn,3,897,A,35.23900167557486,67.63225432551732,1.761950083778743,1.0623649666738086,A,524,Correct
1,relearn,3,898,B,89.25383787984694,65.32721945075814,4.462691893992347,1.02615756352975,A,750,Incorrect
