experiment,condition,subject,trial,cat,x,y,xt,yt,resp,rt,fb
1,new_learn,34,0,B,44.23669709136881,19.63196016238597,2.2118348545684405,0.30837810910859625,A,5993,Incorrect
1,new_learn,34,1,A,52.334703980583654,67.41521881269541,2.6167351990291827,1.0589557808105616,B,1775,Incorrect
1,new_learn,34,2,A,24.76479956663021,41.46075475827806,1.2382399783315106,0.651264012804472,B,15548,Incorrect
1,new_learn,34,3,A,57.92114889789549,72.16037206840207,2.8960574448947742,1.1334924738519905,A,3048,Correct
1,new_learn,34,4,B,85.10479664260355,61.10562431984299,4.255239832130178,0.9598449022811827,B,4170,Correct
1,new_learn,34,5,A,21.615241654671603,46.80326259313966,1.0807620827335802,0.7351839296332076,A,954,Correct
1,new_learn,34,6,B,88.69138740229577,64.13725561780872,4.434569370114789,1.0074656553515928,B,728,Correct
1,new_learn,34,7,B,77.71278800103342,66.29313646423803,3.8856394000516707,1.041330152497379,B,627,Correct
1,new_learn,34,8,A,11.898484661995088,36.138722983070764,0.5949242330997544,0.5676657331686586,A,498,Correct
1,new_learn,34,9,B,45.79352917296896,29.06427464667376,2.289676458648448,0.45654055855953185,B,588,Correct
1,new_learn,34,10,A,47.424897996964674,61.637525434366474,2.3712448998482336,0.9681999854502986,B,2210,Incorrect
1,new_learn,34,11,A,20.00836039263101,38.555607297925604,1.0004180196315504,0.6056300632092805,A,1232,Correct
1,new_learn,34,12,B,47.55145359234134,24.912965551015382,2.377572679617067,0.39133194777102753,B,592,Correct
1,new_learn,34,13,A,59.71837965689265,69.83943701619098,2.985918982844632,1.0970353113045632,B,895,Incorrect
1,new_learn,34,14,B,84.08279505733815,61.05051799783061,4.204139752866907,0.9589792941991806,B,1011,Correct
1,new_learn,34,15,B,31.39831315875492,12.575887474668125,1.569915657937746,0.1975415785139464,A,809,Incorrect
1,new_learn,34,16,A,23.703326632556784,49.36827114049655,1.1851663316278391,0.7754749896770649,A,2800,Correct
1,new_learn,34,17,B,44.913007193009264,21.827039815733066,2.245650359650463,0.3428583396735946,B,4934,Correct
1,new_learn,34,18,A,48.23109319416241,55.49461899465768,2.4115546597081208,0.8717074367369058,B,2358,Incorrect
1,new_learn,34,19,A,59.57882096695502,83.19924496381391,2.9789410483477514,1.306890683812677,B,2574,Incorrect
1,new_learn,34,20,B,81.52989328475532,62.699612845053814,4.0764946642377655,0.9848832154847265,B,871,Correct
1,new_learn,34,21,A,18.870886250580913,49.74622302733239,0.9435443125290456,0.7814118440325342,A,607,Correct
1,new_learn,34,22,A,38.85397213486493,59.33616544286316,1.9426986067432466,0.9320503072374373,A,814,Correct
1,new_learn,34,23,B,44.74162694660662,28.695340616285378,2.237081347330331,0.45074535636189483,A,780,Incorrect
1,new_learn,34,24,A,66.4022870751337,86.97787235259926,3.320114353756685,1.366245224038983,B,5890,Incorrect
1,new_learn,34,25,B,41.834365370958835,26.10098977011678,2.091718268547942,0.409993388566106,B,8610,Correct
1,new_learn,34,26,A,49.55236732780108,78.50728904377358,2.477618366390054,1.2331896125658477,A,2800,Correct
1,new_learn,34,27,B,59.04535407193394,32.56670626487072,2.9522677035966973,0.5115566257666727,B,653,Correct
1,new_learn,34,28,B,47.596599329333124,21.93308232408662,2.379829966466656,0.34452405149965337,A,4128,Incorrect
1,new_learn,34,29,A,53.21860801207551,64.46346754445337,2.660930400603775,1.0125897803128938,B,1027,Incorrect
1,new_learn,34,30,B,50.278646232520785,25.302034246787326,2.5139323116260393,0.39744342455292203,B,1873,Correct
1,new_learn,34,31,B,35.9333282130461,25.42997376876057,1.7966664106523051,0.39945309386459676,A,890,Incorrect
1,new_learn,34,32,B,59.87058940035978,29.699232322843976,2.993529470017989,0.4665144504135158,B,3546,Correct
1,new_learn,34,33,A,46.593239876023546,64.52890930575012,2.329661993801177,1.013617737095533,B,2973,Incorrect
1,new_learn,34,34,B,83.4766878072415,65.60905563941296,4.173834390362075,1.0305846360287185,B,1536,Correct
1,new_learn,34,35,A,58.282935335372684,79.29825407927567,2.9141467667686345,1.2456140622897462,B,820,Incorrect
1,new_learn,34,36,B,79.59528328998859,49.59602599504194,3.979764164499429,0.7790525545663608,B,797,Correct
1,new_learn,34,37,A,22.624584788866418,47.59794073884883,1.1312292394433208,0.747666704755849,A,799,Correct
1,new_learn,34,38,B,75.85592100660922,52.51080925740145,3.7927960503304607,0.8248378629855364,B,1004,Correct
1,new_learn,34,39,A,57.332970457423045,72.64154457524253,2.866648522871152,1.141050713914987,A,733,Correct
1,new_learn,34,40,B,63.45236773224775,39.5590237292255,3.1726183866123874,0.6213916916545956,B,2631,Correct
1,new_learn,34,41,B,63.68927411450188,31.407318879362176,3.184463705725094,0.4933450113017811,A,1014,Incorrect
1,new_learn,34,42,A,54.10842833675675,82.84365111440525,2.705421416837838,1.301305028687857,A,701,Correct
1,new_learn,34,43,B,41.93164614624075,28.61656406812675,2.0965823073120378,0.4495079372370432,B,1625,Correct
1,new_learn,34,44,B,64.93849573916175,46.07582284752327,3.2469247869580875,0.7237573328294192,B,603,Correct
1,new_learn,34,45,A,42.64349599914765,53.839690106576214,2.1321747999573826,0.8457118745518544,B,587,Incorrect
1,new_learn,34,46,B,67.00969012481129,44.715011026951856,3.3504845062405644,0.7023817507372927,B,561,Correct
1,new_learn,34,47,A,42.20331594868981,74.14948240569998,2.1101657974344907,1.1647373459661634,A,676,Correct
1,new_learn,34,48,A,28.058078258815037,56.87538573398387,1.402903912940752,0.8933964699598472,A,871,Correct
1,new_learn,34,49,B,79.6770471188052,58.66099196591692,3.98385235594026,0.9214447070620723,B,529,Correct
1,new_learn,34,50,A,64.603529291136,87.12794656677607,3.2301764645568,1.368602584282739,A,1295,Correct
1,new_learn,34,51,B,80.83377081566226,66.14387933711669,4.041688540783113,1.0389856270270776,B,613,Correct
1,new_learn,34,52,A,43.052943832649994,51.29756660849479,2.1526471916324996,0.8057802920214016,A,1930,Correct
1,new_learn,34,53,A,28.177132799916365,40.66312740324119,1.4088566399958182,0.6387349116100416,A,669,Correct
1,new_learn,34,54,A,36.197154937290975,58.049359654643844,1.8098577468645487,0.9118372091831041,A,763,Correct
1,new_learn,34,55,B,45.645499793754354,21.015009596354847,2.2822749896877177,0.3301029988151369,B,1183,Correct
1,new_learn,34,56,A,44.28676544658614,61.92097442918233,2.214338272329307,0.9726523918492032,B,2814,Incorrect
1,new_learn,34,57,B,82.12859542503622,68.00396105640668,4.106429771251811,1.0682037223490681,B,683,Correct
1,new_learn,34,58,B,36.36801491957516,11.027309174159495,1.818400745978758,0.17321656745201397,A,582,Incorrect
1,new_learn,34,59,B,38.17363058808759,19.256377342512465,1.9086815294043793,0.30247846796995054,B,854,Correct
1,new_learn,34,60,A,45.195504217218826,62.64840026154315,2.2597752108609415,0.9840787701040843,B,3388,Incorrect
1,new_learn,34,61,B,65.09594435039979,35.75042923543383,3.2547972175199895,0.5615664292436033,B,822,Correct
1,new_learn,34,62,A,11.979516918600673,30.251445730553073,0.5989758459300336,0.47518859833787924,A,681,Correct
1,new_learn,34,63,A,48.40141488891204,62.14797727512457,2.420070744445602,0.9762181442149837,B,807,Incorrect
1,new_learn,34,64,A,29.48558269600712,40.910049888406846,1.474279134800356,0.6426135609370544,A,748,Correct
1,new_learn,34,65,A,59.91697543937244,85.67246114243326,2.9958487719686224,1.3457398727001268,A,2047,Correct
1,new_learn,34,66,B,88.24980624835464,65.87849282350903,4.412490312417732,1.0348169454195195,B,1078,Correct
1,new_learn,34,67,A,64.00442161329005,86.81264008063704,3.2002210806645026,1.3636497615803207,B,997,Incorrect
1,new_learn,34,68,B,46.46796765895342,31.791270493895354,2.323398382947671,0.49937610915953795,B,1450,Correct
1,new_learn,34,69,A,24.93380212095665,39.61998633438608,1.2466901060478324,0.6223492900171765,A,628,Correct
1,new_learn,34,70,B,76.44867729579298,55.986981552337,3.822433864789649,0.8794414497074459,B,1803,Correct
1,new_learn,34,71,A,29.724542314370012,62.99385668158002,1.4862271157185005,0.9895051868607004,A,526,Correct
1,new_learn,34,72,B,33.47398755311218,14.231311755831467,1.673699377655609,0.22354492231533096,A,599,Incorrect
1,new_learn,34,73,B,56.79767758503921,27.369622442093593,2.8398838792519605,0.42992102397803783,B,566,Correct
1,new_learn,34,74,A,65.68208382362559,83.16414952135392,3.2841041911812794,1.3063394058916429,A,910,Correct
1,new_learn,34,75,A,54.95049783021332,74.04295600154566,2.747524891510666,1.1630640331226405,A,602,Correct
1,new_learn,34,76,B,37.40457288913162,12.647295380817617,1.8702286444565812,0.19866325128078377,B,978,Correct
1,new_learn,34,77,A,19.93483316424774,47.008699856904876,0.9967416582123869,0.7384109306262996,A,2374,Correct
1,new_learn,34,78,B,82.67057319784102,66.92577955439212,4.133528659892051,1.0512676869192414,B,857,Correct
1,new_learn,34,79,B,60.55272394908825,50.091757791041104,3.0276361974544126,0.78683949140867,B,811,Correct
1,new_learn,34,80,A,60.347793261614065,71.70066703114372,3.017389663080703,1.1262714440126451,A,1523,Correct
1,new_learn,34,81,B,43.80591201230869,36.07298834708867,2.190295600615434,0.5666331759212198,B,850,Correct
1,new_learn,34,82,B,46.67499610071053,27.374172177170948,2.3337498050355263,0.42999249104951176,B,731,Correct
1,new_learn,34,83,A,59.936975644253735,82.43262900136665,2.9968487822126866,1.2948487084339322,A,709,Correct
1,new_learn,34,84,A,18.601443294523833,41.7478972617901,0.9300721647261916,0.6557744367023061,A,1296,Correct
1,new_learn,34,85,B,88.94065509405223,67.15351341009543,4.447032754702612,1.0548449219594973,B,556,Correct
1,new_learn,34,86,A,37.04221593308267,59.873510094932634,1.8521107966541337,0.9404908972943733,B,2509,Incorrect
1,new_learn,34,87,A,43.306840505146745,57.87467819032791,2.165342025257337,0.9090933191580379,A,767,Correct
1,new_learn,34,88,B,72.2415673881321,40.87129868501266,3.612078369406605,0.6420048584575497,B,740,Correct
1,new_learn,34,89,B,72.3722722693017,59.534905127511635,3.618613613465085,0.9351721029037792,B,588,Correct
1,new_learn,34,90,B,66.5874241031371,44.69262152315173,3.3293712051568547,0.7020300572340127,B,532,Correct
1,new_learn,34,91,B,65.42706987363137,41.134743073148506,3.271353493681568,0.6461430332295349,B,604,Correct
1,new_learn,34,92,A,32.00585170288171,58.2248786400732,1.600292585144086,0.9145942549590561,A,1444,Correct
1,new_learn,34,93,B,65.95284925196287,46.782485590773454,3.297642462598144,0.7348575652432212,B,502,Correct
1,new_learn,34,94,A,28.712002566343443,42.62100926878439,1.4356001283171722,0.6694892480369776,A,1343,Correct
1,new_learn,34,95,B,57.03678791853859,40.77770010890638,2.85183939592693,0.64053461546214,B,493,Correct
1,new_learn,34,96,A,51.9642318795672,68.21028888304748,2.5982115939783603,1.0714447122710975,A,1575,Correct
1,new_learn,34,97,A,49.56829801621589,59.74465303689093,2.4784149008107947,0.9384668153598383,A,866,Correct
1,new_learn,34,98,B,76.46572732331211,49.67974485745451,3.8232863661656054,0.7803676073819718,B,613,Correct
1,new_learn,34,99,A,51.98766643087683,80.78155232310938,2.5993833215438418,1.2689136566192996,A,1034,Correct
1,new_learn,34,100,B,54.64338936991557,26.555770366085845,2.732169468495778,0.4171370654625641,B,397,Correct
1,new_learn,34,101,A,34.390993605766724,54.04368161097085,1.719549680288336,0.8489161656098589,A,655,Correct
1,new_learn,34,102,A,49.62172429006922,74.90011431840338,2.4810862145034607,1.1765282444786587,A,707,Correct
1,new_learn,34,103,A,38.795469305510196,67.07507281469005,1.9397734652755099,1.0536127799681534,A,707,Correct
1,new_learn,34,104,A,26.672682681116417,37.25022553747495,1.3336341340558209,0.585125174465471,B,695,Incorrect
1,new_learn,34,105,A,61.96094492962487,81.52294440876817,3.0980472464812436,1.2805594162679759,A,1573,Correct
1,new_learn,34,106,A,32.47477557873142,40.60262086198382,1.623738778936571,0.6377844770825003,B,1316,Incorrect
1,new_learn,34,107,A,52.677965211365176,74.71147352295631,2.633898260568259,1.1735650817929393,A,2345,Correct
1,new_learn,34,108,A,24.32688317415688,37.88367749424907,1.2163441587078438,0.5950754145344893,A,424,Correct
1,new_learn,34,109,A,47.63500632753657,64.14459087026671,2.381750316376829,1.0075808772277641,B,839,Incorrect
1,new_learn,34,110,B,68.7739440928841,48.190268329655595,3.438697204644205,0.7569709647948344,A,457,Incorrect
1,new_learn,34,111,B,81.2279441967059,66.21267690630927,4.061397209835295,1.0400662967168788,B,640,Correct
1,new_learn,34,112,A,49.586438693247544,74.16412127403322,2.4793219346623774,1.1649672927722263,A,1278,Correct
1,new_learn,34,113,B,64.78244352823916,36.65041898335737,3.2391221764119575,0.575703435145517,B,839,Correct
1,new_learn,34,114,B,83.87971683685434,61.94633715471969,4.193985841842717,0.9730507886103191,B,1114,Correct
1,new_learn,34,115,B,61.68826482557344,52.64783527244998,3.0844132412786722,0.8269902625966724,B,528,Correct
1,new_learn,34,116,B,52.09044615639145,44.555573187526555,2.6045223078195727,0.699877307012079,B,964,Correct
1,new_learn,34,117,B,70.8532422714582,50.65948189231705,3.54266211357291,0.795757280737842,B,531,Correct
1,new_learn,34,118,B,39.468069287846546,15.929952919654834,1.9734034643923275,0.2502271153220945,A,877,Incorrect
1,new_learn,34,119,A,28.443749183490322,41.82417820545827,1.422187459174516,0.6569726549634901,A,755,Correct
1,new_learn,34,120,B,45.631658074611885,21.624370128664175,2.281582903730594,0.33967481167358976,B,1641,Correct
1,new_learn,34,121,A,47.38711669612713,76.48932579126023,2.3693558348063566,1.201491519919297,A,1054,Correct
1,new_learn,34,122,B,69.2782023183727,38.572313618836525,3.463910115918635,0.6058924854844918,B,539,Correct
1,new_learn,34,123,B,63.63217420823923,49.85455955411455,3.181608710411961,0.7831135902158056,B,583,Correct
1,new_learn,34,124,A,68.79038599993302,87.377252908519,3.4395192999966513,1.3725186791413033,A,863,Correct
1,new_learn,34,125,B,35.58786589805899,16.677336229843565,1.7793932949029496,0.2619669849056172,B,542,Correct
1,new_learn,34,126,A,39.050181963854925,49.125444497010236,1.9525090981927462,0.7716606776807025,A,2656,Correct
1,new_learn,34,127,B,59.71921290460153,45.153365479536,2.985960645230076,0.7092674063768263,B,597,Correct
1,new_learn,34,128,B,49.229516299488495,39.30793214569327,2.461475814974425,0.6174475542835803,B,518,Correct
1,new_learn,34,129,B,38.36200411658449,19.05679176355463,1.9181002058292245,0.2993433850268685,A,1108,Incorrect
1,new_learn,34,130,A,46.63508174575158,68.03753752962733,2.3317540872875786,1.0687311403570854,A,1412,Correct
1,new_learn,34,131,B,36.46283313781918,25.021905885824708,1.823141656890959,0.39304317854861054,A,995,Incorrect
1,new_learn,34,132,B,56.7169465714805,25.55508680980305,2.835847328574025,0.4014183649176334,B,897,Correct
1,new_learn,34,133,A,42.207102128942516,70.48281482872022,2.110355106447126,1.107141466351186,A,799,Correct
1,new_learn,34,134,A,49.25744152356824,66.98229923696482,2.462872076178412,1.0521554960170094,A,972,Correct
1,new_learn,34,135,B,75.2506652059999,52.898861209424496,3.762533260299995,0.8309333687939703,B,907,Correct
1,new_learn,34,136,A,34.135470439242376,50.27646450873927,1.7067735219621187,0.7897408577456162,B,748,Incorrect
1,new_learn,34,137,B,53.943404194376186,34.97388864366194,2.6971702097188093,0.549368558151979,B,2480,Correct
1,new_learn,34,138,B,48.66207601138855,19.025941630479345,2.433103800569427,0.2988587922697106,B,769,Correct
1,new_learn,34,139,A,20.504034032025338,38.14709617282404,1.025201701601267,0.5992131854616367,A,527,Correct
1,new_learn,34,140,B,77.5543619003398,55.95377884583986,3.87771809501699,0.8789199028133924,B,495,Correct
1,new_learn,34,141,A,38.443982585026916,55.065944231654434,1.9221991292513456,0.864973829305754,A,2930,Correct
1,new_learn,34,142,B,48.45091448477916,20.698232223347393,2.422545724238958,0.3251270714758185,B,1025,Correct
1,new_learn,34,143,B,34.11397335818704,15.451159419273107,1.7056986679093518,0.24270624460516566,A,586,Incorrect
1,new_learn,34,144,B,53.12925222859232,31.524878758976932,2.656462611429616,0.49519163757255413,B,459,Correct
1,new_learn,34,145,A,34.07605689039218,56.02831674967253,1.703802844519609,0.880090741468866,B,944,Incorrect
1,new_learn,34,146,B,59.828269528229185,43.37112918019714,2.991413476411459,0.6812721040520061,B,544,Correct
1,new_learn,34,147,A,25.24635822922521,43.08787034033297,1.2623179114612604,0.6768226846000979,A,524,Correct
1,new_learn,34,148,B,62.95283162407261,53.21319852137026,3.1476415812036307,0.8358709677437602,B,670,Correct
1,new_learn,34,149,A,43.14505510752188,71.0958467569303,2.157252755376094,1.1167709493615898,B,1329,Incorrect
1,new_learn,34,150,B,58.61609046757663,35.23181222739921,2.9308045233788316,0.553420012331262,B,1017,Correct
1,new_learn,34,151,A,14.174058135724646,33.82338697272759,0.7087029067862324,0.5312965201652285,A,525,Correct
1,new_learn,34,152,A,21.860834494374,42.7224150131117,1.0930417247187,0.6710821257440299,A,544,Correct
1,new_learn,34,153,B,71.93304472270114,41.58525299595459,3.596652236135057,0.6532196265488194,B,596,Correct
1,new_learn,34,154,B,71.84416080158718,44.36986419524662,3.592208040079359,0.6969601969828179,B,601,Correct
1,new_learn,34,155,B,81.70403431233109,51.52151925490402,4.085201715616554,0.8092981319649577,B,652,Correct
1,new_learn,34,156,A,60.57777693798775,74.11166892619514,3.0288888468993878,1.1641433732190678,A,1672,Correct
1,new_learn,34,157,A,54.42123733831545,64.22955610939873,2.7210618669157727,1.0089155080831023,B,865,Incorrect
1,new_learn,34,158,A,27.311432193750136,57.54982691502421,1.3655716096875068,0.9039905672580211,A,977,Correct
1,new_learn,34,159,A,63.24932952711959,73.40628795749119,3.1624664763559798,1.153063274872756,B,576,Incorrect
1,new_learn,34,160,A,51.83366193646028,82.27384106401192,2.5916830968230142,1.2923544733465706,A,731,Correct
1,new_learn,34,161,A,25.502506644570317,47.52161124677396,1.2751253322285159,0.7464677238980757,A,1047,Correct
1,new_learn,34,162,A,67.04711367597933,83.84107297878136,3.352355683798967,1.316972494696126,B,898,Incorrect
1,new_learn,34,163,A,46.66013825218119,68.52039750338797,2.3330069126090596,1.0763158870884801,A,1867,Correct
1,new_learn,34,164,A,54.30010790901153,66.19508212052094,2.715005395450577,1.0397899184680082,B,1632,Incorrect
1,new_learn,34,165,B,39.81031417318431,19.654934009021233,1.9905157086592156,0.3087389814476664,B,767,Correct
1,new_learn,34,166,A,16.363302999629326,44.681291213871305,0.8181651499814663,0.7018520811520212,A,579,Correct
1,new_learn,34,167,A,36.638167153781666,61.25141399127618,1.8319083576890833,0.9621349610849015,A,1542,Correct
1,new_learn,34,168,A,51.596718757298845,68.35314538869024,2.5798359378649423,1.0736886970143213,B,983,Incorrect
1,new_learn,34,169,B,54.1002805592472,31.092367000925748,2.70501402796236,0.4883977587641301,B,528,Correct
1,new_learn,34,170,B,55.76589320617793,24.165091480988504,2.7882946603088965,0.3795843693499939,A,2634,Incorrect
1,new_learn,34,171,B,76.78505201413843,57.293686027753665,3.8392526007069216,0.8999671156093555,B,485,Correct
1,new_learn,34,172,A,48.79215093066888,64.19915323563038,2.439607546533444,1.008437940858709,B,755,Incorrect
1,new_learn,34,173,B,36.18717951899573,14.38837796503411,1.8093589759497863,0.22601211256012207,A,822,Incorrect
1,new_learn,34,174,A,50.03907666424641,60.844810753266074,2.5019538332123203,0.9557480523576095,B,908,Incorrect
1,new_learn,34,175,A,62.00455639192399,87.78884904463044,3.1002278195961996,1.3789840161285716,B,557,Incorrect
1,new_learn,34,176,B,61.64443242811015,48.43266846016445,3.082221621405507,0.7607785771410137,B,1237,Correct
1,new_learn,34,177,A,61.53584814468032,75.18988299099534,3.076792407234016,1.1810799201439357,B,3229,Incorrect
1,new_learn,34,178,B,50.320043242209806,32.941531527515224,2.51600216211049,0.517444367224192,B,625,Correct
1,new_learn,34,179,B,68.16157876012069,44.25357553696258,3.4080789380060343,0.6951335390100131,B,768,Correct
1,new_learn,34,180,A,57.15074746887169,73.0202056833396,2.8575373734435847,1.1469987086919768,A,569,Correct
1,new_learn,34,181,A,34.687367373180784,50.846716843023096,1.7343683686590392,0.7986983604660087,A,926,Correct
1,new_learn,34,182,B,82.96674844388582,61.79784144174816,4.148337422194291,0.9707182234055144,B,528,Correct
1,new_learn,34,183,A,30.35054271533143,62.14191018034481,1.5175271357665714,0.9761228425130403,A,704,Correct
1,new_learn,34,184,B,52.99113311795658,41.70925099587384,2.649556655897829,0.6551673825768501,B,1198,Correct
1,new_learn,34,185,B,83.65977886666815,67.84068943961012,4.182988943333408,1.065639057789729,B,724,Correct
1,new_learn,34,186,B,71.18409017983666,49.84338813794817,3.5592045089918325,0.782938110021013,B,450,Correct
1,new_learn,34,187,A,42.97716510925494,73.43037978438028,2.148858255462747,1.1534417084045876,A,514,Correct
1,new_learn,34,188,A,17.00500653741147,47.20917696768903,0.8502503268705737,0.7415600177185616,A,550,Correct
1,new_learn,34,189,A,41.116540209663306,62.84081990084536,2.0558270104831653,0.9871012907302753,A,774,Correct
1,new_learn,34,190,B,67.3095162308545,38.10590311243199,3.365475811542725,0.5985661263821037,B,1133,Correct
1,new_learn,34,191,A,60.44927833716359,85.65683219635109,3.0224639168581797,1.345494373789151,A,727,Correct
1,new_learn,34,192,A,39.54392737841031,71.60631627692891,1.9771963689205154,1.1247893858311355,A,681,Correct
1,new_learn,34,193,B,71.7314284955052,56.788918780700655,3.58657142477526,0.892038250233783,B,494,Correct
1,new_learn,34,194,B,57.70546723540186,40.21474406967827,2.885273361770093,0.6316917226764747,B,544,Correct
1,new_learn,34,195,A,69.00734254550217,85.67109342864524,3.4503671272751086,1.3457183887021833,A,695,Correct
1,new_learn,34,196,A,54.22616786408897,79.78903752343325,2.711308393204449,1.2533232706030912,A,731,Correct
1,new_learn,34,197,A,54.45280251217951,84.13672124100347,2.7226401256089754,1.321616526739344,A,506,Correct
1,new_learn,34,198,A,35.43872488213809,68.78195853652412,1.7719362441069046,1.0804244781893095,A,706,Correct
1,new_learn,34,199,A,45.00987898759068,56.814460490263656,2.250493949379534,0.8924394584693993,A,798,Correct
1,new_learn,34,200,A,57.41431969377402,66.63857526254371,2.870715984688701,1.0467562924524891,120,2665,Correct
1,new_learn,34,201,A,38.46058475831531,61.61255563354467,1.9230292379157659,0.9678077607361819,A,787,Correct
1,new_learn,34,202,A,61.666875699265,84.06297572024691,3.0833437849632497,1.3204581348081241,A,923,Correct
1,new_learn,34,203,A,19.954708212766054,47.215062589625944,0.9977354106383026,0.7416524688517558,A,748,Correct
1,new_learn,34,204,B,59.267996888304594,33.84366608929925,2.9633998444152296,0.5316150637834427,B,1898,Correct
1,new_learn,34,205,A,62.83077278888031,81.33289293138475,3.1415386394440157,1.2775740946422176,A,1414,Correct
1,new_learn,34,206,B,44.0335655416402,25.267520586617138,2.20167827708201,0.3969012852467263,A,514,Incorrect
1,new_learn,34,207,B,47.60305623028963,37.22527995818442,2.3801528115144817,0.5847333302222778,B,1388,Correct
1,new_learn,34,208,B,35.957010911884154,11.682129027950182,1.7978505455942075,0.1835024536624818,B,896,Correct
1,new_learn,34,209,A,33.592007611721584,48.60475824318382,1.6796003805860793,0.7634817571314709,A,3219,Correct
1,new_learn,34,210,B,64.9622444949246,47.86974655627593,3.2481122247462304,0.7519362205520087,A,1048,Incorrect
1,new_learn,34,211,B,75.66140934745626,45.17059058339232,3.783070467372813,0.7095379776754879,B,582,Correct
1,new_learn,34,212,A,47.45713112188357,57.18038215552995,2.372856556094179,0.8981873425463489,B,613,Incorrect
1,new_learn,34,213,A,49.987781698646614,66.68921076246224,2.499389084932331,1.0475516730252636,B,1197,Incorrect
1,new_learn,34,214,A,59.847373720772154,87.53492700385057,2.992368686038608,1.3749954180390787,A,786,Correct
1,new_learn,34,215,B,55.87441788449454,25.045689592962503,2.793720894224727,0.3934167721467067,B,1029,Correct
1,new_learn,34,216,B,62.410541233880416,45.283165169989296,3.120527061694021,0.7113062951466579,A,922,Incorrect
1,new_learn,34,217,B,45.296111312976144,25.90902914263671,2.2648055656488073,0.4069780780807567,B,605,Correct
1,new_learn,34,218,A,21.142686502302475,45.68133100051607,1.0571343251151237,0.7175606693871247,A,637,Correct
1,new_learn,34,219,A,44.080950444952975,69.39309690291275,2.2040475222476488,1.0900242172001764,A,742,Correct
1,new_learn,34,220,A,51.047173305638985,79.47952082702025,2.552358665281949,1.248461393705019,A,759,Correct
1,new_learn,34,221,B,79.67674093994842,59.8579654767459,3.983837046997421,0.940246723002882,B,1184,Correct
1,new_learn,34,222,B,78.95013181637586,58.60736430967334,3.9475065908187927,0.9206023258076521,B,439,Correct
1,new_learn,34,223,A,37.575502814615824,50.24122729360691,1.878775140730791,0.7891873528646525,A,453,Correct
1,new_learn,34,224,A,60.24161013259112,72.21646860264877,3.012080506629556,1.1343736361513967,A,1739,Correct
1,new_learn,34,225,B,67.17261884635782,35.44960628808504,3.358630942317891,0.5568411134364926,B,645,Correct
1,new_learn,34,226,A,34.256430865984186,58.26813044152559,1.7128215432992093,0.9152736526675429,A,733,Correct
1,new_learn,34,227,A,44.24115815863844,63.972322481037764,2.212057907931922,1.004874891697527,A,806,Correct
1,new_learn,34,228,A,30.704777660997742,52.76281805642745,1.535238883049887,0.8287964079438368,A,1449,Correct
1,new_learn,34,229,B,51.817061751143186,36.05764199546245,2.590853087557159,0.5663921159935782,A,3428,Incorrect
1,new_learn,34,230,A,63.213526453689745,79.18511589801017,3.160676322684487,1.2438368918942255,A,1114,Correct
1,new_learn,34,231,B,43.594237736444285,32.789932666829344,2.179711886822214,0.5150630578890752,B,806,Correct
1,new_learn,34,232,B,56.86837965604609,36.523921830707614,2.8434189828023047,0.5737164225181945,B,745,Correct
1,new_learn,34,233,B,83.12083728065737,59.11109708670236,4.1560418640328685,0.9285149417660856,B,1081,Correct
1,new_learn,34,234,A,28.800716890479606,50.90616348856716,1.4400358445239803,0.7996321461906177,A,612,Correct
1,new_learn,34,235,B,85.05645912137598,57.10772669837757,4.2528229560687985,0.8970460732941833,B,572,Correct
1,new_learn,34,236,A,55.83295321961606,63.32625936998457,2.7916476609808027,0.9947265560803266,A,861,Correct
1,new_learn,34,237,A,51.240460790066564,78.62172315999074,2.562023039503328,1.234987139459987,A,2273,Correct
1,new_learn,34,238,A,26.266005707681174,54.49111828832118,1.3133002853840587,0.8559444845024112,A,763,Correct
1,new_learn,34,239,A,58.354018527023506,72.4738555266379,2.9177009263511753,1.1384166604990684,B,572,Incorrect
1,new_learn,34,240,A,32.98719234105037,52.274500217647066,1.6493596170525182,0.8211259292691904,A,455,Correct
1,new_learn,34,241,B,78.27629629369754,60.787239686861575,3.9138148146848772,0.9548437281612313,A,960,Incorrect
1,new_learn,34,242,B,74.73247216673012,47.248525791206674,3.7366236083365063,0.7421781075930137,B,552,Correct
1,new_learn,34,243,A,21.46887443133733,38.961242661754326,1.0734437215668664,0.6120017686044832,A,514,Correct
1,new_learn,34,244,B,61.9786647497291,38.87999071570878,3.098933237486455,0.6107254660205504,B,601,Correct
1,new_learn,34,245,B,74.53232840256982,44.61892435150875,3.726616420128491,0.7008724247688931,B,619,Correct
1,new_learn,34,246,B,82.26935809685165,58.76312968226034,4.113467904842582,0.9230490825586669,B,634,Correct
1,new_learn,34,247,A,24.515232918529506,52.46598745506335,1.2257616459264753,0.8241338037608062,A,456,Correct
1,new_learn,34,248,A,35.48787225577884,57.349059868904085,1.774393612788942,0.9008369258721516,A,388,Correct
1,new_learn,34,249,B,32.27752163080815,10.515747138704132,1.6138760815404078,0.16518096978980393,A,990,Incorrect
1,new_learn,34,250,B,61.12177911545212,50.76445909404557,3.0560889557726063,0.7974062587665657,A,917,Incorrect
1,new_learn,34,251,B,72.22917446035036,47.73585922400315,3.611458723017518,0.7498331232546243,B,986,Correct
1,new_learn,34,252,B,80.72947296002417,63.92236225188162,4.036473648001208,1.0040901182530841,B,445,Correct
1,new_learn,34,253,A,25.057067346817846,41.14300315620713,1.2528533673408924,0.64627278231081,A,587,Correct
1,new_learn,34,254,B,70.8228602941388,44.07641019185918,3.5411430147069405,0.6923506322767755,B,600,Correct
1,new_learn,34,255,A,15.537256342118898,41.06793016140229,0.7768628171059448,0.6450935384660006,A,569,Correct
1,new_learn,34,256,B,71.25333190050577,57.06830053441096,3.5626665950252887,0.8964267685587997,B,462,Correct
1,new_learn,34,257,B,48.97952227364135,20.966499073699904,2.4489761136820674,0.3293409973071641,B,685,Correct
1,new_learn,34,258,B,33.741665656579656,16.62625146705986,1.6870832828289826,0.2611645473282589,A,721,Incorrect
1,new_learn,34,259,B,81.99165869703936,60.58263968618031,4.099582934851968,0.9516298788659076,B,645,Correct
1,new_learn,34,260,B,79.76803474082021,63.085929773597755,3.9884017370410105,0.9909514676080815,B,525,Correct
1,new_learn,34,261,A,66.18629855727514,81.92967218700741,3.3093149278637566,1.2869482812686124,A,1039,Correct
1,new_learn,34,262,A,63.58611858060696,76.03104233647191,3.1793059290303476,1.1942928202451737,A,815,Correct
1,new_learn,34,263,B,46.284467124848334,34.358485875875395,2.3142233562424166,0.539701834080594,B,824,Correct
1,new_learn,34,264,B,47.61881218440889,23.31321312800716,2.380940609220444,0.36620309547260216,B,542,Correct
1,new_learn,34,265,A,23.94020552885069,50.997462924407884,1.1970102764425345,0.8010662743751883,A,579,Correct
1,new_learn,34,266,A,46.25346565206549,58.653576100356084,2.3126732826032748,0.9213282189182427,B,1096,Incorrect
1,new_learn,34,267,A,68.98251653359493,89.09600089340023,3.449125826679747,1.399516709354679,A,1001,Correct
1,new_learn,34,268,B,32.64405263399675,13.819837530404687,1.6322026316998375,0.21708150029661938,B,998,Correct
1,new_learn,34,269,A,39.01138786188826,55.38465606872262,1.950569393094413,0.8699801431354816,A,1171,Correct
1,new_learn,34,270,A,52.407341818114624,69.46093618267706,2.6203670909057313,1.0910898341148385,A,1018,Correct
1,new_learn,34,271,B,61.10088596174559,31.686940121483673,3.0550442980872794,0.49773729150196383,B,846,Correct
1,new_learn,34,272,B,41.54880973226184,24.07836094731119,2.0774404866130918,0.37822200931278105,B,775,Correct
1,new_learn,34,273,B,42.02574369789752,27.20413023880731,2.101287184894876,0.42732147852768493,B,456,Correct
1,new_learn,34,274,B,77.69182562599502,64.49973898790499,3.884591281299751,1.0131595308143073,A,905,Incorrect
1,new_learn,34,275,A,15.735355430789927,41.12292516717861,0.7867677715394963,0.6459573979966556,B,1628,Incorrect
1,new_learn,34,276,A,36.50263005910247,56.845909794703545,1.8251315029551236,0.8929334629883436,B,1606,Incorrect
1,new_learn,34,277,B,78.54577085221428,50.93019466630704,3.9272885426107136,0.8000096270478412,B,628,Correct
1,new_learn,34,278,A,28.73822087118055,50.52803681932336,1.4369110435590275,0.7936925463595043,A,374,Correct
1,new_learn,34,279,B,43.0554300674827,35.216402498555915,2.152771503374135,0.5531779568766224,A,1546,Incorrect
1,new_learn,34,280,A,34.61061081500069,44.615335001420775,1.7305305407500344,0.7008160433895554,A,557,Correct
1,new_learn,34,281,B,77.3966759259725,58.49852948352863,3.869833796298625,0.9188927523562973,B,511,Correct
1,new_learn,34,282,B,75.64916138912116,44.377757977465585,3.782458069456058,0.6970841922239586,B,613,Correct
1,new_learn,34,283,A,19.688756609241032,46.340596630447756,0.9844378304620517,0.727916389685913,A,629,Correct
1,new_learn,34,284,B,69.8591525738326,56.063767930663985,3.49295762869163,0.8806476073176851,B,622,Correct
1,new_learn,34,285,B,36.101348606753945,19.290645893498105,1.8050674303376975,0.3030167571100788,B,836,Correct
1,new_learn,34,286,B,57.55023009061212,48.299375222652486,2.877511504530606,0.7586848118623095,B,656,Correct
1,new_learn,34,287,A,22.494836018345488,45.57941697766918,1.1247418009172745,0.7159598076597569,A,731,Correct
1,new_learn,34,288,B,33.37392289800502,12.860614039422096,1.668696144900251,0.20201405293451102,A,829,Incorrect
1,new_learn,34,289,B,66.00599377350076,34.67768222538683,3.300299688675038,0.5447157586139831,B,475,Correct
1,new_learn,34,290,A,32.76835857389058,59.75852275911917,1.6384179286945288,0.938684680447136,B,1113,Incorrect
1,new_learn,34,291,B,59.97234452829061,35.95824260504064,2.9986172264145305,0.5648307540199758,B,529,Correct
1,new_learn,34,292,A,46.3032786405801,59.01824500889497,2.315163932029005,0.9270564247385347,A,759,Correct
1,new_learn,34,293,A,32.581917268197486,62.125340501090584,1.6290958634098742,0.9758625665999532,A,536,Correct
1,new_learn,34,294,A,33.59274418378023,47.808726326755576,1.6796372091890117,0.7509777170281013,A,428,Correct
1,new_learn,34,295,B,74.72978241422916,50.45380385770918,3.736489120711458,0.7925264977251978,B,850,Correct
1,new_learn,34,296,A,55.40744987706772,67.82613348892725,2.7703724938533862,1.0654104134510725,B,595,Incorrect
1,new_learn,34,297,A,16.541948968434962,45.66376788381966,0.8270974484217481,0.7172847885951871,A,888,Correct
1,new_learn,34,298,A,46.660696366407485,61.99061731591163,2.333034818320374,0.9737463397558211,B,699,Incorrect
1,new_learn,34,299,A,42.02295227483686,49.29141957384346,2.101147613741843,0.7742678080909938,A,445,Correct
1,new_learn,34,300,A,35.03663150766455,43.08137791171403,1.7518315753832274,0.6767207017698318,A,893,Incorrect
1,new_learn,34,301,B,66.7071229795718,53.183482785393196,3.3353561489785903,0.8354041940545525,B,806,Incorrect
1,new_learn,34,302,B,75.607896177935,60.18583979895206,3.7803948088967503,0.9453969608125998,A,569,Correct
1,new_learn,34,303,B,89.44386133129821,67.89403184863731,4.47219306656491,1.066476958391352,A,567,Incorrect
1,new_learn,34,304,A,31.312459358852145,45.98496749880018,1.5656229679426072,0.7223301803489803,A,552,Incorrect
1,new_learn,34,305,A,27.731171053117365,44.00818304071731,1.3865585526558681,0.691278922692762,B,503,Correct
1,new_learn,34,306,B,59.86532950412777,46.067020727660044,2.9932664752063887,0.7236190694539276,B,595,Incorrect
1,new_learn,34,307,A,52.49280451845208,80.23221177731116,2.624640225922604,1.2602846355043062,A,505,Correct
1,new_learn,34,308,A,48.215309906604766,57.61972192397454,2.410765495330238,0.9050884754912257,A,2400,Incorrect
1,new_learn,34,309,B,66.11003919026504,40.68303345170494,3.3055019595132524,0.6390475950881201,B,567,Correct
1,new_learn,34,310,A,33.26041577679138,42.84423413414203,1.6630207888395692,0.6729956560225082,B,2498,Incorrect
1,new_learn,34,311,B,88.63391761940048,64.96601148046291,4.4316958809700235,1.0204837220002623,B,816,Correct
1,new_learn,34,312,A,17.884007161466375,42.104687357294154,0.8942003580733187,0.6613788824168517,A,541,Correct
1,new_learn,34,313,A,35.68580739086649,48.182232303126206,1.7842903695433248,0.7568447351852906,A,1049,Correct
1,new_learn,34,314,B,35.989318679304844,19.55356915166969,1.7994659339652423,0.30714674599172753,B,4760,Incorrect
1,new_learn,34,315,B,38.39328126844699,23.37175660257497,1.9196640634223496,0.3671226942206913,A,1048,Incorrect
1,new_learn,34,316,A,12.604172657126092,34.49849669527975,0.6302086328563046,0.5419011188889131,A,632,Incorrect
1,new_learn,34,317,B,54.64045461860806,34.45338493825462,2.7320227309304026,0.5411925050666098,B,624,Correct
1,new_learn,34,318,B,37.73598023948044,18.21586735296495,1.8867990119740221,0.28613417527420426,B,645,Incorrect
1,new_learn,34,319,B,56.35628579833741,43.14479590281513,2.8178142899168703,0.6777168692445752,B,564,Incorrect
1,new_learn,34,320,B,45.4741609465662,16.047692590100866,2.2737080473283102,0.2520765657406412,B,601,Incorrect
1,new_learn,34,321,A,57.3618768713072,81.43333514761171,2.8680938435653602,1.2791518372852624,A,528,Incorrect
1,new_learn,34,322,B,73.44928152373028,44.67456453542451,3.672464076186514,0.7017464187340636,B,497,Correct
1,new_learn,34,323,A,14.689639655157588,31.768802526731083,0.7344819827578795,0.49902318315661615,A,634,Incorrect
1,new_learn,34,324,B,71.49502912110779,53.20421742873239,3.5747514560553895,0.8357298930704985,B,2034,Incorrect
1,new_learn,34,325,B,71.17111526101567,51.2511126140018,3.558555763050783,0.805050594382256,A,623,Incorrect
1,new_learn,34,326,A,37.482079760511134,57.08067271060428,1.8741039880255568,0.8966211102479891,A,712,Correct
1,new_learn,34,327,B,39.096919777102244,29.904240314089847,1.9548459888551122,0.46973470840964193,B,1398,Incorrect
1,new_learn,34,328,A,49.32646052256148,69.89275660430458,2.4663230261280744,1.097872853436114,B,572,Correct
1,new_learn,34,329,B,82.44775615175305,60.09179107730391,4.122387807587653,0.9439196469475533,B,752,Correct
1,new_learn,34,330,A,24.130892578702962,39.13658946404496,1.2065446289351482,0.6147561097340167,A,578,Correct
1,new_learn,34,331,A,24.969858107287457,51.974085223370395,1.2484929053643727,0.8164070215739514,A,712,Correct
1,new_learn,34,332,A,30.43075052362498,52.576173231273174,1.521537526181249,0.8258645978861606,A,801,Correct
1,new_learn,34,333,B,42.34026007207885,32.87480884395277,2.1170130036039425,0.5163962897616539,A,503,Incorrect
1,new_learn,34,334,B,65.33107082330268,37.460751837496325,3.266553541165134,0.588432113853144,B,494,Incorrect
1,new_learn,34,335,A,65.05380334925798,86.60840264906226,3.252690167462899,1.3604416075072039,B,1247,Correct
1,new_learn,34,336,A,27.91440423589696,42.113530526218554,1.3957202117948482,0.6615177905894886,B,4225,Correct
1,new_learn,34,337,B,79.67772137935393,61.509121646967714,3.983886068967696,0.9661830234743733,A,2134,Correct
1,new_learn,34,338,A,16.16310951085564,38.59610272111823,0.808155475542782,0.6062661638293103,A,656,Correct
1,new_learn,34,339,B,59.59704936333527,40.28133694211354,2.9798524681667633,0.6327377610705952,B,531,Incorrect
1,new_learn,34,340,A,21.959774228346575,41.54169790846517,1.0979887114173288,0.6525354648344032,A,542,Correct
1,new_learn,34,341,B,46.44943877325329,31.066597067054857,2.3224719386626647,0.48799296558946875,B,801,Correct
1,new_learn,34,342,A,23.981538676349654,37.38798732030301,1.1990769338174827,0.5872891314898614,A,561,Incorrect
1,new_learn,34,343,A,49.077357576445294,77.9622896180313,2.453867878822265,1.2246287816052346,B,919,Incorrect
1,new_learn,34,344,A,11.23270657779442,34.17867803002075,0.561635328889721,0.5368774190426202,A,578,Correct
1,new_learn,34,345,B,61.93527447615453,46.35545230384081,3.0967637238077264,0.7281497420578917,B,737,Correct
1,new_learn,34,346,B,55.36479902473029,42.42809067099888,2.768239951236515,0.6664588897892585,A,642,Incorrect
1,new_learn,34,347,A,21.543062916280437,48.54245201436166,1.0771531458140218,0.7625030531777682,A,628,Correct
1,new_learn,34,348,B,39.91748120890787,20.943409727849417,1.9958740604453937,0.3289783107106637,B,1538,Correct
1,new_learn,34,349,B,64.93627370581315,42.16452357399509,3.2468136852906575,0.662318787510883,B,707,Incorrect
1,new_learn,34,350,B,37.88636059932121,27.2939016805955,1.8943180299660605,0.4287316050378047,B,430,Correct
1,new_learn,34,351,B,62.7359840017742,48.51808751414124,3.1367992000887104,0.762120336503264,A,565,Correct
1,new_learn,34,352,A,25.581951568943154,50.30991700743196,1.2790975784471577,0.7902663283663023,B,442,Incorrect
1,new_learn,34,353,A,59.40306545238457,76.80531848202293,2.9701532726192283,1.206455121498738,A,2643,Incorrect
1,new_learn,34,354,A,66.64605057693754,89.10290852928138,3.3323025288468773,1.3996252142453685,B,1479,Incorrect
1,new_learn,34,355,A,12.316584586010578,36.49977440268335,0.6158292293005289,0.5733371156057739,A,978,Incorrect
1,new_learn,34,356,B,74.8693557265254,53.5069455685729,3.7434677863262698,0.8404851355712879,B,550,Correct
1,new_learn,34,357,B,37.3583936431851,23.66187915699964,1.8679196821592552,0.37167992864879756,B,703,Correct
1,new_learn,34,358,A,12.701998606299476,31.798299043672188,0.6350999303149738,0.49948651336125943,B,1267,Incorrect
1,new_learn,34,359,B,63.2173216423174,55.633073690616285,3.16086608211587,0.8738822780152985,B,651,Incorrect
1,new_learn,34,360,B,77.15506926366587,63.64673881155747,3.857753463183293,0.9997606353766866,A,689,Incorrect
1,new_learn,34,361,A,25.881749577488364,46.12012587254348,1.294087478874418,0.7244532431190956,B,773,Incorrect
1,new_learn,34,362,A,51.06157604282209,77.31779723491059,2.5530788021411044,1.2145051189247016,B,1136,Incorrect
1,new_learn,34,363,B,77.84146962673566,52.63409431582153,3.8920734813367828,0.8267744201546859,B,663,Incorrect
1,new_learn,34,364,B,73.26945526797937,53.27289293843081,3.6634727633989685,0.8368086454542489,A,852,Correct
1,new_learn,34,365,B,40.41503461415542,24.648306938976823,2.020751730707771,0.38717470001457954,A,499,Correct
1,new_learn,34,366,B,69.33456273659938,57.461935099603224,3.466728136829969,0.9026099658498349,A,587,Incorrect
1,new_learn,34,367,B,46.87042743308661,16.616905251610483,2.3435213716543304,0.26101773731928574,A,625,Incorrect
1,new_learn,34,368,B,46.13055193466742,33.42974859281321,2.306527596733371,0.5251132629526786,B,1522,Incorrect
1,new_learn,34,369,B,85.45762463844767,62.07607357390214,4.2728812319223834,0.9750886835173522,A,613,Incorrect
1,new_learn,34,370,B,64.17867148455096,45.01966307601399,3.2089335742275478,0.7071672139334662,B,549,Incorrect
1,new_learn,34,371,A,26.045966269191823,36.169246943329995,1.302298313459591,0.568145202415203,B,1636,Incorrect
1,new_learn,34,372,B,44.05994193596395,20.05122184386096,2.2029970967981973,0.3149638562008639,A,1691,Incorrect
1,new_learn,34,373,A,46.01481645291564,71.97501093696984,2.300740822645782,1.1305808280081473,B,526,Incorrect
1,new_learn,34,374,B,61.99648595727006,43.325719226219675,3.0998242978635027,0.680558806162929,B,561,Incorrect
1,new_learn,34,375,B,52.20726679317173,45.057639881848836,2.6103633396585866,0.7077637522045538,A,415,Correct
1,new_learn,34,376,B,32.75170766242812,13.984336672078538,1.6375853831214058,0.21966544677164132,A,658,Correct
1,new_learn,34,377,B,79.7276074503657,55.89843872004333,3.9863803725182847,0.878050622150137,A,979,Incorrect
1,new_learn,34,378,A,39.360822739684146,69.30722237639665,1.9680411369842075,1.0886753032920091,A,1167,Correct
1,new_learn,34,379,A,46.136408758373406,62.627936927275826,2.3068204379186703,0.9837573328010732,A,787,Correct
1,new_learn,34,380,B,68.28412016274787,38.46229003756193,3.414206008137393,0.6041642391112222,B,736,Correct
1,new_learn,34,381,B,59.022098210896004,28.519006814623257,2.9511049105448,0.4479755114824884,B,530,Correct
1,new_learn,34,382,B,41.96355850999552,27.727871060090585,2.098177925499776,0.43554838011032815,A,956,Incorrect
1,new_learn,34,383,B,54.826262636124696,43.97872013035769,2.7413131318062347,0.6908161203790663,B,614,Correct
1,new_learn,34,384,B,48.468471173359475,34.72056986230723,2.4234235586679738,0.5453894360393778,A,554,Correct
1,new_learn,34,385,A,19.04428241663846,49.380668831684844,0.9522141208319229,0.7756697321548578,A,672,Correct
1,new_learn,34,386,B,53.45627284952906,43.16086496467054,2.672813642476453,0.6779692814779503,B,1224,Incorrect
1,new_learn,34,387,A,43.214940886885955,53.82892765012853,2.1607470443442978,0.8455428182813013,B,687,Incorrect
1,new_learn,34,388,A,60.698389272860446,75.74199389489812,3.0349194636430226,1.1897524579422742,B,689,Incorrect
1,new_learn,34,389,A,47.43854547700688,73.15693169848832,2.371927273850344,1.149146395915706,A,411,Incorrect
1,new_learn,34,390,B,84.32799991978106,67.48061067170659,4.216399995989053,1.0599829537299321,B,592,Correct
1,new_learn,34,391,B,47.46372011032121,22.713158198117686,2.3731860055160605,0.35677745467514654,A,880,Incorrect
1,new_learn,34,392,B,73.35427152223139,42.12147408323655,3.667713576111569,0.6616425676913441,A,498,Incorrect
1,new_learn,34,393,B,69.92427202744787,51.62064009554982,3.4962136013723932,0.8108551184889101,A,573,Incorrect
1,new_learn,34,394,A,23.563119069628396,43.59446456473212,1.1781559534814199,0.6847802480687151,A,279,Correct
1,new_learn,34,395,A,63.88680138083481,76.81300020107423,3.1943400690417407,1.2065757856594304,B,666,Incorrect
1,new_learn,34,396,A,23.147807609585417,39.901642599890636,1.157390380479271,0.6267735362899097,A,1902,Incorrect
1,new_learn,34,397,A,15.741059688697824,41.85105812439947,0.7870529844348911,0.6573948837428641,B,1367,Incorrect
1,new_learn,34,398,A,58.000426632832564,66.95521222802275,2.9000213316416286,1.0517300142755088,B,675,Incorrect
1,new_learn,34,399,A,60.170573464047045,69.16148811770209,3.0085286732023526,1.0863861149095533,A,353,Correct
1,new_learn,34,400,B,75.37659228762573,59.68807842597296,3.7688296143812865,0.9375781434496405,A,606,Correct
1,new_learn,34,401,B,55.67295259715385,35.96354147698431,2.783647629857693,0.5649139885058287,A,565,Correct
1,new_learn,34,402,A,33.63974853901335,46.76982880871509,1.6819874269506672,0.7346587529755579,B,1429,Incorrect
1,new_learn,34,403,A,34.35719741973733,61.94363326953726,1.7178598709868667,0.9730083160811926,A,901,Correct
1,new_learn,34,404,B,87.17970886632175,62.96578909055309,4.3589854433160875,0.9890643021718296,B,1469,Correct
1,new_learn,34,405,B,80.78385876031318,65.93254092450063,4.039192938015659,1.035665931004598,A,586,Correct
1,new_learn,34,406,B,44.56162450623111,35.128588030096395,2.2280812253115556,0.5517985704316659,B,2457,Correct
1,new_learn,34,407,A,46.78929457295899,64.65626227020583,2.3394647286479495,1.015618192783268,A,2291,Incorrect
1,new_learn,34,408,B,57.7354280673763,43.042713837821644,2.886771403368815,0.676113367917341,A,486,Incorrect
1,new_learn,34,409,B,43.30925448236067,24.970870983791983,2.1654627241180338,0.3922415241820971,B,722,Incorrect
1,new_learn,34,410,A,17.56805577065144,48.030596686122834,0.878402788532572,0.7544628484832887,A,1087,Correct
1,new_learn,34,411,B,40.59550435095878,21.55242331251959,2.0297752175479387,0.3385446737283447,B,595,Incorrect
1,new_learn,34,412,B,64.0729570590253,47.82673817932006,3.203647852951265,0.7512606465465718,A,677,Correct
1,new_learn,34,413,A,64.78145625644802,82.10838444193539,3.239072812822401,1.2897554868045533,A,784,Correct
1,new_learn,34,414,A,11.761698974984455,36.641429819959306,0.5880849487492228,0.5755622336970507,B,1752,Incorrect
1,new_learn,34,415,A,64.96526950381038,89.10359197829169,3.2482634751905186,1.3996359498373179,A,1417,Incorrect
1,new_learn,34,416,A,52.49087503204108,67.74978715271578,2.624543751602054,1.0642111680062203,B,1793,Incorrect
1,new_learn,34,417,B,60.52928496568787,48.569674301580136,3.0264642482843938,0.7629306598654656,B,479,Incorrect
1,new_learn,34,418,B,32.03484959767775,18.43038080626267,1.6017424798838875,0.28950374471908563,A,2489,Correct
1,new_learn,34,419,B,57.41493568214966,24.76127464398222,2.8707467841074834,0.38894919257526883,B,1176,Incorrect
1,new_learn,34,420,B,75.86324685813629,49.73457716492533,3.7931623429068146,0.7812289112536205,A,931,Incorrect
1,new_learn,34,421,A,55.1089360115032,72.46183279111513,2.7554468005751596,1.1382278078110966,B,657,Incorrect
1,new_learn,34,422,B,47.42159074189084,26.108826091711627,2.371079537094542,0.41011648121787375,A,2513,Correct
1,new_learn,34,423,B,79.33963180734389,64.09730381476882,3.9669815903671948,1.0068380938969537,A,471,Correct
1,new_learn,34,424,A,16.12261838786313,43.548485447350174,0.8061309193931565,0.6840580097817868,A,979,Correct
1,new_learn,34,425,B,45.215355255298284,25.672273124596124,2.2607677627649143,0.40325912324590935,B,907,Incorrect
1,new_learn,34,426,A,28.42201280880628,42.11855645969537,1.421100640440314,0.6615967377679296,A,537,Correct
1,new_learn,34,427,A,57.40340292144069,70.17315482669966,2.870170146072035,1.102277338413894,A,895,Incorrect
1,new_learn,34,428,A,40.70757361459151,65.45556190139254,2.0353786807295755,1.0281735620300338,B,613,Correct
1,new_learn,34,429,A,41.52136049390177,69.40039468851693,2.0760680246950884,1.0901388505483842,B,845,Correct
1,new_learn,34,430,A,68.84074887889682,89.3522487317214,3.442037443944841,1.4035418409865195,A,864,Correct
1,new_learn,34,431,B,67.11585645902889,45.070841496707565,3.355792822951445,0.7079711226858324,B,486,Correct
1,new_learn,34,432,B,46.52712272792351,38.6535768830176,2.3263561363961758,0.6071689658532816,B,472,Incorrect
1,new_learn,34,433,B,54.838205019707765,27.564639193951734,2.7419102509853883,0.43298433995286023,A,503,Correct
1,new_learn,34,434,A,35.40332106754997,46.703218564084565,1.7701660533774983,0.7336124416996326,A,803,Correct
1,new_learn,34,435,A,49.48167610017693,63.27816126917572,2.474083805008846,0.9939710328795631,B,1164,Correct
1,new_learn,34,436,B,49.892972774794316,23.061151799966012,2.494648638739716,0.3622437253904613,A,1638,Correct
1,new_learn,34,437,B,81.48966532579088,63.88119184902099,4.074483266289544,1.0034434150772227,B,1096,Correct
1,new_learn,34,438,A,23.4592562816021,39.30429014492998,1.1729628140801052,0.6173903458693686,A,1282,Incorrect
1,new_learn,34,439,A,46.502977341187105,71.92347854814523,2.325148867059355,1.1297713591373808,B,581,Incorrect
1,new_learn,34,440,A,31.175719394191955,46.40604088076489,1.5587859697095976,0.7289443855659931,B,408,Incorrect
1,new_learn,34,441,A,49.82733277629726,64.00211026376674,2.491366638814863,1.0053427970944675,A,440,Incorrect
1,new_learn,34,442,B,72.42150916564479,46.949299450949304,3.62107545828224,0.7374778712314484,B,562,Incorrect
1,new_learn,34,443,A,42.901985882899204,69.87055297052503,2.14509929414496,1.0975240795722896,A,427,Correct
1,new_learn,34,444,B,75.0571701209501,50.900521767948995,3.752858506047505,0.7995435262503796,A,725,Correct
1,new_learn,34,445,A,51.4324104749679,80.74741378592725,2.571620523748395,1.268377409731221,A,434,Incorrect
1,new_learn,34,446,A,36.41945171637376,60.26040907999589,1.820972585818688,0.9465682923401538,A,370,Correct
1,new_learn,34,447,A,17.17215772552122,44.892215978359516,0.858607886276061,0.7051652796049029,B,7546,Correct
1,new_learn,34,448,B,45.31281073709886,33.23479824546532,2.265640536854943,0.5220509900574639,B,4185,Correct
1,new_learn,34,449,A,52.19764261970079,69.42703064179052,2.6098821309850395,1.090557247124013,A,896,Incorrect
1,new_learn,34,450,A,60.75367021955014,74.01686421875172,3.037683510977507,1.1626541843569183,B,464,Incorrect
1,new_learn,34,451,B,60.802561008918914,53.14288762547318,3.040128050445946,0.8347665267736724,A,790,Incorrect
1,new_learn,34,452,A,48.020152909554184,76.45207431388404,2.4010076454777094,1.200906375080995,A,421,Incorrect
1,new_learn,34,453,B,67.75891681364627,49.02318188888572,3.387945840682313,0.770054340388598,B,589,Incorrect
1,new_learn,34,454,B,33.20804206021387,20.17114746600605,1.6604021030106935,0.31684764346840494,A,870,Incorrect
1,new_learn,34,455,B,54.80937651987478,27.02028380400411,2.740468825993739,0.4244336254828528,A,449,Incorrect
1,new_learn,34,456,A,45.41394464444284,62.18067875622988,2.270697232222142,0.9767318178789935,A,138,Correct
1,new_learn,34,457,A,47.1121857270577,69.9367526416754,2.355609286352885,1.09856394157507,A,531,Correct
1,new_learn,34,458,A,30.92306043385419,40.738566653180285,1.5461530216927093,0.6399199085770466,B,573,Correct
1,new_learn,34,459,B,75.10669030009691,55.3445500888712,3.755334515004846,0.8693501598771506,B,914,Correct
1,new_learn,34,460,B,63.0503420708363,39.12806048901519,3.152517103541815,0.6146221369075359,A,709,Incorrect
1,new_learn,34,461,A,66.74396956385905,79.55431650249642,3.337198478192953,1.2496362814279998,B,649,Correct
1,new_learn,34,462,A,39.11351130304465,53.094000654919874,1.9556755651522326,0.8339986120359395,A,543,Incorrect
1,new_learn,34,463,B,67.8431410785861,59.413156685782326,3.3921570539293047,0.9332596828531654,B,646,Correct
1,new_learn,34,464,B,70.53182210835502,61.6605820212698,3.526591105417751,0.9685621574704604,B,503,Incorrect
1,new_learn,34,465,B,35.0502968414528,13.309196443527725,1.7525148420726397,0.20906036886085053,A,575,Incorrect
1,new_learn,34,466,A,41.43709556882271,69.7608516250475,2.0718547784411356,1.095800894867084,A,823,Correct
1,new_learn,34,467,A,34.65459873438025,49.423274797130674,1.7327299367190125,0.7763389850950764,B,959,Incorrect
1,new_learn,34,468,A,36.566715447613106,54.3054946557168,1.8283357723806553,0.8530287152997984,A,583,Incorrect
1,new_learn,34,469,B,77.11254270041152,65.96853772309471,3.8556271350205757,1.0362313673946775,B,6117,Incorrect
1,new_learn,34,470,B,77.64941677800238,52.38919361795662,3.882470838900119,0.8229275289883289,A,519,Incorrect
1,new_learn,34,471,A,38.21808332087534,56.48228491755425,1.910904166043767,0.88722165677477,A,842,Correct
1,new_learn,34,472,B,72.41566770000946,47.08626843467971,3.620783385000473,0.7396293749967339,A,497,Correct
1,new_learn,34,473,B,62.424180164310144,31.813123125402406,3.1212090082155073,0.49971936949255874,B,494,Incorrect
1,new_learn,34,474,B,62.339753720561426,53.75304146875324,3.1169876860280716,0.8443508009317132,A,2223,Correct
1,new_learn,34,475,B,60.91609761397866,40.69062623557975,3.045804880698933,0.6391668622583272,A,687,Incorrect
1,new_learn,34,476,B,44.60940440604798,31.766337283667625,2.230470220302399,0.49898445920912876,B,401,Correct
1,new_learn,34,477,A,24.67171925835347,55.948208414851266,1.2335859629176735,0.8788324026880369,B,1760,Correct
1,new_learn,34,478,A,42.655069991697765,58.024464840536766,2.1327534995848882,0.9114461623575476,A,701,Incorrect
1,new_learn,34,479,A,28.14299134012805,37.570966612435136,1.4071495670064025,0.5901633634894681,B,5523,Incorrect
1,new_learn,34,480,A,29.018489118152672,57.59029309392248,1.4509244559076335,0.9046262085097494,B,432,Correct
1,new_learn,34,481,B,82.3962588319113,52.51767894920937,4.119812941595565,0.8249457718521174,A,647,Incorrect
1,new_learn,34,482,B,75.09161379709997,47.569241177188886,3.7545806898549983,0.7472158930954884,B,501,Incorrect
1,new_learn,34,483,B,86.91364567609595,69.53456047964416,4.3456822838047975,1.092246321867226,A,3070,Correct
1,new_learn,34,484,A,30.008753602731588,54.29601232845314,1.5004376801365793,0.8528797672514462,A,800,Correct
1,new_learn,34,485,B,76.55785323789337,64.33805213008588,3.8278926618946683,1.0106197595907749,B,1592,Correct
1,new_learn,34,486,B,49.18710686303171,22.907183372258444,2.4593553431515853,0.35982519498360693,B,797,Correct
1,new_learn,34,487,A,53.835782966215994,66.67578549735059,2.6917891483107996,1.0473407894540272,A,1078,Incorrect
1,new_learn,34,488,B,66.45527758169865,37.35245853831745,3.3227638790849325,0.5867310466874771,B,498,Incorrect
1,new_learn,34,489,B,67.0748166352582,40.77272678138034,3.3537408317629103,0.6404564946160415,A,494,Correct
1,new_learn,34,490,A,63.52318199736424,85.98086187754404,3.1761590998682117,1.3505842201190554,B,798,Incorrect
1,new_learn,34,491,A,45.18353794208137,73.38609330200501,2.259176897104069,1.1527460579661704,A,463,Correct
1,new_learn,34,492,A,33.83155256696051,52.828113489843886,1.6915776283480255,0.8298220662135068,B,575,Incorrect
1,new_learn,34,493,B,64.63637419860807,42.92100761637519,3.231818709930403,0.6742016110613793,A,408,Correct
1,new_learn,34,494,A,26.67743853936043,45.89554799340555,1.3338719269680215,0.7209255820428033,A,531,Correct
1,new_learn,34,495,A,17.892971004423813,48.7488693977943,0.8946485502211907,0.7657454498545944,A,1167,Correct
1,new_learn,34,496,B,85.90284392891928,59.376184597227194,4.295142196445965,0.9326789266442018,A,1169,Incorrect
1,new_learn,34,497,A,67.55724122063359,84.52858074308341,3.3778620610316796,1.3277718414042126,A,447,Incorrect
1,new_learn,34,498,B,79.6677471100453,62.13986754649369,3.983387355502265,0.9760907568955368,B,5299,Incorrect
1,new_learn,34,499,B,67.23502963124149,37.87594852203859,3.3617514815620746,0.5949540081229081,A,1114,Incorrect
1,new_learn,34,500,B,54.222474096390336,44.86048725554181,2.711123704819517,0.7046668859923436,A,604,Correct
1,new_learn,34,501,A,43.90161638447581,71.80229745464811,2.1950808192237905,1.127867850971958,B,1608,Incorrect
1,new_learn,34,502,B,33.67291535007099,11.823293392683084,1.6836457675035492,0.18571985831844956,A,398,Correct
1,new_learn,34,503,B,50.137509365823014,42.73886522408224,2.5068754682911507,0.6713405250537053,A,456,Incorrect
1,new_learn,34,504,B,30.26414048064483,13.123207150761264,1.5132070240322415,0.20613885588184314,B,427,Incorrect
1,new_learn,34,505,A,40.85273877094228,48.55776840417737,2.0426369385471137,0.7627436424663909,A,237,Incorrect
1,new_learn,34,506,B,86.030255977244,68.9123423274485,4.3015127988622,1.0824725419878858,B,625,Incorrect
1,new_learn,34,507,B,65.3595357524981,39.47263160577787,3.2679767876249053,0.6200346473528402,A,489,Incorrect
1,new_learn,34,508,B,64.83454351128324,38.79430906365066,3.2417271755641623,0.6093795817772841,B,909,Incorrect
1,new_learn,34,509,A,33.61314385800709,53.71465287165282,1.6806571929003546,0.8437477942585518,A,898,Correct
1,new_learn,34,510,A,55.531827824264056,83.06757574819102,2.7765913912132025,1.3048224286101529,A,8793,Correct
1,new_learn,34,511,A,43.95953495777421,66.07429772219523,2.1979767478887107,1.0378926415757666,A,1803,Correct
1,new_learn,34,512,A,49.11434330066352,69.00819542093132,2.455717165033176,1.083978198859433,A,2139,Incorrect
1,new_learn,34,513,B,46.157034637902015,37.20993542216511,2.307851731895101,0.5844922988141227,B,463,Correct
1,new_learn,34,514,B,61.940611404533435,47.57175370325218,3.097030570226672,0.7472553597626004,A,800,Correct
1,new_learn,34,515,A,27.744930657239465,47.845153416617265,1.3872465328619734,0.7515499124176069,A,839,Correct
1,new_learn,34,516,B,54.944590612382335,28.988379926464212,2.7472295306191166,0.45534840708224894,A,609,Correct
1,new_learn,34,517,A,10.862320487043675,35.23977041079555,0.5431160243521838,0.5535450191837313,A,1610,Correct
1,new_learn,34,518,A,66.58083102702176,86.04723910026611,3.329041551351088,1.351626871095402,B,12924,Correct
1,new_learn,34,519,A,56.64376882328264,79.04503617928295,2.8321884411641323,1.2416365248178736,B,670,Correct
1,new_learn,34,520,A,29.61003451110882,51.55311122990017,1.4805017255554411,0.8097943775477592,A,2034,Incorrect
1,new_learn,34,521,A,47.38148907994142,67.27908555225167,2.369074453997071,1.0568174045559653,B,1425,Incorrect
1,new_learn,34,522,A,28.68837396654351,57.209107529276324,1.4344186983271754,0.8986385596620151,A,439,Incorrect
1,new_learn,34,523,B,73.64232647254731,58.54185696096592,3.6821163236273655,0.9195733387803752,A,381,Correct
1,new_learn,34,524,B,77.00605355400022,58.95854914636213,3.850302677700011,0.9261187243226202,A,489,Correct
1,new_learn,34,525,A,35.44060003063713,43.27551289842714,1.7720300015318566,0.6797701670101451,A,629,Correct
1,new_learn,34,526,A,14.110713306341683,34.02402021999305,0.7055356653170841,0.5344480598436038,A,746,Correct
1,new_learn,34,527,B,51.53240506120618,42.39056988571676,2.576620253060309,0.6658695146722624,A,488,Incorrect
1,new_learn,34,528,A,20.94632828649497,42.839816595604304,1.0473164143247486,0.6729262654894229,A,826,Correct
1,new_learn,34,529,A,11.434087643524776,34.894131692495115,0.5717043821762389,0.5481157388926872,A,583,Incorrect
1,new_learn,34,530,B,55.79849004714513,24.52213985256983,2.7899245023572563,0.3851928720556744,B,773,Incorrect
1,new_learn,34,531,B,83.99675787186571,67.17330346720063,4.199837893593286,1.0551557834495762,B,3052,Incorrect
1,new_learn,34,532,B,52.4384366755929,36.32408593501908,2.6219218337796453,0.5705774076091014,A,646,Incorrect
1,new_learn,34,533,B,83.05160844117216,56.78261562363678,4.152580422058608,0.8919392404741515,A,639,Correct
1,new_learn,34,534,B,35.14910237644226,24.633389821868633,1.757455118822113,0.3869403824869804,A,1605,Incorrect
1,new_learn,34,535,A,13.650382893055095,32.776790096921204,0.6825191446527548,0.5148566148837117,A,522,Incorrect
1,new_learn,34,536,B,86.75275387954258,62.23090969359589,4.337637693977129,0.9775208435980534,B,502,Correct
1,new_learn,34,537,A,51.58487733783787,67.79990400310828,2.579243866891893,1.064998401651291,A,626,Correct
1,new_learn,34,538,A,12.306796438227575,30.727991495478914,0.6153398219113788,0.48267416170883104,A,584,Incorrect
1,new_learn,34,539,A,58.363814923052544,85.31990601789697,2.918190746152627,1.3402019497539834,B,469,Incorrect
1,new_learn,34,540,A,52.29209659828181,63.35532283641063,2.6146048299140903,0.9951830839433864,A,1070,Correct
1,new_learn,34,541,A,33.3142382988658,58.5053589755463,1.6657119149432902,0.9190000297660496,A,441,Correct
1,new_learn,34,542,B,86.43439662542968,69.02893144568343,4.321719831271484,1.0843039195745625,A,487,Incorrect
1,new_learn,34,543,B,55.13231173754029,44.404400651061124,2.7566155868770146,0.6975026943621572,B,2090,Incorrect
1,new_learn,34,544,A,44.4136298601265,63.179261351500756,2.220681493006325,0.9924175166055217,A,455,Incorrect
1,new_learn,34,545,A,47.582668501464276,78.59004394967059,2.379133425073214,1.2344895235879203,B,3633,Correct
1,new_learn,34,546,B,77.64012271260833,57.689447902470334,3.8820061356304167,0.9061837286002596,A,796,Correct
1,new_learn,34,547,B,87.40694524723463,60.91465053497162,4.370347262361731,0.956845093083282,A,1443,Correct
1,new_learn,34,548,B,46.976561023161494,33.18040518677211,2.3488280511580744,0.5211965858894797,B,926,Correct
1,new_learn,34,549,A,46.39251299538902,58.89493335333166,2.319625649769451,0.9251194497824361,B,2503,Incorrect
1,new_learn,34,550,A,21.333993352139238,37.6868952011253,1.0666996676069618,0.5919843655023184,A,790,Correct
1,new_learn,34,551,A,29.874546504318403,46.51080240026196,1.4937273252159202,0.7305899756661474,B,1154,Incorrect
1,new_learn,34,552,B,50.15943879162977,42.501161907367305,2.5079719395814886,0.6676066900860773,A,639,Correct
1,new_learn,34,553,B,56.803369693064646,31.978115659101597,2.840168484653232,0.5023110661513915,A,567,Incorrect
1,new_learn,34,554,B,80.69843828595717,51.879623987044944,4.0349219142978585,0.814923227943506,B,661,Correct
1,new_learn,34,555,B,49.22159391836499,36.153876431095,2.4610796959182495,0.5679037629736061,A,1400,Incorrect
1,new_learn,34,556,B,73.09778581795331,49.581703697258746,3.6548892908976653,0.7788275804388698,B,441,Correct
1,new_learn,34,557,A,52.114747888732424,67.63510982984914,2.6057373944366216,1.0624098208309642,B,524,Correct
1,new_learn,34,558,B,40.308331811019755,25.766809635261694,2.0154165905509878,0.4047440992829242,B,474,Incorrect
1,new_learn,34,559,A,46.05659759433993,52.81283092425164,2.3028298797169966,0.8295820082345439,B,496,Correct
1,new_learn,34,560,A,46.38935511200645,74.23738143033502,2.3194677556003227,1.1661180606164192,B,689,Incorrect
1,new_learn,34,561,A,47.67666604548421,68.97009585792993,2.3838333022742106,1.0833797323232826,A,354,Incorrect
1,new_learn,34,562,A,25.225976488919898,42.702990203188065,1.2612988244459948,0.6707770015432626,B,306,Incorrect
1,new_learn,34,563,B,57.71894549180052,33.031361067540864,2.8859472745900256,0.5188554063392915,B,769,Incorrect
1,new_learn,34,564,A,34.477236665988336,66.09639644148324,1.7238618332994167,1.0382397674466113,A,446,Incorrect
1,new_learn,34,565,B,50.0219567580711,41.29491515955534,2.501097837903555,0.6486590104793641,B,401,Incorrect
1,new_learn,34,566,B,50.40189394636167,36.62603707431734,2.5200946973180836,0.5753204450139137,A,1427,Correct
1,new_learn,34,567,B,77.90442532299883,61.29279185413793,3.8952212661499415,0.9627849230348403,A,542,Incorrect
1,new_learn,34,568,A,43.64056631282147,61.268695609243714,2.1820283156410736,0.9624064201051463,B,463,Correct
1,new_learn,34,569,A,52.63972770698202,78.30341561791869,2.631986385349101,1.229987176281208,B,484,Correct
1,new_learn,34,570,A,24.680956245318914,41.89682837927208,1.2340478122659457,0.6581138412251677,A,1901,Correct
1,new_learn,34,571,B,54.34045681486096,39.75403357826395,2.7170228407430477,0.6244548992001799,A,611,Correct
1,new_learn,34,572,A,25.36495607405098,39.21287524573167,1.268247803702549,0.6159544039906183,A,525,Correct
1,new_learn,34,573,A,62.984828351443966,82.14302106618312,3.1492414175721986,1.2902995576259628,B,654,Incorrect
1,new_learn,34,574,B,69.02477642818053,58.015678104205215,3.4512388214090266,0.9113081406260066,A,372,Incorrect
1,new_learn,34,575,A,34.47351098509768,52.24582475282482,1.723675549254884,0.820675496121071,A,4383,Correct
1,new_learn,34,576,A,51.76313323136833,68.63717676713904,2.5881566615684166,1.07815025147394,A,557,Incorrect
1,new_learn,34,577,B,66.77685972003108,41.87160967255006,3.3388429860015543,0.6577177067063129,A,441,Incorrect
1,new_learn,34,578,B,74.2412970687172,48.964879377953125,3.71206485343586,0.7691385266884394,B,446,Correct
1,new_learn,34,579,A,16.895188791446547,33.80490203989427,0.8447594395723272,0.5310061595192723,A,590,Incorrect
1,new_learn,34,580,B,76.0316745701241,49.28825708901515,3.8015837285062046,0.7742181318954751,B,588,Incorrect
1,new_learn,34,581,B,64.75534423207665,54.5803144141845,3.2377672116038325,0.8573455739711157,A,1114,Correct
1,new_learn,34,582,A,60.9233235625805,75.34531619183561,3.0461661781290252,1.183521459153354,A,934,Correct
1,new_learn,34,583,B,52.80427674256081,29.777371457687273,2.6402138371280404,0.46774185707342364,A,714,Correct
1,new_learn,34,584,A,34.01630909852433,60.841954206864315,1.7008154549262167,0.9557031818316577,A,573,Correct
1,new_learn,34,585,A,40.153640029026406,57.000282091259564,2.0076820014513204,0.8953583373522346,A,570,Correct
1,new_learn,34,586,B,86.7095217798958,63.285717151734076,4.33547608899479,0.9940897204052467,A,384,Incorrect
1,new_learn,34,587,A,48.51036289288005,60.56605605359334,2.4255181446440024,0.9513693837743824,A,638,Incorrect
1,new_learn,34,588,A,17.626101813898646,31.212013380680833,0.8813050906949322,0.4902771597024661,B,1448,Incorrect
1,new_learn,34,589,B,44.522688572271065,25.891017440228794,2.2261344286135536,0.4066951509209399,A,4079,Correct
1,new_learn,34,590,B,40.51147512322186,12.952254995721194,2.025573756161093,0.203453545709897,A,1574,Incorrect
1,new_learn,34,591,B,53.285626554531625,35.53564643874739,2.664281327726581,0.5581926289626655,A,347,Correct
1,new_learn,34,592,A,29.00196618535367,44.20427258042534,1.4500983092676836,0.6943590899797248,B,911,Incorrect
1,new_learn,34,593,B,69.91614016236107,50.00093994456318,3.495807008118054,0.7854129280121206,A,464,Incorrect
1,new_learn,34,594,A,52.594831611153815,65.7339159336365,2.6297415805576905,1.0325459369440075,B,1241,Correct
1,new_learn,34,595,B,84.78851725660599,68.97935815602486,4.239425862830299,1.0835252241615345,B,431,Incorrect
1,new_learn,34,596,A,65.43024564821286,82.21379951726355,3.271512282410643,1.2914113429356961,A,720,Incorrect
1,new_learn,34,597,B,54.20163464617393,44.29799693472317,2.7100817323086965,0.6958313086943474,A,3434,Incorrect
1,new_learn,34,598,A,45.60031728076889,75.37919815880838,2.2800158640384445,1.1840536758460083,B,1190,Correct
1,new_learn,34,599,A,39.605894021834885,59.54431111513867,1.9802947010917444,0.9353198518119237,A,691,Incorrect
1,new_learn,34,600,B,52.898861209424496,24.749334794000106,2.6449430604712245,0.3887616418503249,A,1009,Incorrect
1,new_learn,34,601,B,20.44379251400339,62.67468464120827,1.0221896257001695,0.9844916441743848,A,3816,Incorrect
1,new_learn,34,602,B,63.085929773597755,20.231965259179788,3.1542964886798877,0.3178029671296157,B,2434,Correct
1,new_learn,34,603,A,42.22066478255922,68.55226899501835,2.111033239127961,1.076816523308305,A,615,Correct
1,new_learn,34,604,A,83.84107297878136,32.95288632402067,4.192053648939068,0.5176227279506145,B,712,Incorrect
1,new_learn,34,605,B,49.28825708901515,23.968325429875904,2.464412854450757,0.37649357544673784,A,1284,Incorrect
1,new_learn,34,606,B,34.358485875875395,53.715532875151666,1.7179242937937698,0.8437616173211874,B,1826,Correct
1,new_learn,34,607,B,35.432342338756726,42.713874620214895,1.771617116937836,0.6709479735661132,A,605,Incorrect
1,new_learn,34,608,A,46.340596630447756,80.31124339075896,2.3170298315223876,1.261526061185351,B,406,Incorrect
1,new_learn,34,609,A,59.0621962494286,60.6702127204103,2.95310981247143,0.9530054728708551,A,1001,Correct
1,new_learn,34,610,B,38.10590311243199,32.6904837691455,1.9052951556215993,0.5135009182572193,A,1125,Incorrect
1,new_learn,34,611,A,36.16364902586133,87.4477038386515,1.8081824512930667,1.3736253197640176,B,523,Incorrect
1,new_learn,34,612,A,67.63510982984914,47.885252111267576,3.3817554914924575,0.7521797812402669,A,500,Correct
1,new_learn,34,613,B,12.860614039422096,66.62607710199498,0.6430307019711049,1.0465599718056728,A,1125,Incorrect
1,new_learn,34,614,A,53.45859657546943,76.70508648007103,2.672929828773471,1.2048806808938046,B,2767,Incorrect
1,new_learn,34,615,A,50.30991700743196,74.41804843105685,2.5154958503715985,1.168955971227488,A,517,Correct
1,new_learn,34,616,B,48.70656246411541,23.710167459411082,2.43532812320577,0.3724384395293481,B,2738,Correct
1,new_learn,34,617,A,65.05946949441872,53.739593633146676,3.2529734747209362,0.8441395628239721,A,1518,Correct
1,new_learn,34,618,B,43.846293602322255,46.05261228422727,2.192314680116113,0.7233927421537374,B,1485,Correct
1,new_learn,34,619,A,41.54169790846517,78.04022577165343,2.0770848954232584,1.225852999843576,A,1019,Correct
1,new_learn,34,620,B,50.152475716468516,41.66048642805996,2.507623785823426,0.6544013905368523,A,3496,Incorrect
1,new_learn,34,621,A,45.66376788381966,83.45805103156503,2.283188394190983,1.3109560000184337,B,870,Incorrect
1,new_learn,34,622,B,45.17059058339232,24.338590652543743,2.258529529169616,0.3823096879638032,A,574,Incorrect
1,new_learn,34,623,B,20.943409727849417,60.08251879109213,1.047170486392471,0.9437739982163286,B,533,Correct
1,new_learn,34,624,B,53.183482785393196,33.29287702042819,2.65917413926966,0.5229632893212283,A,580,Incorrect
1,new_learn,34,625,A,66.98229923696482,50.74255847643176,3.349114961848241,0.7970622446695427,B,699,Incorrect
1,new_learn,34,626,B,33.23479824546532,54.68718926290114,1.6617399122732661,0.8590243601690243,A,1073,Incorrect
1,new_learn,34,627,B,27.374172177170948,53.32500389928947,1.3687086088585474,0.8376272025132743,A,478,Incorrect
1,new_learn,34,628,B,47.21273383877973,44.51077031665642,2.3606366919389865,0.6991735451621521,B,406,Correct
1,new_learn,34,629,B,60.58263968618031,18.008341302960645,3.0291319843090156,0.28287436370359403,B,649,Correct
1,new_learn,34,630,B,58.31033730040139,13.923766449043796,2.91551686502007,0.21871401193308015,B,739,Correct
1,new_learn,34,631,A,33.81092079692041,81.77061414104296,1.6905460398460206,1.284449803325131,A,676,Correct
1,new_learn,34,632,B,16.616905251610483,53.12957256691339,0.8308452625805242,0.8345573743229046,B,511,Correct
1,new_learn,34,633,A,38.221924852328605,80.56449926803748,1.9110962426164304,1.265504195203034,B,561,Incorrect
1,new_learn,34,634,B,24.77655486957346,51.01392842997686,1.238827743478673,0.801324913931854,100,1335,Incorrect
1,new_learn,34,635,B,31.066597067054857,53.55056122674671,1.5533298533527429,0.8411702487277892,A,2681,Incorrect
1,new_learn,34,636,A,48.60475824318382,66.40799238827842,2.430237912159191,1.043134305133312,B,576,Incorrect
1,new_learn,34,637,B,40.456968093183185,43.896510493258475,2.0228484046591593,0.6895247744192404,A,373,Incorrect
1,new_learn,34,638,A,85.67246114243326,40.08302456062756,4.2836230571216625,0.6296226774666339,A,2650,Correct
1,new_learn,34,639,B,41.77601343737683,26.788062978263895,2.0888006718688414,0.4207859092820729,B,418,Correct
1,new_learn,34,640,B,50.76445909404557,38.87822088454788,2.5382229547022788,0.6106976655776845,A,471,Incorrect
1,new_learn,34,641,B,66.21151711158784,15.493460406746479,3.3105758555793923,0.24337070696259536,B,866,Correct
1,new_learn,34,642,B,61.6605820212698,29.468177891644984,3.0830291010634903,0.46288505589534523,B,701,Correct
1,new_learn,34,643,A,47.20917696768903,82.99499346258852,2.3604588483844515,1.303682308734005,A,986,Correct
1,new_learn,34,644,B,11.027309174159498,63.63198508042484,0.5513654587079749,0.9995288843099901,B,1205,Correct
1,new_learn,34,645,B,27.2939016805955,62.11363940067879,1.3646950840297751,0.9756787661444902,A,3796,Incorrect
1,new_learn,34,646,B,35.44960628808504,32.82738115364218,1.7724803144042522,0.5156512973443714,B,742,Correct
1,new_learn,34,647,B,23.31321312800716,52.38118781559111,1.165660656400358,0.822801774138841,A,519,Incorrect
1,new_learn,34,648,B,48.51808751414124,37.2640159982258,2.4259043757070624,0.5853417945163935,B,1021,Correct
1,new_learn,34,649,A,64.19915323563038,51.20784906933112,3.2099576617815186,0.8043710122117278,B,680,Incorrect
1,new_learn,34,650,B,39.47263160577787,34.640464247501896,1.9736315802888935,0.5441311399844592,A,605,Incorrect
1,new_learn,34,651,A,69.87055297052503,57.098014117100796,3.493527648526251,0.8968935084242508,B,628,Incorrect
1,new_learn,34,652,A,40.910049888406846,70.51441730399287,2.045502494420342,1.1076378768719448,A,1482,Correct
1,new_learn,34,653,A,77.9622896180313,50.922642423554706,3.8981144809015653,0.7998909966960971,B,2600,Incorrect
1,new_learn,34,654,B,24.912965551015382,52.44854640765866,1.2456482775507691,0.8238598404288189,A,395,Incorrect
1,new_learn,34,655,B,39.58571199587479,48.62854877335157,1.9792855997937395,0.7638554579054712,B,898,Correct
1,new_learn,34,656,A,60.26040907999589,63.58054828362624,3.0130204539997942,0.9987209169952567,B,3439,Incorrect
1,new_learn,34,657,B,42.73886522408224,49.862490634176986,2.136943261204112,0.7832381713301013,A,383,Incorrect
1,new_learn,34,658,A,66.19508212052094,45.69989209098847,3.309754106026047,0.7178522263144783,B,684,Incorrect
1,new_learn,34,659,A,58.049359654643844,63.802845062709025,2.902467982732192,1.0022127466356723,A,782,Correct
1,new_learn,34,660,B,38.24378027691286,50.279911276858975,1.9121890138456428,0.7897949994526337,A,4206,Incorrect
1,new_learn,34,661,A,86.60840264906226,34.946196650742024,4.330420132453113,0.5489335733443769,B,1114,Incorrect
1,new_learn,34,662,A,52.90620520411002,74.7057952997976,2.6453102602055014,1.1734758884721352,A,562,Correct
1,new_learn,34,663,B,47.73585922400315,27.770825539649636,2.3867929612001575,0.4362231074974355,B,1562,Correct
1,new_learn,34,664,B,19.185862290659244,56.495992211899704,0.9592931145329622,0.8874369704508515,100,1228,Incorrect
1,new_learn,34,665,B,44.61892435150875,25.467671597430183,2.2309462175754375,0.4000452499726204,B,828,Correct
1,new_learn,34,666,A,49.08038423633346,74.32965594699888,2.454019211816673,1.1675675053347427,A,1679,Correct
1,new_learn,34,667,B,55.95377884583986,22.4456380996602,2.797688942291993,0.35257525879513824,B,754,Correct
1,new_learn,34,668,A,79.55431650249642,33.25603043614095,3.977715825124821,0.5223845045286948,B,1099,Incorrect
1,new_learn,34,669,A,43.08787034033297,74.75364177077479,2.154393517016649,1.174227459080746,120,958,Correct
1,new_learn,34,670,A,75.18988299099534,38.46415185531968,3.759494149549767,0.6041934844761726,120,923,Correct
1,new_learn,34,671,A,69.16148811770209,39.829426535952955,3.458074405885105,0.6256391690102209,B,2315,Incorrect
1,new_learn,34,672,A,80.74741378592725,48.5675895250321,4.037370689296363,0.762897912272027,A,625,Correct
1,new_learn,34,673,B,28.988379926464212,45.055409387617665,1.4494189963232105,0.7077287156831014,B,2716,Correct
1,new_learn,34,674,A,89.10290852928138,33.35394942306246,4.455145426464068,0.5239226123784927,A,2295,Correct
1,new_learn,34,675,A,34.48017318673279,87.45163488481714,1.7240086593366397,1.373687068492792,B,919,Incorrect
1,new_learn,34,676,A,48.182232303126206,64.3141926091335,2.40911161515631,1.010244975112064,A,1018,Correct
1,new_learn,34,677,B,67.15351341009543,11.059344905947768,3.3576756705047717,0.17371978355020606,B,1144,Correct
1,new_learn,34,678,A,69.40039468851693,58.47863950609823,3.4700197344258465,0.9185803213214202,B,628,Incorrect
1,new_learn,34,679,A,41.46075475827806,75.23520043336978,2.0730377379139027,1.1817917648641507,A,721,Correct
1,new_learn,34,680,B,55.49326961566523,20.716908995265328,2.774663480783261,0.32542044552306937,B,1061,Correct
1,new_learn,34,681,B,66.92577955439212,17.329426802158977,3.346288977719606,0.2722099996629235,A,848,Incorrect
1,new_learn,34,682,A,46.703218564084565,64.59667893245003,2.3351609282042283,1.014682259902418,A,462,Correct
1,new_learn,34,683,A,65.45556190139254,59.29242638540849,3.2727780950696275,0.9313632557295647,107,578,Incorrect
1,new_learn,34,684,B,34.67768222538683,33.99400622649924,1.7338841112693415,0.5339766011362784,A,4167,Incorrect
1,new_learn,34,685,A,34.894131692495115,88.56591235647522,1.7447065846247556,1.3911900980879002,B,6016,Incorrect
1,new_learn,34,686,A,30.251445730553073,88.02048308139933,1.5125722865276539,1.382622515069744,A,1324,Correct
1,new_learn,34,687,B,42.12147408323655,26.645728477768614,2.1060737041618274,0.4185501241765311,A,2401,Incorrect
1,new_learn,34,688,A,85.82843310731204,42.448207319614745,4.2914216553656015,0.6667748813667909,B,710,Incorrect
1,new_learn,34,689,B,24.970870983791983,56.69074551763933,1.248543549189599,0.890496148223721,A,11817,Incorrect
1,new_learn,34,690,A,81.92967218700741,33.81370144272486,4.096483609350371,0.5311443802157151,B,458,Incorrect
1,new_learn,34,691,A,30.727991495478914,87.69320356177242,1.5363995747739458,1.3774816203970925,A,556,Correct
1,new_learn,34,692,A,46.40604088076489,68.82428060580804,2.3203020440382445,1.0810892716990452,B,747,Incorrect
1,new_learn,34,693,B,66.29313646423803,22.287211998966583,3.3146568232119016,0.35008670742475856,A,642,Incorrect
1,new_learn,34,694,A,66.95521222802275,41.999573367167436,3.347760611401137,0.6597277557209937,B,882,Incorrect
1,new_learn,34,695,A,69.89275660430458,50.67353947743852,3.494637830215229,0.7959780967685661,A,411,Correct
1,new_learn,34,696,A,88.52155016281029,35.22121586655231,4.426077508140514,0.553253565084305,A,355,Correct
1,new_learn,34,697,B,11.682129027950182,64.04298908811585,0.5841064513975092,1.00598492016578,B,1357,Correct
1,new_learn,34,698,A,71.0958467569303,56.85494489247812,3.554792337846515,0.8930753859723091,A,716,Correct
1,new_learn,34,699,B,53.75304146875324,37.660246279438574,2.6876520734376617,0.5915657652193329,A,425,Incorrect
1,new_learn,34,700,B,15.451159419273111,65.88602664181296,0.7725579709636555,1.0349352863607049,B,962,Correct
1,new_learn,34,701,A,74.14948240569998,57.79668405131019,3.7074741202849992,0.9078681900872323,A,511,Correct
1,new_learn,34,702,A,47.215062589625944,80.04529178723395,2.360753129481297,1.257348503166128,A,578,Correct
1,new_learn,34,703,A,37.25022553747495,73.32731731888359,1.8625112768737473,1.1518228069822614,B,1229,Incorrect
1,new_learn,34,704,A,78.62172315999074,48.759539209933436,3.9310861579995366,0.7659130508717518,107,692,Incorrect
1,new_learn,34,705,B,40.69062623557975,39.08390238602134,2.0345313117789874,0.6139285030477262,B,413,Correct
1,new_learn,34,706,B,49.84338813794817,28.81590982016334,2.4921694068974087,0.45263925298765567,A,656,Incorrect
1,new_learn,34,707,B,69.02893144568343,13.565603374570316,3.4514465722841714,0.21308799951531504,B,642,Correct
1,new_learn,34,708,B,49.85455955411455,36.36782579176077,2.492727977705728,0.5712644716721452,A,1253,Incorrect
1,new_learn,34,709,A,68.63717676713904,48.23686676863167,3.4318588383569524,0.7577029313626144,B,1019,Incorrect
1,new_learn,34,710,A,43.13600489455976,77.2905238648426,2.156800244727988,1.2140767098294802,A,1139,Correct
1,new_learn,34,711,A,58.2248786400732,67.99414829711829,2.91124393200366,1.0680495838866086,A,489,Correct
1,new_learn,34,712,B,54.80324524491062,25.748238768630756,2.7401622622455313,0.4044523887920314,A,2784,Incorrect
1,new_learn,34,713,A,39.385150032752115,80.370787056558,1.9692575016376057,1.2624613709005612,B,4011,Incorrect
1,new_learn,34,714,B,68.60270801026776,17.072909044240205,3.4301354005133877,0.2681806281439588,A,5654,Incorrect
1,new_learn,34,715,B,28.880998486317473,55.201328850418676,1.4440499243158738,0.867100445924348,B,4964,Correct
1,new_learn,34,716,B,50.65948189231705,29.1467577285418,2.5329740946158523,0.45783619977974227,B,1773,Correct
1,new_learn,34,717,A,54.72926293623256,65.01125749512141,2.736463146811628,1.021194444736539,B,444,Incorrect
1,new_learn,34,718,A,41.91950260856001,76.03913695615242,2.0959751304280005,1.1944199702337828,A,900,Correct
1,new_learn,34,719,B,25.891017440228794,55.477311427728935,1.2945508720114396,0.8714355701113315,B,533,Correct
1,new_learn,34,720,B,27.672029295998847,58.433312603731636,1.3836014647999422,0.9178683280039959,B,1211,Correct
1,new_learn,34,721,A,83.19924496381391,40.42117903304498,4.159962248190696,0.6349343954982594,A,648,Correct
1,new_learn,34,722,B,21.01745976393532,65.511747147958,1.050872988196766,1.0290561178192847,A,688,Incorrect
1,new_learn,34,723,A,85.1406958210127,38.21929634964404,4.257034791050635,0.6003473031870645,107,564,Incorrect
1,new_learn,34,724,B,13.309196443527725,64.94970315854721,0.6654598221763862,1.0202275514786485,B,764,Correct
1,new_learn,34,725,B,36.65041898335737,35.217556471760844,1.8325209491678687,0.5531960834453377,A,434,Incorrect
1,new_learn,34,726,B,33.84366608929925,40.732003111695406,1.6921833044649623,0.6398168087084943,A,619,Incorrect
1,new_learn,34,727,B,43.16086496467054,46.54372715047094,2.158043248233527,0.7311071564330365,B,934,Correct
1,new_learn,34,728,A,75.01654949002845,49.69143580418307,3.7508274745014227,0.7805512483437517,B,620,Incorrect
1,new_learn,34,729,A,54.04368161097085,65.60900639423328,2.7021840805485424,1.030583862487245,A,668,Correct
1,new_learn,34,730,A,73.43037978438028,57.02283489074506,3.671518989219014,0.8957125958981422,A,521,Correct
1,new_learn,34,731,B,62.96578909055309,12.820291133678253,3.1482894545276543,0.2013806622122298,A,1764,Incorrect
1,new_learn,34,732,A,42.113530526218554,72.08559576410303,2.1056765263109276,1.1323178904107478,A,542,Correct
1,new_learn,34,733,B,50.00093994456318,30.083859837638926,2.500046997228159,0.47255616528775735,A,1700,Incorrect
1,new_learn,34,734,A,43.548485447350174,83.87738161213687,2.177424272367509,1.3175428293751839,A,495,Correct
1,new_learn,34,735,A,74.04295600154566,45.04950216978668,3.702147800077283,0.7076359253223963,B,592,Incorrect
1,new_learn,34,736,A,69.83943701619098,40.28162034310735,3.491971850809549,0.632742212722996,B,667,Incorrect
1,new_learn,34,737,A,61.81618207471716,55.558944444087466,3.0908091037358583,0.8727178585337432,B,472,Incorrect
1,new_learn,34,738,A,69.7608516250475,58.56290443117729,3.4880425812523748,0.9199039516693385,A,404,Correct
1,new_learn,34,739,B,21.55242331251959,59.40449564904122,1.0776211656259795,0.9331236356061735,B,2704,Correct
1,new_learn,34,740,A,31.768802526731083,85.31036034484241,1.5884401263365542,1.3400520066722745,B,1262,Incorrect
1,new_learn,34,741,B,12.575887474668122,68.60168684124508,0.6287943737334061,1.0775927770216156,B,1228,Correct
1,new_learn,34,742,B,24.165091480988504,44.23410679382207,1.2082545740494253,0.6948277247078889,A,495,Incorrect
1,new_learn,34,743,A,43.95485640787459,84.17597378964342,2.1977428203937293,1.322233104331554,B,825,Incorrect
1,new_learn,34,744,B,58.54185696096592,26.35767352745269,2.927092848048296,0.4140253675978177,A,1877,Incorrect
1,new_learn,34,745,A,53.71465287165282,66.38685614199291,2.6857326435826407,1.0428022977530367,A,432,Correct
1,new_learn,34,746,A,43.22978763218475,66.30196098972407,2.1614893816092375,1.0414687678195709,A,632,Correct
1,new_learn,34,747,B,14.70834490763042,67.25990411865763,0.735417245381521,1.0565161033016435,B,599,Correct
1,new_learn,34,748,A,45.98496749880018,68.68754064114785,2.299248374940009,1.078941365356902,B,2623,Incorrect
1,new_learn,34,749,B,35.95824260504064,40.02765547170939,1.797912130252032,0.6287529418517275,B,713,Correct
1,new_learn,34,750,A,42.84423413414203,66.73958422320862,2.1422117067071014,1.0483429374963475,A,1040,Correct
1,new_learn,34,751,B,58.06087976424391,23.228660676051504,2.9030439882121954,0.3648749486630676,A,1577,Incorrect
1,new_learn,34,752,A,52.76281805642745,69.29522233900227,2.6381409028213727,1.0884868071454044,A,1300,Correct
1,new_learn,34,753,A,79.29825407927567,41.717064664627316,3.9649127039637837,0.6552901193986176,B,1145,Incorrect
1,new_learn,34,754,A,60.841954206864315,65.98369090147567,3.042097710343216,1.0364693929640783,A,581,Correct
1,new_learn,34,755,A,50.27646450873927,65.86452956075763,2.5138232254369632,1.0345976110011197,A,421,Correct
1,new_learn,34,756,A,47.008699856904876,80.06516683575227,2.3504349928452437,1.2576606996982023,B,1188,Incorrect
1,new_learn,34,757,B,40.87129868501266,27.758432611867903,2.0435649342506332,0.43602843984305767,A,767,Incorrect
1,new_learn,34,758,A,68.35314538869024,48.403281242701155,3.4176572694345118,0.760316963808553,A,4628,Correct
1,new_learn,34,759,B,46.782485590773454,34.047150748037126,2.3391242795386726,0.5348113933284883,A,571,Incorrect
1,new_learn,34,760,B,34.97388864366194,46.056595805623814,1.748694432183097,0.7234553151615112,A,765,Incorrect
1,new_learn,34,761,A,61.99061731591163,53.339303633592515,3.0995308657955816,0.837851822214448,A,936,Correct
1,new_learn,34,762,A,65.7339159336365,47.405168388846185,3.2866957966818244,0.7446386437629313,B,655,Incorrect
1,new_learn,34,763,B,61.71486299024436,20.74018351131886,3.085743149512218,0.32578604076631745,B,639,Correct
1,new_learn,34,764,A,81.74188012256064,40.473885648455884,4.087094006128032,0.635762309077112,A,2049,Correct
1,new_learn,34,765,A,47.845153416617265,72.25506934276054,2.3922576708308636,1.1349799751591878,B,867,Incorrect
1,new_learn,34,766,B,43.97872013035769,45.173737363875304,2.1989360065178842,0.709587407187727,A,10140,Incorrect
1,new_learn,34,767,B,23.37175660257497,61.60671873155301,1.1685878301287485,0.9677160748940982,B,369,Correct
1,new_learn,34,768,B,59.376184597227194,14.097156071080718,2.9688092298613595,0.22143760974707966,B,1036,Correct
1,new_learn,34,769,B,32.87480884395277,57.65973992792115,1.6437404421976385,0.9057170768272758,A,1118,Incorrect
1,new_learn,34,770,A,47.52161124677396,74.49749335542968,2.376080562338698,1.1702038891813615,A,826,Correct
1,new_learn,34,771,A,39.21287524573167,74.63504392594902,1.960643762286583,1.1723645284905648,A,1185,Correct
1,new_learn,34,772,A,39.901642599890636,76.85219239041459,1.9950821299945318,1.2071914151299794,A,605,Correct
1,new_learn,34,773,B,16.047692590100866,54.5258390534338,0.8023846295050433,0.8564898770054352,B,952,Correct
1,new_learn,34,774,A,84.06297572024691,38.333124300735,4.2031487860123455,0.6021353084616673,B,633,Incorrect
1,new_learn,34,775,B,60.8080592147121,20.147091087814673,3.040402960735605,0.3164697667634149,A,654,Incorrect
1,new_learn,34,776,A,69.35731160695374,54.45996531974038,3.4678655803476874,0.8554551348162563,A,664,Correct
1,new_learn,34,777,A,56.814460490263656,54.99012101240932,2.8407230245131827,0.8637828009629941,A,1059,Correct
1,new_learn,34,778,A,30.538375112373853,84.45725195241032,1.5269187556186927,1.3266514113803725,B,1195,Incorrect
1,new_learn,34,779,B,54.956157972450164,35.94902949680332,2.747807898622508,0.5646860348542004,A,1220,Incorrect
1,new_learn,34,780,B,39.12806048901519,36.9496579291637,1.9564030244507595,0.5804038695145826,B,735,Correct
1,new_learn,34,781,A,68.97009585792993,52.32333395451579,3.4485047928964967,0.821893007814161,B,850,Incorrect
1,new_learn,34,782,B,28.519006814623257,40.977901789103996,1.425950340731163,0.6436793761008658,B,595,Correct
1,new_learn,34,783,A,41.89682837927208,75.31904375468109,2.094841418963604,1.1831087726755714,A,381,Correct
1,new_learn,34,784,A,68.69399457051253,56.82587066958857,3.4346997285256267,0.8926186891471156,A,442,Correct
1,new_learn,34,785,B,37.35245853831745,33.54472241830135,1.8676229269158724,0.5269192675802218,B,1243,Correct
1,new_learn,34,786,A,58.791760043847695,57.156776836795714,2.9395880021923846,0.8978165510667435,A,498,Correct
1,new_learn,34,787,A,39.879410309474984,80.36188861960827,1.9939705154737493,1.2623215945798127,A,1247,Correct
1,new_learn,34,788,A,60.71947217869981,63.238423524174294,3.0359736089349907,0.9933468338407296,A,1032,Correct
1,new_learn,34,789,B,37.106571498606435,38.25412138289601,1.8553285749303217,0.6008943335301916,B,555,Correct
1,new_learn,34,790,A,76.45207431388404,51.979847090445816,3.822603715694202,0.8164975287703268,A,679,Correct
1,new_learn,34,791,B,17.45899984419451,57.35516919109502,0.8729499922097255,0.9009328908807188,B,1173,Correct
1,new_learn,34,792,A,47.9834383927804,73.55251521331712,2.39917191963902,1.155360207236043,A,530,Correct
1,new_learn,34,793,A,31.212013380680833,82.37389818610136,1.5606006690340417,1.293926166945048,A,583,Correct
1,new_learn,34,794,B,23.195790516100676,50.97322441355939,1.1597895258050337,0.8006855367371105,B,502,Correct
1,new_learn,34,795,A,43.27551289842714,64.55939996936287,2.163775644921357,1.0140966833195775,A,2455,Correct
1,new_learn,34,796,B,61.29279185413793,22.095574677001167,3.0646395927068966,0.3470764754105577,B,682,Correct
1,new_learn,34,797,B,26.108826091711627,52.57840925810916,1.3054413045855813,0.8258997213135666,A,622,Incorrect
1,new_learn,34,798,A,67.79990400310828,48.41512266216213,3.389995200155414,0.7605029683904861,B,746,Incorrect
1,new_learn,34,799,B,34.72056986230723,51.531528826640525,1.7360284931153616,0.8094553619501227,A,624,Incorrect
1,new_learn,34,800,B,57.06830053441096,28.74666809949423,2.853415026720548,0.4515516065827756,B,386,Correct
1,new_learn,34,801,A,73.54452481110931,53.324485597989806,3.677226240555466,0.8376190610554975,B,875,Incorrect
1,new_learn,34,802,B,64.33805213008588,23.44214676210663,3.216902606504294,0.36822838026103977,B,587,Correct
1,new_learn,34,803,B,63.31481974679765,25.07729756647913,3.1657409873398823,0.39391326903368024,B,744,Correct
1,new_learn,34,804,B,35.96354147698431,44.32704740284615,1.7981770738492155,0.6962876323805399,A,516,Incorrect
1,new_learn,34,805,B,31.686940121483673,38.89911403825441,1.5843470060741836,0.6110258544686583,B,1945,Correct
1,new_learn,34,806,B,41.58525299595459,28.06695527729886,2.0792626497977293,0.44087470253897687,B,460,Correct
1,new_learn,34,807,A,79.04503617928295,43.35623117671736,3.952251808964147,0.68103808676058,A,2419,Correct
1,new_learn,34,808,A,73.0202056833396,42.84925253112831,3.65101028416698,0.6730744848180327,A,819,Correct
1,new_learn,34,809,B,21.624370128664175,54.368341925388115,1.0812185064332087,0.8540159179032863,B,1680,Correct
1,new_learn,34,810,B,30.666743025508158,46.3002925300721,1.533337151275408,0.7272832943576644,A,792,Incorrect
1,new_learn,34,811,A,56.87538573398387,71.94192174118496,2.8437692866991933,1.1300610641361923,B,585,Incorrect
1,new_learn,34,812,A,57.801665393213646,73.80002964655718,2.8900832696606824,1.1592481548616649,A,520,Correct
1,new_learn,34,813,A,83.41855023517157,36.329837952243345,4.1709275117585785,0.5706677600843768,B,618,Incorrect
1,new_learn,34,814,A,69.42703064179052,47.80235738029921,3.471351532089526,0.7508776738511093,A,495,Correct
1,new_learn,34,815,A,37.6443212589746,75.76147406161866,1.88221606294873,1.1900584516855741,A,608,Correct
1,new_learn,34,816,A,78.59004394967059,52.417331498535724,3.9295021974835294,0.8233695177829035,A,1315,Correct
1,new_learn,34,817,A,55.38465606872262,60.98861213811174,2.769232803436131,0.9580068792286457,A,841,Correct
1,new_learn,34,818,B,40.6725059061183,29.967375949439102,2.0336252953059155,0.4707264406506066,B,720,Correct
1,new_learn,34,819,A,45.89554799340555,73.32256146063958,2.2947773996702776,1.151748102135657,A,619,Correct
1,new_learn,34,820,A,74.90011431840338,50.37827570993078,3.7450057159201693,0.7913401043541984,B,655,Incorrect
1,new_learn,34,821,A,42.702990203188065,74.7740235110801,2.135149510159403,1.1745476147087985,A,375,Correct
1,new_learn,34,822,A,42.62100926878439,71.28799743365656,2.1310504634392196,1.1197892451335176,A,379,Correct
1,new_learn,34,823,A,73.70720512901487,45.34660423005022,3.6853602564507435,0.712302793571848,A,419,Correct
1,new_learn,34,824,A,39.13658946404496,75.86910742129703,1.956829473202248,1.191749152545808,A,412,Correct
1,new_learn,34,825,B,44.86048725554181,45.777525903609664,2.2430243627770907,0.7190716953914829,A,441,Incorrect
1,new_learn,34,826,B,47.82673817932006,35.9270429409747,2.391336908966003,0.5643406708428558,A,400,Incorrect
1,new_learn,34,827,B,39.30793214569327,50.770483700511505,1.9653966072846634,0.7975008930636364,B,621,Correct
1,new_learn,34,828,A,57.18038215552995,52.54286887811643,2.8590191077764975,0.8253414543301117,B,641,Incorrect
1,new_learn,34,829,A,72.65845728780151,37.857594778137425,3.6329228643900757,0.5946657081878792,A,354,Correct
1,new_learn,34,830,A,59.33616544286316,61.14602786513507,2.966808272143158,0.9604795596865255,B,663,Incorrect
1,new_learn,34,831,A,42.839816595604304,79.05367171350503,2.141990829780215,1.241772171472233,A,549,Correct
1,new_learn,34,832,B,43.042713837821644,42.2645719326237,2.152135691891082,0.6638903434532399,A,820,Incorrect
1,new_learn,34,833,A,78.85135519566913,38.6383285960995,3.9425677597834565,0.606929446322473,B,432,Incorrect
1,new_learn,34,834,B,25.021905885824708,63.53716686218082,1.2510952942912354,0.9980394832206805,A,2742,Incorrect
1,new_learn,34,835,A,68.52039750338797,53.33986174781881,3.4260198751693984,0.8378605890522139,B,1011,Incorrect
1,new_learn,34,836,B,24.07836094731119,58.45119026773816,1.2039180473655593,0.9181491496935272,A,983,Incorrect
1,new_learn,34,837,B,38.564670241085366,42.94773934761688,1.9282335120542684,0.6746215121138125,B,403,Correct
1,new_learn,34,838,A,82.84365111440525,45.89157166324325,4.142182555720263,0.7208631219946726,B,449,Incorrect
1,new_learn,34,839,A,52.851208763789,54.85225521552449,2.6425604381894505,0.8616172100896206,A,434,Correct
1,new_learn,34,840,A,52.274500217647066,67.01280765894964,2.6137250108823533,1.05263472118891,A,556,Correct
1,new_learn,34,841,B,67.17330346720063,16.00324212813429,3.3586651733600315,0.25137833951682687,B,588,Correct
1,new_learn,34,842,B,51.879623987044944,19.301561714042833,2.593981199352247,0.3031882224182349,B,557,Correct
1,new_learn,34,843,B,54.79456044376813,27.08253065395631,2.739728022188406,0.42541139671544764,B,432,Correct
1,new_learn,34,844,B,15.929952919654838,60.531930712153454,0.7964976459827419,0.9508333441645382,A,601,Incorrect
1,new_learn,34,845,A,67.50834085589649,49.63663702811891,3.3754170427948247,0.7796904711822074,B,495,Incorrect
1,new_learn,34,846,B,68.86618611700604,12.864241111950975,3.4433093058503017,0.20207102685656483,B,664,Correct
1,new_learn,34,847,A,82.21379951726355,34.56975435178714,4.110689975863178,0.5430204315398913,A,1270,Correct
1,new_learn,34,848,A,76.03104233647191,36.41388141939304,3.8015521168235953,0.5719879117792752,A,819,Correct
1,new_learn,34,849,B,26.707335013303354,56.70327964907105,1.3353667506651679,0.8906930338998462,B,3500,Correct
1,new_learn,34,850,B,28.84283842495053,49.660486807714975,1.4421419212475264,0.7800651026440512,A,915,Incorrect
1,new_learn,34,851,A,81.33289293138475,37.16922721111969,4.066644646569237,0.5838528557303172,B,433,Incorrect
1,new_learn,34,852,B,24.090038383475576,46.411135983687934,1.2045019191737787,0.7290244192555546,A,589,Incorrect
1,new_learn,34,853,B,55.633073690616285,36.7826783576826,2.7816536845308146,0.5777809605392596,B,2044,Correct
1,new_learn,34,854,A,49.423274797130674,65.34540126561976,2.4711637398565336,1.026443162809741,A,423,Correct
1,new_learn,34,855,B,54.47853123492749,26.5900041309213,2.723926561746374,0.417674808183123,A,326,Incorrect
1,new_learn,34,856,B,46.80152138633997,24.73180678735804,2.3400760693169986,0.388486312565831,B,5108,Correct
1,new_learn,34,857,B,68.00396105640668,17.871404574963776,3.4001980528203344,0.2807233666101861,B,1188,Correct
1,new_learn,34,858,A,36.377533693887,85.64012238530096,1.8188766846943503,1.3452318966909613,A,553,Correct
1,new_learn,34,859,B,50.93019466630704,21.454229147785725,2.546509733315352,0.33700224339557827,A,434,Incorrect
1,new_learn,34,860,B,49.575543897193356,26.393365005354113,2.478777194859668,0.41458600802167206,B,559,Correct
1,new_learn,34,861,B,23.66187915699964,62.6416063568149,1.183093957849982,0.9839720516981668,A,6552,Incorrect
1,new_learn,34,862,B,25.045689592962503,44.12558211550546,1.2522844796481252,0.6931230230472255,B,818,Correct
1,new_learn,34,863,A,53.38041992246824,78.36695810963718,2.669020996123412,1.2309852994070762,B,780,Incorrect
1,new_learn,34,864,B,32.64156181406243,57.90401784234324,1.6320780907031212,0.909554185334189,A,512,Incorrect
1,new_learn,34,865,A,64.22955610939873,45.57876266168455,3.2114778054699364,0.7159495296883048,B,875,Incorrect
1,new_learn,34,866,A,39.30429014492998,76.54074371839789,1.965214507246499,1.2022991908300897,A,1083,Correct
1,new_learn,34,867,A,47.808726326755576,66.40725581621976,2.3904363163377784,1.0431227350864705,A,362,Correct
1,new_learn,34,868,A,44.20427258042534,70.99803381464633,2.210213629021267,1.115234507257063,A,553,Correct
1,new_learn,34,869,B,19.025941630479345,51.33792398861145,0.9512970815239672,0.8064142242658647,B,466,Correct
1,new_learn,34,870,A,67.27908555225167,52.61851092005858,3.3639542776125837,0.8265296367464519,A,560,Correct
1,new_learn,34,871,B,63.88119184902099,18.51033467420912,3.1940595924510493,0.2907596571399189,A,433,Incorrect
1,new_learn,34,872,A,57.33037587433274,51.53431864030242,2.866518793716637,0.8094991842406482,A,618,Correct
1,new_learn,34,873,B,21.83856087006842,64.188116554886,1.091928043503421,1.008264577082976,A,730,Incorrect
1,new_learn,34,874,B,24.693174698935266,63.76239006383426,1.2346587349467633,1.0015772809993426,A,404,Incorrect
1,new_learn,34,875,B,19.112819267326554,67.1385612133081,0.9556409633663278,1.0546100534015868,B,373,Correct
1,new_learn,34,876,A,58.89493335333166,53.60748700461098,2.9447466676665828,0.8420644367554808,B,480,Incorrect
1,new_learn,34,877,B,42.28470043991024,29.096675945745417,2.114235021995512,0.4570495169751832,A,338,Incorrect
1,new_learn,34,878,A,73.15693169848832,52.56145452299312,3.657846584924416,0.8256333969571459,B,246,Incorrect
1,new_learn,34,879,B,64.30545787530657,20.289494538128125,3.2152728937653285,0.31870663493016776,B,2300,Correct
1,new_learn,34,880,B,52.51080925740145,24.144078993390778,2.625540462870072,0.37925430596664056,A,674,Incorrect
1,new_learn,34,881,B,55.89843872004333,20.272392549634304,2.7949219360021664,0.3184379975230979,B,376,Correct
1,new_learn,34,882,A,41.06793016140229,84.4627436578811,2.053396508070114,1.3267376748881858,A,534,Correct
1,new_learn,34,883,B,20.17114746600605,66.79195793978613,1.0085573733003026,1.049165621912553,B,742,Correct
1,new_learn,34,884,B,48.299375222652486,42.44976990938788,2.4149687611326245,0.6667994264695501,B,366,Correct
1,new_learn,34,885,A,52.13706848816122,66.03389614799131,2.606853424408061,1.0372580151322044,A,841,Correct
1,new_learn,34,886,B,61.509121646967714,20.322278620646074,3.075456082348386,0.31922160609413314,B,745,Correct
1,new_learn,34,887,B,50.091757791041104,39.44727605091175,2.5045878895520555,0.6196363632283648,B,476,Correct
1,new_learn,34,888,B,47.08626843467971,27.584332299990535,2.3543134217339854,0.4332936785391495,B,797,Correct
1,new_learn,34,889,A,53.74371255586567,56.281333543076634,2.6871856277932835,0.8840651199658318,A,691,Correct
1,new_learn,34,890,B,21.827039815733066,55.086992806990736,1.0913519907866531,0.8653044595539795,B,1448,Correct
1,new_learn,34,891,A,46.99007369683911,79.14096307378651,2.3495036848419555,1.2431433409531438,A,857,Correct
1,new_learn,34,892,B,62.68388838800969,26.26174747783088,3.1341944194004845,0.4125185647339189,B,452,Correct
1,new_learn,34,893,B,23.061151799966012,50.107027225205684,1.1530575899983007,0.7870793431196497,B,825,Correct
1,new_learn,34,894,A,82.27384106401192,48.16633806353972,4.113692053200595,0.756595069053694,A,708,Correct
1,new_learn,34,895,B,32.56670626487072,40.95464592806606,1.628335313243536,0.6433140738899172,B,454,Correct
1,new_learn,34,896,A,48.030596686122834,82.43194422934856,2.4015298343061415,1.294837952060225,A,650,Correct
1,new_learn,34,897,B,45.775811308899904,40.60374591246359,2.2887905654449954,0.637802149334111,B,443,Correct
1,new_learn,34,898,B,65.89693822087933,15.648091985654062,3.294846911043967,0.24579965412414062,B,723,Correct
