experiment,condition,subject,trial,cat,x,y,xt,yt,resp,rt,fb
1,relearn,7,0,A,32.625535367250485,59.11071062287371,1.6312767683625242,0.928508871206461,B,5381,Incorrect
1,relearn,7,1,B,86.39044194364074,68.00709731162311,4.319522097182037,1.0682529865308068,B,7146,Correct
1,relearn,7,2,B,61.399891694770766,34.39995154278981,3.0699945847385384,0.5403531752533667,B,2459,Correct
1,relearn,7,3,B,71.1151024314791,43.225070617755904,3.555755121573955,0.6789778215182098,B,1898,Correct
1,relearn,7,4,A,54.805279701744354,69.66947207358167,2.7402639850872172,1.0943655082292172,A,4026,Correct
1,relearn,7,5,B,65.51365166074072,48.01654796624764,3.275682583037036,0.7542421717075276,B,1667,Correct
1,relearn,7,6,B,59.35842729549517,47.85160090493983,2.9679213647747584,0.7516511893273484,B,2548,Correct
1,relearn,7,7,B,49.911396223943385,36.93453168414309,2.495569811197169,0.5801662670134169,B,1440,Correct
1,relearn,7,8,A,13.839703797022054,32.95934349808584,0.6919851898511027,0.517724157003645,B,2343,Incorrect
1,relearn,7,9,B,66.0681698012751,40.03646178595381,3.303408490063755,0.628891271112405,A,2683,Incorrect
1,relearn,7,10,B,86.22761915204582,66.23544182230698,4.311380957602291,1.0404238871811688,A,1289,Incorrect
1,relearn,7,11,A,66.0297627350536,89.61322477838942,3.30148813675268,1.4076412431413954,A,1303,Correct
1,relearn,7,12,A,68.61894048801274,84.45992358308847,3.4309470244006373,1.32669337725693,A,1480,Correct
1,relearn,7,13,A,67.68836730498913,80.00613611296914,3.3844183652494566,1.2567334472730447,A,2131,Correct
1,relearn,7,14,B,53.86748468808179,41.14251511174563,2.6933742344040894,0.6462651161263355,B,1191,Correct
1,relearn,7,15,B,85.85481645126774,68.0644711308239,4.292740822563387,1.0691542123753548,B,1030,Correct
1,relearn,7,16,A,48.68152877818524,65.31773727925355,2.434076438909262,1.0260086179280554,B,796,Incorrect
1,relearn,7,17,A,23.87495377448415,36.6776499926918,1.1937476887242076,0.5761311788398914,B,2495,Incorrect
1,relearn,7,18,A,69.70399207713105,85.73164980307222,3.485199603856552,1.3466696060073224,A,2051,Correct
1,relearn,7,19,A,24.966674441445456,53.38160666801946,1.2483337220722728,0.8385163167253492,B,2002,Incorrect
1,relearn,7,20,A,44.92591106526245,69.48318052847458,2.2462955532631224,1.0914392474815455,A,1884,Correct
1,relearn,7,21,B,71.83253413147122,39.35830307099474,3.591626706573561,0.6182387789279883,B,927,Correct
1,relearn,7,22,A,28.922983153599706,61.12230257909895,1.4461491576799852,0.9601068837649487,A,1323,Correct
1,relearn,7,23,A,36.95155301588717,58.65039959052725,1.8475776507943584,0.9212783224185311,B,1686,Incorrect
1,relearn,7,24,A,63.449838117782974,80.7022423133534,3.1724919058891485,1.267667857899272,A,1522,Correct
1,relearn,7,25,A,31.097398053684074,61.799872748116826,1.5548699026842037,0.9707501310913392,B,3913,Incorrect
1,relearn,7,26,A,24.14357630482708,51.53119244855934,1.2071788152413538,0.8094500781355792,B,2140,Incorrect
1,relearn,7,27,B,76.40451556906461,47.59916963028074,3.820225778453231,0.7476860081373218,B,1068,Correct
1,relearn,7,28,B,67.2199692831735,41.89482950485113,3.360998464158675,0.658082442979186,B,772,Correct
1,relearn,7,29,A,48.383420505256225,74.30572677824348,2.4191710252628114,1.1671916268309004,A,2225,Correct
1,relearn,7,30,A,17.803398188726813,40.063878922227474,0.8901699094363407,0.629321938481904,A,1011,Correct
1,relearn,7,31,A,31.535961939160202,54.90242665943915,1.57679809695801,0.8624053012877321,A,1802,Correct
1,relearn,7,32,A,62.6104872353082,79.27260528241399,3.13052436176541,1.245211171930776,B,587,Incorrect
1,relearn,7,33,A,29.408333126428715,62.560426967363746,1.4704166563214358,0.9826968888305536,B,1259,Incorrect
1,relearn,7,34,A,65.03278989015189,81.92659209909326,3.2516394945075944,1.286899899360795,A,704,Correct
1,relearn,7,35,B,63.347495272449244,30.5710863180439,3.1673747636224623,0.48020950094513076,B,757,Correct
1,relearn,7,36,B,59.58477006604203,52.54687745935232,2.9792385033021014,0.8254044209769216,B,1071,Correct
1,relearn,7,37,B,73.92919534348229,43.83470860094439,3.696459767174115,0.6885539925648811,B,813,Correct
1,relearn,7,38,B,85.09378599264998,64.73326206930281,4.254689299632499,1.0168277027991226,B,1991,Correct
1,relearn,7,39,A,18.021595687521828,34.02378402861132,0.9010797843760914,0.5344443497580552,A,941,Correct
1,relearn,7,40,A,49.36298384583982,56.015339134180515,2.468149192291991,0.8798868895614117,A,570,Correct
1,relearn,7,41,A,41.78259249229108,59.34748567215904,2.089129624614554,0.9322281249834017,A,582,Correct
1,relearn,7,42,B,45.51042194716783,34.940818746727196,2.2755210973583915,0.5488490974256534,A,702,Incorrect
1,relearn,7,43,B,65.54692578699006,37.11826720779036,3.277346289349503,0.5830523778698856,B,939,Correct
1,relearn,7,44,A,55.5745668245653,80.83068453595966,2.7787283412282653,1.2696854236140247,A,1766,Correct
1,relearn,7,45,A,40.139867794440185,70.96893225504732,2.0069933897220094,1.114777381027842,B,1910,Incorrect
1,relearn,7,46,B,35.92545369508537,25.687171434698996,1.7962726847542685,0.40349314535375974,B,1924,Correct
1,relearn,7,47,B,84.77866244766662,68.62318864657564,4.238933122383331,1.0779305265899428,B,776,Correct
1,relearn,7,48,B,73.00742857481697,43.98435153693213,3.6503714287408484,0.6909045783066845,B,583,Correct
1,relearn,7,49,A,26.470576493884664,52.90227291267242,1.3235288246942332,0.83098695970327,B,1439,Incorrect
1,relearn,7,50,B,38.83485936488077,12.067019280611898,1.9417429682440386,0.18954829561348363,A,1881,Incorrect
1,relearn,7,51,A,49.599714901398436,57.732952765235936,2.479985745069922,0.9068671013865587,B,979,Incorrect
1,relearn,7,52,A,17.47449725571346,43.808981647314205,0.873724862785673,0.6881498745222618,A,2627,Correct
1,relearn,7,53,B,39.05475367917331,19.4274311142971,1.9527376839586654,0.30516537433398766,B,1005,Correct
1,relearn,7,54,A,63.27566133778541,83.09496718008019,3.1637830668892706,1.3052526922161245,A,1231,Correct
1,relearn,7,55,B,56.2390836182103,39.576200634556926,2.811954180910515,0.6216615058525987,B,2089,Correct
1,relearn,7,56,A,29.194146563175938,57.742313854536285,1.459707328158797,0.9070141450334366,A,1942,Correct
1,relearn,7,57,A,67.26595638047296,85.45076910667925,3.363297819023648,1.342257542345706,A,808,Correct
1,relearn,7,58,B,42.70162304669703,15.462036871413169,2.1350811523348514,0.24287710722383057,B,835,Correct
1,relearn,7,59,B,62.16500317795509,35.43779327173205,3.1082501588977545,0.556655555009536,B,687,Correct
1,relearn,7,60,A,36.001866911664536,45.72597545769555,1.8000933455832269,0.7182619428806175,B,784,Incorrect
1,relearn,7,61,A,18.215185777102608,42.18679021575093,0.9107592888551304,0.6626685511016845,B,1255,Incorrect
1,relearn,7,62,A,18.528806423733485,36.65063546746154,0.9264403211866743,0.5757068356698735,A,562,Correct
1,relearn,7,63,A,60.89436254774418,71.47621170639461,3.0447181273872093,1.1227457080161904,A,1351,Correct
1,relearn,7,64,B,67.9118398117356,46.76520861230196,3.39559199058678,0.7345861791000099,A,1707,Incorrect
1,relearn,7,65,B,48.98733420729766,32.599978831135786,2.449366710364883,0.5120792700153948,B,827,Correct
1,relearn,7,66,B,60.72855433191753,51.13053597982691,3.0364277165958766,0.8031565810416641,B,4435,Correct
1,relearn,7,67,B,47.35902149233888,33.355821717886805,2.3679510746169443,0.5239520223168204,B,763,Correct
1,relearn,7,68,A,35.22334241798714,61.777482503100615,1.7611671208993571,0.9703984259450643,A,1433,Correct
1,relearn,7,69,B,39.61965049228668,23.804302083705682,1.980982524614334,0.3739171027500099,B,758,Correct
1,relearn,7,70,B,78.3302408996971,53.18762518941548,3.9165120449848554,0.8354692627847754,B,791,Correct
1,relearn,7,71,B,72.60988979270326,43.91202706871944,3.6304944896351627,0.6897685082166256,B,700,Correct
1,relearn,7,72,B,45.495704697527756,25.577437322690333,2.2747852348763877,0.4017694459530866,B,846,Correct
1,relearn,7,73,B,41.21846892785027,13.605347025323784,2.0609234463925135,0.21371229132148473,B,1060,Correct
1,relearn,7,74,B,78.03033087032188,45.900831643790724,3.901516543516094,0.7210085774289742,B,743,Correct
1,relearn,7,75,B,70.26615217209684,46.831198781552,3.513307608604842,0.7356227502546351,B,719,Correct
1,relearn,7,76,A,54.9889833247784,76.9820522090748,2.74944916623892,1.2092312483914762,A,1137,Correct
1,relearn,7,77,B,84.76467725715487,61.45903166384328,4.238233862857744,0.9653962118593625,B,1363,Correct
1,relearn,7,78,A,18.961415509359806,32.97100767025654,0.9480707754679903,0.5179073773916534,A,839,Correct
1,relearn,7,79,A,64.74532715299844,83.96507707629743,3.2372663576499225,1.3189203465049837,A,1269,Correct
1,relearn,7,80,B,88.82079296000906,67.71157495452223,4.441039648000452,1.0636109322006084,B,1091,Correct
1,relearn,7,81,B,71.61579030504073,53.05664523633228,3.5807895152520364,0.8334118344929068,B,685,Correct
1,relearn,7,82,B,56.45577309451727,38.256143205064284,2.8227886547258634,0.6009260922385452,B,806,Correct
1,relearn,7,83,A,44.48368728229464,55.54729969415575,2.224184364114732,0.8725349432295513,B,694,Incorrect
1,relearn,7,84,A,24.82487368026878,44.28363717616344,1.241243684013439,0.6956057461343546,A,561,Correct
1,relearn,7,85,A,35.327700985661664,49.00117279534086,1.7663850492830833,0.7697086223556345,A,510,Correct
1,relearn,7,86,A,27.67301824162997,58.74889051097321,1.3836509120814984,0.9228254141791227,A,411,Correct
1,relearn,7,87,A,21.952079394730394,39.63845003949078,1.0976039697365196,0.6226393172187514,A,949,Correct
1,relearn,7,88,A,33.420006411514635,63.83367408067999,1.6710003205757318,1.0026970077175472,A,748,Correct
1,relearn,7,89,B,86.80304746090653,59.52701781366966,4.340152373045327,0.9350482092676669,B,741,Correct
1,relearn,7,90,B,52.4493400756835,42.540812651256275,2.622467003784175,0.6682295225146322,B,536,Correct
1,relearn,7,91,A,34.5240266987666,67.55628029749377,1.7262013349383298,1.0611715694322965,B,567,Incorrect
1,relearn,7,92,B,63.48637873619422,52.039680759572704,3.1743189368097107,0.8174373938471585,B,831,Correct
1,relearn,7,93,B,50.890266462172406,42.87522540198714,2.54451332310862,0.6734824657194464,B,654,Correct
1,relearn,7,94,B,44.56820739955215,35.56407760455504,2.2284103699776074,0.5586392246708369,B,565,Correct
1,relearn,7,95,A,57.27826455757524,68.61851502425428,2.8639132278787622,1.0778571135021904,B,571,Incorrect
1,relearn,7,96,B,56.03912813289487,41.6387010210896,2.8019564066447433,0.6540591861643846,B,953,Correct
1,relearn,7,97,B,59.07608410138101,50.93271266882902,2.95380420506905,0.8000491797389652,A,850,Incorrect
1,relearn,7,98,B,34.45415369953275,11.428211125269534,1.7227076849766376,0.17951392057409954,A,541,Incorrect
1,relearn,7,99,B,40.308500617163396,25.405478571186713,2.01542503085817,0.3990683242008654,B,1152,Correct
1,relearn,7,100,B,56.51810899244456,40.956696139269845,2.825905449622228,0.6433462785321978,B,1743,Correct
1,relearn,7,101,B,68.53802858498321,41.607922430019315,3.42690142924916,0.6535757171864133,B,1005,Correct
1,relearn,7,102,B,50.33956130373841,25.7681017102964,2.5169780651869202,0.40476439515010876,B,1096,Correct
1,relearn,7,103,B,71.84162685370758,45.956901844227524,3.592081342685379,0.7218893260778619,B,745,Correct
1,relearn,7,104,A,57.292643992208525,84.1002357515958,2.8646321996104263,1.3210434140119152,A,1342,Correct
1,relearn,7,105,B,64.28331218727077,53.82153401414563,3.2141656093635387,0.8454266793188653,A,819,Incorrect
1,relearn,7,106,B,57.878011465253095,34.85924656077286,2.893900573262655,0.5475677645249963,B,700,Correct
1,relearn,7,107,B,41.55462058782639,23.364087473585958,2.0777310293913196,0.3670022278242348,B,916,Correct
1,relearn,7,108,A,36.06396519706465,61.191563833960956,1.8031982598532323,0.9611948370122131,B,816,Incorrect
1,relearn,7,109,A,38.743348691569544,58.42202070410946,1.937167434578477,0.9176909552595054,A,873,Correct
1,relearn,7,110,A,67.0197128319199,80.31983353882879,3.350985641595995,1.2616609949156978,A,933,Correct
1,relearn,7,111,A,33.7742811496139,67.03718231476363,1.688714057480695,1.053017597387105,A,856,Correct
1,relearn,7,112,B,36.7422144285032,15.428854586970065,1.83711072142516,0.2423558811186517,B,778,Correct
1,relearn,7,113,A,22.190668099345352,34.38634896852502,1.1095334049672676,0.5401395065164658,B,767,Incorrect
1,relearn,7,114,A,63.92827557804884,80.13815405989625,3.196413778902442,1.2588071803340855,A,1598,Correct
1,relearn,7,115,A,46.806608285009055,61.51919495877777,2.340330414250453,0.9663412546862724,B,1423,Incorrect
1,relearn,7,116,B,70.31418816764327,54.33442747949758,3.515709408382163,0.8534831910329849,B,2327,Correct
1,relearn,7,117,A,25.01544550912252,46.37395761930823,1.250772275456126,0.7284404228735157,B,1426,Incorrect
1,relearn,7,118,B,43.68072570892238,23.576851037668618,2.184036285446119,0.370344310073603,B,933,Correct
1,relearn,7,119,A,44.127997643833005,52.477740538973265,2.20639988219165,0.8243184207711484,B,1093,Incorrect
1,relearn,7,120,A,21.986557746838127,42.07306742681345,1.0993278873419063,0.6608821977103259,A,934,Correct
1,relearn,7,121,A,46.02093605597501,61.722707888970845,2.30104680279875,0.9695380283182978,A,1068,Correct
1,relearn,7,122,A,51.33578728502521,79.84379760994129,2.5667893642512603,1.2541834400305092,A,1207,Correct
1,relearn,7,123,B,45.74774904188919,23.385810498164524,2.2873874520944595,0.36734345229638365,B,789,Correct
1,relearn,7,124,A,34.73607687946245,54.0080882086111,1.7368038439731226,0.8483570657530107,A,765,Correct
1,relearn,7,125,B,60.18661874829326,40.99752199987837,3.0093309374146635,0.6439875696510191,B,1261,Correct
1,relearn,7,126,B,54.1995013226784,34.14055541911411,2.70997506613392,0.5362785904708204,B,1337,Correct
1,relearn,7,127,B,58.93076402367572,26.996515536364182,2.946538201183786,0.4240602744078222,B,682,Correct
1,relearn,7,128,B,66.25059151872026,41.829453005109286,3.312529575936013,0.6570555113226542,B,718,Correct
1,relearn,7,129,A,44.47506179335608,53.79374014053651,2.223753089667804,0.8449900941731392,A,1528,Correct
1,relearn,7,130,B,66.2573806351505,46.77560153894485,3.312869031757525,0.7347494308099628,A,2183,Incorrect
1,relearn,7,131,B,65.2255332259067,55.480743890265494,3.261276661295335,0.8714894871067743,A,1025,Incorrect
1,relearn,7,132,B,63.317486545783005,31.511555635198697,3.16587432728915,0.4949823584336314,B,733,Correct
1,relearn,7,133,B,73.48809714666675,42.819717146266356,3.674404857333337,0.6726105440775164,B,597,Correct
1,relearn,7,134,A,41.74076542760913,70.38217822746822,2.087038271380456,1.105560670315308,A,1051,Correct
1,relearn,7,135,B,79.03809928445898,65.1533252411071,3.9519049642229493,1.0234260396720425,A,1158,Incorrect
1,relearn,7,136,B,56.63534689141506,43.44049263598942,2.8317673445707534,0.6823616626677295,B,412,Correct
1,relearn,7,137,A,55.92302726496078,67.53617926889133,2.796151363248039,1.0608558232133614,B,512,Incorrect
1,relearn,7,138,A,59.95939137218757,70.44138431985255,2.997969568609378,1.10649067743972,B,946,Incorrect
1,relearn,7,139,B,52.15091180218163,41.967004757904085,2.6075455901090816,0.6592161692029969,A,932,Incorrect
1,relearn,7,140,A,62.304069666202864,75.6655821490235,3.115203483310143,1.1885521850448364,A,928,Correct
1,relearn,7,141,B,56.34057919416706,26.474372844789364,2.817028959708353,0.41585847618793687,B,814,Correct
1,relearn,7,142,A,40.20290227355711,53.180681466575166,2.010145113677855,0.835360191041457,B,1125,Incorrect
1,relearn,7,143,B,71.20350202149143,59.266731527341946,3.5601751010745715,0.9309596418428802,B,750,Correct
1,relearn,7,144,A,43.326841020889,54.589052017398345,2.1663420510444498,0.8574828239214485,B,1703,Incorrect
1,relearn,7,145,A,66.4255026279671,85.91167585987132,3.3212751313983553,1.3494974486947966,A,1569,Correct
1,relearn,7,146,B,78.54614946085326,57.638485422929946,3.9273074730426627,0.9053832118435955,B,741,Correct
1,relearn,7,147,B,37.86061304266721,14.53376765242606,1.8930306521333606,0.22829588842921344,B,766,Correct
1,relearn,7,148,A,22.53576838226323,35.49789321231812,1.1267884191131616,0.5575996026686679,B,754,Incorrect
1,relearn,7,149,B,35.764964035491104,13.929742831753341,1.7882482017745553,0.21880788873315687,B,808,Correct
1,relearn,7,150,B,70.06098378672277,46.46701791592991,3.5030491893361386,0.7299022105945535,B,764,Correct
1,relearn,7,151,A,36.56549605129091,55.61938840624099,1.8282748025645452,0.8736673100710199,B,923,Incorrect
1,relearn,7,152,B,56.57915776673244,49.50497413734707,2.828957888336622,0.7776223153302112,A,1030,Incorrect
1,relearn,7,153,B,66.4350519348088,37.929671667868355,3.32175259674044,0.5957978893242407,B,641,Correct
1,relearn,7,154,B,60.1567909304145,32.42647002387696,3.0078395465207253,0.5093538000443074,B,1815,Correct
1,relearn,7,155,B,67.71893220285835,53.5443052343999,3.3859466101429176,0.8410719798298012,B,992,Correct
1,relearn,7,156,B,83.0894253511452,57.2707211230107,4.15447126755726,0.899606383729201,B,713,Correct
1,relearn,7,157,B,33.21342463381774,13.07454919746245,1.660671231690887,0.2053745385387318,B,1742,Correct
1,relearn,7,158,A,39.589069394157555,53.53623159792861,1.9794534697078776,0.8409451594446714,B,1503,Incorrect
1,relearn,7,159,A,32.30297773108644,65.37688631046235,1.6151488865543222,1.0269377287376182,B,1230,Incorrect
1,relearn,7,160,A,43.60690673915039,63.87835795932134,2.1803453369575196,1.003398900441915,A,1687,Correct
1,relearn,7,161,B,58.887502347815875,35.42780638636079,2.9443751173907935,0.556498681380963,B,739,Correct
1,relearn,7,162,B,72.41792513287494,46.45488705366693,3.620896256643747,0.7297116594557181,B,669,Correct
1,relearn,7,163,B,71.83578749231606,44.8922409566934,3.5917893746158027,0.7051656719636541,B,676,Correct
1,relearn,7,164,B,68.0165744385438,54.523962370682085,3.4008287219271898,0.8564603981417058,B,707,Correct
1,relearn,7,165,A,42.35993819811375,65.6101143454664,2.1179969099056875,1.0306012661445176,A,1160,Correct
1,relearn,7,166,A,20.231656988572038,48.51195426844153,1.0115828494286019,0.7620239957050995,A,1122,Correct
1,relearn,7,167,A,51.78129127362079,66.5626999266359,2.589064563681039,1.0455644454631061,B,721,Incorrect
1,relearn,7,168,B,74.81782453734458,62.85965749237468,3.7408912268672285,0.9873971909260746,B,1052,Correct
1,relearn,7,169,A,51.38705904303612,78.01403739072647,2.5693529521518057,1.2254416337179284,B,664,Incorrect
1,relearn,7,170,A,40.91010593894143,73.24046807145618,2.0455052969470713,1.1504585821938227,A,610,Correct
1,relearn,7,171,B,36.68506428904445,21.62020411295373,1.8342532144522223,0.33960937205183633,B,596,Correct
1,relearn,7,172,A,21.248973443533046,51.688479976317765,1.0624486721766524,0.8119207448441151,A,1430,Correct
1,relearn,7,173,B,52.756492766141676,24.424796302617935,2.637824638307084,0.3836638031486582,B,645,Correct
1,relearn,7,174,B,53.39194145495126,43.09605471959528,2.6695970727475626,0.6769512445289213,B,702,Correct
1,relearn,7,175,A,65.0571147507716,87.31044642349883,3.25285573753858,1.3714692853285457,A,859,Correct
1,relearn,7,176,A,50.18001152678562,64.52415021119157,2.509000576339281,1.0135429814130188,B,1433,Incorrect
1,relearn,7,177,A,40.598138169813694,54.847247997337334,2.029906908490685,0.8615385568902625,A,1979,Correct
1,relearn,7,178,A,41.02419308469451,63.304303872570486,2.0512096542347256,0.9943816799334166,A,964,Correct
1,relearn,7,179,B,40.99997760035252,29.549984478501244,2.049998880017626,0.46417007075675965,B,866,Correct
1,relearn,7,180,A,16.105937136039078,32.687352648877294,0.8052968568019538,0.5134517347350588,B,908,Incorrect
1,relearn,7,181,B,58.75209609520016,27.546494875116288,2.937604804760008,0.43269932965907104,B,1613,Correct
1,relearn,7,182,A,31.553201208061168,56.51173768282475,1.5776600604030586,0.8876842997297784,B,907,Incorrect
1,relearn,7,183,A,64.2003985798992,87.36711201824804,3.2100199289949605,1.3723593864094228,A,863,Correct
1,relearn,7,184,A,53.81964431384114,62.672773281733,2.690982215692057,0.9844616206099552,B,722,Incorrect
1,relearn,7,185,A,46.16233137740808,52.800748430026594,2.3081165688704037,0.8293922168590717,A,929,Correct
1,relearn,7,186,A,34.10535883853417,56.871443968500365,1.7052679419267087,0.8933345528524216,A,1705,Correct
1,relearn,7,187,A,51.34421792694283,60.75093296021804,2.567210896347142,0.9542734234327352,B,1014,Incorrect
1,relearn,7,188,A,49.162268974168,60.59015329236799,2.4581134487084,0.9517479023159134,A,589,Correct
1,relearn,7,189,B,57.530653209582184,48.4829479672156,2.876532660479109,0.7615683657909036,B,916,Correct
1,relearn,7,190,A,60.147109932789675,79.45058697996949,3.007355496639484,1.2480069018983453,A,1123,Correct
1,relearn,7,191,A,16.07300710410573,38.88823598086705,0.8036503552052865,0.610854982342791,A,1061,Correct
1,relearn,7,192,A,21.035404605163574,32.92863418219824,1.0517702302581788,0.5172417761976986,B,1222,Incorrect
1,relearn,7,193,A,51.91042684047218,80.75522385562645,2.5955213420236087,1.2685000900191763,B,586,Incorrect
1,relearn,7,194,A,16.155386022576458,41.75453394648405,0.807769301128823,0.6558786855016996,A,877,Correct
1,relearn,7,195,B,50.46000346130909,21.7056511950585,2.5230001730654545,0.3409515716788915,A,1274,Incorrect
1,relearn,7,196,A,63.90233074420811,76.08564381894551,3.1951165372104056,1.1951504983262444,A,1108,Correct
1,relearn,7,197,B,78.78948851145142,56.979052842753774,3.939474425572571,0.8950248690964993,B,1186,Correct
1,relearn,7,198,A,31.479969890580943,58.518425058164894,1.573998494529047,0.9192052713118786,A,1339,Correct
1,relearn,7,199,B,35.51329936411399,12.242034564013135,1.7756649682056997,0.19229742925647994,B,719,Correct
1,relearn,7,200,A,45.52492905562527,76.17889288836513,2.2762464527812636,1.196615251283458,A,1204,Correct
1,relearn,7,201,A,48.87525672940689,74.1898523683301,2.4437628364703445,1.1653714758562859,A,855,Correct
1,relearn,7,202,A,55.571113403055094,79.23234553738367,2.778555670152755,1.2445787733346627,A,723,Correct
1,relearn,7,203,B,86.20736451651705,64.34990418716563,4.310368225825852,1.010805931268033,A,785,Incorrect
1,relearn,7,204,B,60.60182748807629,37.20134059810241,3.0300913744038143,0.5843572916334513,B,606,Correct
1,relearn,7,205,B,60.58587915119735,33.4273978977447,3.029293957559867,0.5250763383208882,B,724,Correct
1,relearn,7,206,A,62.67488729719736,74.66150358684455,3.1337443648598677,1.172780155871994,A,791,Correct
1,relearn,7,207,A,62.70552667715249,86.10428818667825,3.1352763338576244,1.352522996049234,A,649,Correct
1,relearn,7,208,B,51.997908487426145,24.492002004789818,2.599895424371307,0.38471946784977085,B,636,Correct
1,relearn,7,209,B,59.57060924374359,46.869086419260725,2.9785304621871798,0.7362178878760733,B,644,Correct
1,relearn,7,210,B,60.7505307278504,47.93031218997116,3.03752653639252,0.7528875833013935,B,910,Correct
1,relearn,7,211,A,20.19158240136821,38.778677646633405,1.0095791200684103,0.6091340440529511,A,1783,Correct
1,relearn,7,212,A,31.243566264224093,51.056847508324196,1.5621783132112046,0.8019990852380281,A,1018,Correct
1,relearn,7,213,A,49.82900639307936,81.11987099928388,2.491450319653968,1.2742279539575097,A,976,Correct
1,relearn,7,214,A,32.79879247520724,65.56590488028716,1.6399396237603623,1.0299068254893866,A,720,Correct
1,relearn,7,215,B,64.74047455940457,49.23147554849633,3.2370237279702287,0.7733262095427081,B,731,Correct
1,relearn,7,216,A,32.06836417169038,61.956404578974556,1.6034182085845188,0.9732089273407174,B,1176,Incorrect
1,relearn,7,217,B,43.74730231670504,16.601701076039532,2.187365115835252,0.26077891068789777,B,557,Correct
1,relearn,7,218,B,65.62299128055692,41.297726857783104,3.281149564027846,0.6487031765318464,B,585,Correct
1,relearn,7,219,A,55.41343401697459,73.61939993080563,2.7706717008487294,1.1564108299215392,B,1088,Incorrect
1,relearn,7,220,B,83.70937001350377,60.871163915566285,4.185468500675189,0.9561620068630158,B,740,Correct
1,relearn,7,221,B,75.7473414630809,45.502043726586976,3.7873670731540447,0.7147444314738359,B,666,Correct
1,relearn,7,222,B,60.51143088257969,52.45053761367665,3.0255715441289848,0.8238911182198085,B,565,Correct
1,relearn,7,223,B,55.03498847102332,24.469794906837997,2.751749423551166,0.38437063957085593,B,699,Correct
1,relearn,7,224,A,29.667643583439485,48.40259209226572,1.4833821791719743,0.760306138658827,B,859,Incorrect
1,relearn,7,225,A,66.88570411198451,88.056676530529,3.344285205599226,1.3831910404392134,A,1009,Correct
1,relearn,7,226,A,58.60711335854169,70.73297208013793,2.9303556679270844,1.1110709272676662,A,872,Correct
1,relearn,7,227,A,49.13865845141973,72.70218283053904,2.4569329225709864,1.142003217401817,A,637,Correct
1,relearn,7,228,A,45.8475392338312,74.21509160145797,2.2923769616915597,1.1657679328031696,A,477,Correct
1,relearn,7,229,B,53.60349063572866,40.159192019492295,2.680174531786433,0.6308191131126942,B,680,Correct
1,relearn,7,230,B,77.4312684946303,59.946569878451626,3.8715634247315154,0.941638517690254,B,599,Correct
1,relearn,7,231,B,66.61325929357689,52.287925125027954,3.3306629646788446,0.8213368072212048,B,858,Correct
1,relearn,7,232,B,43.08768529951496,22.710876280384145,2.154384264975748,0.3567416103952075,B,653,Correct
1,relearn,7,233,B,50.2039958571651,32.438554644067835,2.5101997928582547,0.5095436248143729,B,567,Correct
1,relearn,7,234,A,41.41322665804589,65.02700239568942,2.0706613329022945,1.0214417650563188,B,348,Incorrect
1,relearn,7,235,A,21.111082914529803,34.98727748068958,1.05555414572649,0.5495788695122099,A,834,Correct
1,relearn,7,236,B,58.98677398924519,36.34724415050802,2.9493386994622592,0.570941176007353,B,824,Correct
1,relearn,7,237,A,52.30839491790228,81.92079541860618,2.615419745895114,1.2868088453166278,A,1024,Correct
1,relearn,7,238,B,52.66730128502141,35.633330591416595,2.63336506425107,0.559727048044654,B,921,Correct
1,relearn,7,239,A,45.44052694361539,61.766580987757976,2.2720263471807693,0.9702271853424973,B,1099,Incorrect
1,relearn,7,240,A,50.83269737242197,73.82639502733248,2.5416348686210983,1.159662301294429,A,547,Correct
1,relearn,7,241,B,69.768601487837,52.987472808151566,3.4884300743918506,0.8323252765318895,B,806,Correct
1,relearn,7,242,B,49.65855341523394,37.28857979669425,2.482927670761697,0.5857276417604571,B,764,Correct
1,relearn,7,243,B,69.61790595804455,45.118067852881424,3.4808952979022276,0.7087129525538904,B,681,Correct
1,relearn,7,244,B,73.89796168979441,58.465581676550364,3.694898084489721,0.9183752094145232,B,547,Correct
1,relearn,7,245,A,40.54168731064576,59.371053208639125,2.027084365532288,0.9325983229807469,B,711,Incorrect
1,relearn,7,246,B,64.36145475554756,47.30518762913966,3.218072737777378,0.7430681496619596,B,617,Correct
1,relearn,7,247,A,65.13683477914607,83.35207348909789,3.2568417389573034,1.3092913086741325,A,2183,Correct
1,relearn,7,248,A,54.12634206697945,72.03316907668693,2.706317103348972,1.1314943739305556,B,1139,Incorrect
1,relearn,7,249,B,33.613649138495,17.02699862608319,1.6806824569247498,0.26745946898193224,B,1051,Correct
1,relearn,7,250,A,37.238390652077285,44.911680111986804,1.8619195326038642,0.7054710215009627,A,822,Correct
1,relearn,7,251,B,43.185712990631814,30.198534850982917,2.159285649531591,0.4743574761851164,B,1202,Correct
1,relearn,7,252,B,52.458092727717265,41.33403263468785,2.6229046363858632,0.6492734663418805,A,1358,Incorrect
1,relearn,7,253,B,41.89939242781621,25.813141580828223,2.0949696213908107,0.4054718797820159,B,573,Correct
1,relearn,7,254,A,36.31420107461697,55.16409429753722,1.8157100537308484,0.8665155669353878,B,622,Incorrect
1,relearn,7,255,B,38.08209645700721,25.78126968519509,1.9041048228503603,0.4049712372161307,B,775,Correct
1,relearn,7,256,A,28.678166343252954,51.29415558181803,1.4339083171626477,0.8057267117396572,A,635,Correct
1,relearn,7,257,A,42.90353065282666,68.02648603906513,2.145176532641333,1.0685575439492783,A,1072,Correct
1,relearn,7,258,B,55.68038617238565,45.74511925290452,2.7840193086192824,0.7185626529125693,B,978,Correct
1,relearn,7,259,B,69.16876516210814,40.030099767807314,3.458438258105407,0.6287913367650497,B,992,Correct
1,relearn,7,260,A,33.531993075762934,44.708455350617825,1.6765996537881467,0.7022787744142411,B,1038,Incorrect
1,relearn,7,261,B,47.64978976475067,17.7794176005781,2.3824894882375336,0.27927843859540613,B,871,Correct
1,relearn,7,262,B,48.175896577557296,34.91631734714392,2.408794828877865,0.5484642303409859,A,663,Incorrect
1,relearn,7,263,B,48.19594816684811,41.3042853390509,2.4097974083424054,0.6488061969146945,B,707,Correct
1,relearn,7,264,A,47.86016551610137,78.38083919677436,2.3930082758050686,1.231203343013946,A,935,Correct
1,relearn,7,265,B,54.31387146552762,22.25088621541377,2.715693573276381,0.3495161033510315,B,723,Correct
1,relearn,7,266,B,34.957516496960466,23.520536894769872,1.7478758248480233,0.3694597295854836,A,1558,Incorrect
1,relearn,7,267,B,47.10703832882107,26.048245546713552,2.3553519164410535,0.4091648842422917,B,634,Correct
1,relearn,7,268,B,68.65735495218168,38.372455305940626,3.432867747609084,0.6027531184467286,B,572,Correct
1,relearn,7,269,B,54.33375245470363,33.08266714726027,2.7166876227351815,0.5196613203549463,B,598,Correct
1,relearn,7,270,B,56.38752677988451,35.49549489278313,2.8193763389942257,0.5575619299535075,B,797,Correct
1,relearn,7,271,B,59.89528078015452,30.959816260105484,2.994764039007726,0.4863156565961861,B,511,Correct
1,relearn,7,272,A,33.88994134290314,59.97200347774218,1.6944970671451571,0.9420380277336818,A,685,Correct
1,relearn,7,273,B,58.739832883883125,34.242297882641296,2.9369916441941566,0.5378767573506961,B,593,Correct
1,relearn,7,274,B,53.92823494765227,25.00656632494748,2.696411747382614,0.3928022252898046,B,650,Correct
1,relearn,7,275,A,33.495060625865314,56.10156588719206,1.6747530312932657,0.8812413362304315,A,897,Correct
1,relearn,7,276,A,31.37291781786854,51.02573837216852,1.568645890893427,0.8015104240699971,A,899,Correct
1,relearn,7,277,A,21.436616221547744,38.805425971750815,1.0718308110773873,0.6095542057613746,A,1007,Correct
1,relearn,7,278,A,36.72474944635329,53.552522089022915,1.8362374723176647,0.8412010498803976,A,1362,Correct
1,relearn,7,279,A,35.07269165743896,59.158503773870365,1.753634582871948,0.929259604266776,A,1763,Correct
1,relearn,7,280,B,31.285473588650884,15.047624854698366,1.564273679432544,0.23636753848747785,B,815,Correct
1,relearn,7,281,B,85.40596779023483,67.51761001849275,4.2702983895117415,1.0605641381101871,B,816,Correct
1,relearn,7,282,B,80.30314952841778,66.48490036328838,4.015157476420889,1.0443423727797807,B,798,Correct
1,relearn,7,283,B,86.05427084370947,57.94945243596733,4.302713542185473,0.9102678702619307,B,721,Correct
1,relearn,7,284,B,84.16609446970112,57.803332823633156,4.208304723485056,0.9079726287586585,B,743,Correct
1,relearn,7,285,A,28.08501749227388,38.483859852170056,1.404250874613694,0.6045030569667832,B,1310,Incorrect
1,relearn,7,286,A,54.71302632603781,65.59796684556972,2.7356513163018907,1.0304104536623433,B,983,Incorrect
1,relearn,7,287,A,45.908835836037596,77.58875883114239,2.29544179180188,1.2187613737253356,A,783,Correct
1,relearn,7,288,A,24.312647037674942,44.715251811274214,1.215632351883747,0.7023855329685839,A,1125,Correct
1,relearn,7,289,B,39.200691367659985,22.535638293915436,1.9600345683829994,0.3539889785406078,B,658,Correct
1,relearn,7,290,A,22.069598614577615,35.56426087904824,1.1034799307288807,0.5586421035398441,A,1328,Correct
1,relearn,7,291,B,55.247944291375404,32.779436487850006,2.7623972145687703,0.514898184295214,B,1222,Correct
1,relearn,7,292,B,77.92414279355629,48.30662106362904,3.896207139677814,0.7587986292662147,B,1199,Correct
1,relearn,7,293,A,27.884788424166615,38.36159466086917,1.3942394212083309,0.6025825198328802,A,916,Correct
1,relearn,7,294,B,43.6820898322608,34.74244328494916,2.18410449161304,0.5457330229587816,B,1547,Correct
1,relearn,7,295,B,47.126846605351005,20.202073316018847,2.3563423302675504,0.317333425584436,B,756,Correct
1,relearn,7,296,B,81.84107174914372,65.9552068246412,4.092053587457186,1.036021966131441,B,852,Correct
1,relearn,7,297,A,58.25211317891581,77.95457407127564,2.912605658945791,1.2245075860802044,A,549,Correct
1,relearn,7,298,A,14.033872293525619,40.79612007373103,0.7016936146762809,0.6408239555930025,A,1125,Correct
1,relearn,7,299,A,42.06702876184276,60.25340552553555,2.1033514380921376,0.9464582807639457,A,972,Correct
1,relearn,7,300,B,49.64487582833836,24.671951294795434,2.4822437914169178,0.3875461046872725,B,604,Incorrect
1,relearn,7,301,B,69.78187384980963,49.6115303221929,3.4890936924904814,0.7792960959677424,B,893,Correct
1,relearn,7,302,A,30.569205459901276,57.94326400493789,1.5284602729950638,0.9101706626146339,A,1072,Incorrect
1,relearn,7,303,A,26.386747578986373,48.42965042248588,1.3193373789493188,0.7607311699160172,B,621,Incorrect
1,relearn,7,304,B,57.46003961662246,35.335369637596656,2.8730019808311233,0.5550466883267673,B,806,Incorrect
1,relearn,7,305,A,47.323492605415446,69.19157472930308,2.3661746302707725,1.0868587142994388,A,930,Correct
1,relearn,7,306,A,47.486718389343956,62.2174334950082,2.374335919467198,0.9773091599656465,A,546,Correct
1,relearn,7,307,B,57.07789751000393,28.20071876309436,2.8538948755001963,0.44297585446044546,B,699,Correct
1,relearn,7,308,B,77.92222469768295,56.11158957981108,3.8961112348841476,0.8813987880259003,B,854,Correct
1,relearn,7,309,B,75.04681287393926,57.59290370114465,3.7523406436969626,0.9046672158321022,B,525,Incorrect
1,relearn,7,310,B,53.40530885741287,31.52793267058758,2.6702654428706434,0.49523960830395786,B,1191,Incorrect
1,relearn,7,311,B,35.225344284526514,19.54297305682288,1.7612672142263255,0.3069803029230901,B,748,Incorrect
1,relearn,7,312,B,43.98303630792016,20.01909070562937,2.1991518153960077,0.3144591414617647,B,640,Incorrect
1,relearn,7,313,A,53.94268251853321,69.82234534497324,2.6971341259266604,1.096766835960887,A,901,Correct
1,relearn,7,314,A,26.098603795837096,52.131557182859154,1.3049301897918548,0.8188805853293327,A,1019,Correct
1,relearn,7,315,B,33.44364910906977,15.649443488839495,1.6721824554534885,0.2458208834865339,A,951,Correct
1,relearn,7,316,A,44.24511955784897,64.63106912406263,2.2122559778924487,1.0152224597690462,B,620,Correct
1,relearn,7,317,B,52.319033247073605,44.35670844860431,2.6159516623536803,0.6967535469977981,A,1412,Incorrect
1,relearn,7,318,B,43.71066123081848,15.803156412794614,2.1855330615409243,0.24823540044982992,A,522,Incorrect
1,relearn,7,319,B,68.08729558068693,37.45661110640153,3.4043647790343465,0.5883670714012046,B,910,Incorrect
1,relearn,7,320,B,46.194983644231705,38.39033831822215,2.3097491822115854,0.6030340241467672,B,533,Correct
1,relearn,7,321,B,87.00747707798146,64.49828440121334,4.350373853899073,1.0131366822199848,A,1010,Correct
1,relearn,7,322,A,58.602121218168264,74.63429376696733,2.930106060908413,1.172352745020835,A,2150,Incorrect
1,relearn,7,323,A,39.0355021473467,71.5948990298791,1.951775107367335,1.1246100441338558,A,808,Incorrect
1,relearn,7,324,B,72.86860196092404,47.84253841966625,3.6434300980462018,0.7515088361415546,B,625,Incorrect
1,relearn,7,325,B,55.94290445774426,34.56973200835582,2.797145222887213,0.5430200805700929,B,579,Correct
1,relearn,7,326,A,36.26072007642112,60.923780222616585,1.8130360038210562,0.9569885018814569,A,837,Incorrect
1,relearn,7,327,A,50.137750632134086,60.37908067326021,2.5068875316067043,0.9484323813680987,B,354,Incorrect
1,relearn,7,328,A,15.755209626289574,39.376860091795734,0.7877604813144786,0.6185302719290929,B,577,Incorrect
1,relearn,7,329,A,12.394086148848022,37.60404874840194,0.619704307442401,0.5906830164660598,A,680,Incorrect
1,relearn,7,330,A,36.89684074790407,53.728199995424724,1.8448420373952035,0.8439605919811473,A,1071,Incorrect
1,relearn,7,331,B,79.70490474199565,65.61360359775416,3.985245237099782,1.0306560751912863,B,922,Incorrect
1,relearn,7,332,B,62.384342961408656,40.84539154921956,3.1192171480704327,0.641597910120134,B,760,Incorrect
1,relearn,7,333,B,84.5182727309602,56.29262769220052,4.225913636548011,0.8842425280454124,B,805,Incorrect
1,relearn,7,334,A,56.3467909711129,76.69617474562887,2.817339548555645,1.2047406956965334,A,728,Correct
1,relearn,7,335,A,28.683856617210814,47.11101984458806,1.4341928308605407,0.7400181692344039,A,1050,Incorrect
1,relearn,7,336,A,55.513978406828855,66.35307079279058,2.775698920341443,1.0422715987287718,B,787,Incorrect
1,relearn,7,337,B,48.51866157753231,20.091060997943803,2.425933078876616,0.3155896481698233,B,761,Correct
1,relearn,7,338,A,50.21500682083219,76.24116191033815,2.510750341041609,1.1975933707933413,A,728,Correct
1,relearn,7,339,B,63.93772482956998,43.958731068838354,3.196886241478499,0.6905021329349599,B,828,Correct
1,relearn,7,340,B,75.68306688714883,64.70840990977398,3.784153344357441,1.0164373259901145,B,577,Incorrect
1,relearn,7,341,A,12.569001490543005,38.99331302689704,0.6284500745271502,0.6125055287221346,A,899,Incorrect
1,relearn,7,342,A,36.729632463576124,56.84788148228915,1.8364816231788064,0.8929644341845141,A,1447,Correct
1,relearn,7,343,A,40.674813615756754,50.09855548961198,2.033740680787838,0.786946269408128,A,810,Correct
1,relearn,7,344,B,69.14339231652326,53.26505753671562,3.457169615826163,0.8366855672519173,A,742,Correct
1,relearn,7,345,B,65.08572359630904,47.326718413641046,3.254286179815452,0.7434063544340374,A,724,Correct
1,relearn,7,346,B,70.90415076934144,38.683478823409715,3.545207538467072,0.6076386644346015,A,512,Incorrect
1,relearn,7,347,A,21.146695256248492,45.576777705784515,1.0573347628124246,0.7159183500739387,B,758,Correct
1,relearn,7,348,B,80.08395112475645,54.72095652380051,4.004197556237823,0.8595547750628907,B,526,Incorrect
1,relearn,7,349,B,53.28014375793255,24.19313618949458,2.6640071878966274,0.38002489460106764,A,861,Incorrect
1,relearn,7,350,A,19.227545836710192,49.53436508616043,0.9613772918355096,0.7780839872745817,A,804,Correct
1,relearn,7,351,B,38.49224452240061,22.089874816350566,1.9246122261200305,0.3469869422088256,B,641,Correct
1,relearn,7,352,A,39.402712760686846,66.34913439287492,1.9701356380343424,1.0422097659034886,A,652,Incorrect
1,relearn,7,353,A,46.62252683154369,78.4729694823681,2.3311263415771846,1.2326505221559183,B,685,Incorrect
1,relearn,7,354,A,52.38106672444108,76.99564594181808,2.619053336222054,1.2094447782460824,A,233,Correct
1,relearn,7,355,A,43.59549778176503,65.17198484212834,2.1797748890882516,1.0237191439994788,A,467,Incorrect
1,relearn,7,356,A,19.343034610152447,35.769177205675206,0.9671517305076223,0.5618609216715036,B,712,Correct
1,relearn,7,357,B,72.74524070353095,45.07895703432146,3.6372620351765477,0.7080986012525712,B,475,Incorrect
1,relearn,7,358,A,53.41928178931913,68.68221848828493,2.6709640894659565,1.0788577651752251,B,670,Incorrect
1,relearn,7,359,B,39.056929755507184,23.854528613477065,1.9528464877753593,0.37470605923473527,B,674,Correct
1,relearn,7,360,A,10.823106657485198,32.219798371570086,0.5411553328742599,0.5061074093213448,A,1422,Incorrect
1,relearn,7,361,A,55.83549665606359,66.98500597482023,2.7917748328031795,1.0521980133558182,A,813,Incorrect
1,relearn,7,362,A,33.41020171108833,60.251225421090105,1.6705100855544162,0.9464240357633963,B,1081,Incorrect
1,relearn,7,363,A,33.58948164951713,58.2644878513717,1.6794740824758565,0.9152164349952053,B,733,Correct
1,relearn,7,364,B,54.02935965816137,23.082540005046887,2.7014679829080683,0.3625796905302391,B,851,Correct
1,relearn,7,365,A,62.948570331428556,87.98859545235744,3.1474285165714275,1.382121625364052,A,708,Correct
1,relearn,7,366,B,77.19363350448074,59.25266457295824,3.8596816752240373,0.930738678640129,B,700,Incorrect
1,relearn,7,367,B,45.77875532389604,27.1831042753959,2.288937766194802,0.4269912034667453,B,695,Incorrect
1,relearn,7,368,B,79.28869215762714,65.99854521917153,3.9644346078813566,1.0367027240408153,A,836,Correct
1,relearn,7,369,A,35.155048252633236,58.48461607943635,1.7577524126316617,0.9186742011158837,A,925,Correct
1,relearn,7,370,B,56.99192184721193,43.52434132571612,2.8495960923605965,0.683678754806022,A,1279,Incorrect
1,relearn,7,371,B,46.45884928584291,33.11130082342292,2.3229424642921455,0.5201110970883356,B,930,Correct
1,relearn,7,372,B,59.37228168155335,39.03430669217654,2.9686140840776676,0.6131494557105636,B,1653,Incorrect
1,relearn,7,373,B,51.37354674298934,21.23175759488719,2.568677337149467,0.3335076684144845,B,505,Incorrect
1,relearn,7,374,B,34.351201097461924,18.10199864341922,1.717560054873096,0.2843455297672911,A,903,Incorrect
1,relearn,7,375,A,23.066988621764608,47.59278782829993,1.1533494310882304,0.747585763026224,A,792,Correct
1,relearn,7,376,A,33.47815510072392,51.25991662053649,1.6739077550361958,0.8051888873935138,A,417,Incorrect
1,relearn,7,377,B,71.34095908076118,59.216290101752975,3.5670479540380593,0.9301673097825456,B,524,Correct
1,relearn,7,378,B,36.08043639713408,15.625754547755097,1.8040218198567037,0.24544877847012359,B,637,Incorrect
1,relearn,7,379,A,22.558518716260146,51.59215959062794,1.1279259358130074,0.8104077477637448,A,724,Correct
1,relearn,7,380,B,42.6286172624977,31.118902380584956,2.131430863124885,0.48881457553311813,A,439,Correct
1,relearn,7,381,B,76.02972114812373,45.23403242968726,3.801486057406186,0.7105345198667398,A,814,Incorrect
1,relearn,7,382,A,18.16285453755364,41.17488114136884,0.9081427268776819,0.6467735205307864,A,484,Incorrect
1,relearn,7,383,A,30.95359575582293,61.680091558906746,1.5476797877911466,0.9688686125710362,A,852,Incorrect
1,relearn,7,384,B,58.50343190103148,48.68317933946528,2.925171595051574,0.7647135928312928,B,968,Correct
1,relearn,7,385,B,48.40839552810016,29.687389596097844,2.4204197764050077,0.46632842529679525,B,963,Incorrect
1,relearn,7,386,B,49.984561133583014,35.69687084858796,2.4992280566791507,0.5607251360703379,B,884,Incorrect
1,relearn,7,387,A,40.17314670251959,65.6728476282832,2.0086573351259798,1.0315866782466818,A,899,Correct
1,relearn,7,388,A,45.32877362518657,70.20282647033808,2.2664386812593285,1.1027434195022658,B,853,Incorrect
1,relearn,7,389,B,36.153112117684245,12.802833941628055,1.8076556058842124,0.20110644528074376,B,2005,Correct
1,relearn,7,390,B,36.32155579181713,14.755431522088237,1.8160777895908566,0.23177777635169833,B,568,Correct
1,relearn,7,391,A,49.88533919807522,67.82844701124436,2.494266959903761,1.0654467541746493,A,802,Correct
1,relearn,7,392,B,83.10329027727705,54.295828554242284,4.155164513863853,0.8528768805328923,B,714,Correct
1,relearn,7,393,A,41.165991243909495,64.97137410915576,2.058299562195475,1.020567957974789,A,509,Incorrect
1,relearn,7,394,B,50.83375837452192,41.594923083821136,2.541687918726096,0.6533715239338249,B,524,Incorrect
1,relearn,7,395,B,66.58899488552048,34.128911163797135,3.3294497442760242,0.5360956829360187,A,362,Incorrect
1,relearn,7,396,A,37.55987575545442,70.48624334155315,1.8779937877727209,1.1071953213048291,B,506,Incorrect
1,relearn,7,397,B,54.71072286662053,41.78995899122018,2.7355361433310263,0.6564351408031802,A,901,Incorrect
1,relearn,7,398,A,29.13261262327924,60.644356706455575,1.4566306311639619,0.9525993275533988,A,822,Incorrect
1,relearn,7,399,B,45.78265564819587,24.582387836483942,2.289132782409794,0.3861392451739652,B,592,Correct
1,relearn,7,400,A,39.640452958231926,54.60427107174357,1.982022647911596,0.8577218842680763,A,1070,Correct
1,relearn,7,401,A,46.47146337087772,63.963729149692355,2.323573168543886,1.0047399079644042,A,697,Correct
1,relearn,7,402,B,49.992092434609546,39.52372343772582,2.4996046217304775,0.6208371959723707,B,583,Correct
1,relearn,7,403,B,52.45552374892652,25.320605720257397,2.622776187446326,0.39773514457602166,B,875,Correct
1,relearn,7,404,A,67.94186921002613,81.13740918283293,3.3970934605013063,1.2745034431004845,A,711,Correct
1,relearn,7,405,B,46.51178414957275,30.13307900700906,2.3255892074786373,0.4733292981923024,B,729,Correct
1,relearn,7,406,B,65.20925269585423,52.81717617911168,3.2604626347927113,0.8296502633382753,B,806,Incorrect
1,relearn,7,407,B,56.33072154214271,34.254398333845934,2.816536077107136,0.5380668307937442,B,789,Incorrect
1,relearn,7,408,B,63.839543001705145,51.736068367359465,3.191977150085257,0.812668261542579,B,642,Incorrect
1,relearn,7,409,B,65.41993989185151,42.903992936575754,3.2709969945925756,0.6739343450960739,B,544,Correct
1,relearn,7,410,A,62.9475933306322,79.96221580603724,3.1473796665316103,1.2560435487050412,A,640,Correct
1,relearn,7,411,B,51.05967220222858,38.04472334564465,2.552983610111429,0.5976051168526666,B,614,Correct
1,relearn,7,412,B,51.081741075087315,40.50846878109993,2.554087053754366,0.6363055396543751,B,545,Incorrect
1,relearn,7,413,B,45.93986082517,23.5372753591807,2.2969930412585002,0.36972265676961075,B,589,Incorrect
1,relearn,7,414,A,18.96754977036301,40.089561286392765,0.9483774885181505,0.6297253561148465,A,2008,Incorrect
1,relearn,7,415,A,33.758047124373505,42.1912737391498,1.687902356218675,0.6627389781225449,B,795,Correct
1,relearn,7,416,B,33.470792169924515,16.552460166688093,1.6735396084962257,0.260005436292525,B,682,Incorrect
1,relearn,7,417,A,24.38990334856235,42.01288709991417,1.2194951674281174,0.6599368873459387,A,745,Correct
1,relearn,7,418,A,54.277135242239595,78.3878661645448,2.7138567621119796,1.2313137223655692,B,555,Incorrect
1,relearn,7,419,A,40.14467769561252,63.85998755289698,2.0072338847806264,1.003110338772584,B,853,Incorrect
1,relearn,7,420,B,55.86005282618904,28.777233367018255,2.793002641309452,0.45203172468231806,B,627,Incorrect
1,relearn,7,421,B,45.86780218022734,31.910989780149873,2.293390109011367,0.5012566553104891,B,793,Correct
1,relearn,7,422,B,74.69257948216485,53.17381671172943,3.734628974108242,0.8352523597244967,A,2447,Incorrect
1,relearn,7,423,A,35.20163986484587,63.38310088090604,1.7600819932422938,0.9956194204459758,A,831,Incorrect
1,relearn,7,424,B,78.97378967059582,66.18909131701513,3.9486894835297908,1.0396958151465934,A,737,Correct
1,relearn,7,425,A,51.78423377837721,78.95190916803715,2.5892116889188603,1.2401736891459707,A,718,Correct
1,relearn,7,426,B,32.025492157344985,16.407495069330558,1.6012746078672493,0.2577283298680982,B,809,Correct
1,relearn,7,427,A,23.711317291638327,51.17163110837846,1.1855658645819163,0.8038021018114435,A,881,Incorrect
1,relearn,7,428,A,39.810771868517364,61.713211875857944,1.9905385934258681,0.9693888652931286,A,1100,Incorrect
1,relearn,7,429,A,63.834915805530215,76.77300107874765,3.191745790276511,1.2059474809151745,A,1022,Correct
1,relearn,7,430,A,38.233440424237536,69.206391046495,1.9116720212118767,1.0870914484656558,B,875,Incorrect
1,relearn,7,431,A,63.58952170750645,84.25086717198901,3.179476085375322,1.3234095268304507,A,693,Correct
1,relearn,7,432,A,53.35027553528362,80.90659833175314,2.667513776764181,1.2708778747298797,A,786,Incorrect
1,relearn,7,433,B,79.49041166888215,57.112674329442115,3.9745205834441073,0.8971237905012086,B,672,Incorrect
1,relearn,7,434,B,44.901217406088264,29.477052447663194,2.2450608703044135,0.4630244570952986,A,2356,Correct
1,relearn,7,435,B,38.62903387932484,28.187284899681416,1.9314516939662416,0.4427648358274082,B,944,Correct
1,relearn,7,436,B,52.43580014158192,33.92734578678512,2.6217900070790963,0.5329295013978238,B,890,Correct
1,relearn,7,437,A,54.13141807166519,71.91171419229072,2.7065709035832595,1.1295865650677468,A,899,Correct
1,relearn,7,438,B,33.88063010051229,15.10915514343283,1.6940315050256145,0.23733405400278507,B,751,Incorrect
1,relearn,7,439,B,61.95768670314001,50.77866977712412,3.0978843351570005,0.7976294796543759,107,931,Incorrect
1,relearn,7,440,B,83.27966347479436,58.73863599504196,4.163983173739718,0.9226643366195441,A,694,Correct
1,relearn,7,441,A,22.80150560221163,41.59415267695029,1.1400752801105816,0.6533594224109962,B,1593,Incorrect
1,relearn,7,442,B,30.48921336166511,15.321054434889081,1.5244606680832555,0.24066256028948427,B,984,Incorrect
1,relearn,7,443,B,63.99374886373277,30.941761723557917,3.1996874431866384,0.486032056599277,B,680,Correct
1,relearn,7,444,B,71.4170830542675,47.77499334722843,3.5708541527133746,0.7504478406247704,B,588,Correct
1,relearn,7,445,A,51.284966903578585,66.69881965759399,2.564248345178929,1.047702609197039,B,561,Correct
1,relearn,7,446,A,28.594852490502582,55.71230165794106,1.429742624525129,0.8751267880158304,B,598,Incorrect
1,relearn,7,447,B,59.04840560737084,38.877708979857154,2.952420280368542,0.6106896245976058,B,679,Incorrect
1,relearn,7,448,A,59.91223884165682,68.44348082670953,2.9956119420828413,1.0751076827565227,B,614,Correct
1,relearn,7,449,B,48.8562474737867,38.60836555096907,2.442812373689335,0.6064587879101683,B,889,Incorrect
1,relearn,7,450,A,61.110650994952934,81.81268185162749,3.055532549747647,1.2851106013777596,A,704,Incorrect
1,relearn,7,451,B,74.78198700275773,57.473402205803254,3.739099350137886,0.9027900907328147,A,772,Incorrect
1,relearn,7,452,A,40.756153510532734,49.09223334659584,2.0378076755266368,0.7711389981499069,B,536,Correct
1,relearn,7,453,A,31.11690582333202,50.8278117143818,1.555845291166601,0.7984013993997355,B,666,Incorrect
1,relearn,7,454,A,41.72094336416031,62.880885241656806,2.0860471682080157,0.9877306356320593,B,723,Correct
1,relearn,7,455,B,66.47419989533165,44.58376544131741,3.3237099947665825,0.7003201498990664,B,1794,Correct
1,relearn,7,456,A,51.02951374654576,59.14260671987223,2.5514756873272884,0.9290098939265046,B,693,Correct
1,relearn,7,457,A,17.22067626523246,32.964392182811096,0.8610338132616229,0.5178034615578607,A,1329,Incorrect
1,relearn,7,458,A,54.6350147814548,62.12473914609415,2.73175073907274,0.9758531205377581,A,693,Incorrect
1,relearn,7,459,A,45.31288675800776,68.69239375871238,2.2656443379003877,1.0790175979493408,A,739,Incorrect
1,relearn,7,460,A,22.844702742970735,43.3533775062117,1.1422351371485369,0.6809932614090983,A,620,Correct
1,relearn,7,461,A,22.544260909925168,38.43568455588981,1.1272130454962583,0.6037463211823905,A,561,Correct
1,relearn,7,462,B,77.07603718780511,64.96493265764092,3.8538018593902557,1.0204667758910018,B,712,Incorrect
1,relearn,7,463,A,35.33173731077367,49.83607447765154,1.7665868655386834,0.7828232273137193,B,553,Correct
1,relearn,7,464,A,28.07866973629738,43.42783316473651,1.4039334868148687,0.682162808158297,B,598,Correct
1,relearn,7,465,B,88.07145629083449,67.10598875631493,4.403572814541724,1.0540984064435912,B,882,Incorrect
1,relearn,7,466,B,56.98707653857069,48.907748859002695,2.849353826928535,0.7682411225952873,A,795,Correct
1,relearn,7,467,A,11.125388571013012,34.73813121627055,0.5562694285506506,0.5456652891423691,A,776,Incorrect
1,relearn,7,468,A,47.68725545517154,57.615082171047064,2.384362772758577,0.9050155944226687,B,725,Correct
1,relearn,7,469,B,71.01461738842401,39.54519998884645,3.550730869421201,0.6211745488484959,B,492,Incorrect
1,relearn,7,470,B,77.62801940107782,48.49972527683652,3.881400970053891,0.761831903154164,B,463,Correct
1,relearn,7,471,B,46.24107669138033,31.655285662636036,2.3120538345690163,0.49724006442511837,A,515,Correct
1,relearn,7,472,A,52.58951886586377,80.22199458336446,2.6294759432931882,1.2601241441970898,A,408,Correct
1,relearn,7,473,B,57.37284431319259,30.403008057603337,2.868642215659629,0.47756933380398964,B,659,Correct
1,relearn,7,474,B,66.77027506243465,50.84570252176763,3.3385137531217324,0.798682427544986,B,649,Incorrect
1,relearn,7,475,A,39.29091796407408,62.12237921605786,1.964545898203704,0.9758160508434329,A,438,Incorrect
1,relearn,7,476,B,65.92603853390419,51.895072258433544,3.2963019266952096,0.8151658888230315,A,473,Incorrect
1,relearn,7,477,B,82.12083811141677,63.914975211801064,4.106041905570839,1.0039740828988397,B,560,Correct
1,relearn,7,478,B,78.51867646826679,57.92669545304301,3.9259338234133394,0.9099104044100659,B,464,Correct
1,relearn,7,479,B,48.59597291350507,19.951748701502193,2.4297986456752536,0.31340133573454493,A,900,Incorrect
1,relearn,7,480,B,60.488401797021,32.4534942359477,3.02442008985105,0.50977829537486,B,809,Correct
1,relearn,7,481,B,42.917486857722096,14.849493988865984,2.145874342886105,0.23325530612473583,B,666,Correct
1,relearn,7,482,B,64.61278573534024,35.60877037567687,3.230639286767012,0.5593412570779616,B,432,Correct
1,relearn,7,483,A,14.15703268541522,42.99508063024982,0.707851634270761,0.6753651472424682,B,851,Correct
1,relearn,7,484,B,75.08114792038204,57.09341401993988,3.7540573960191015,0.8968212502670182,B,508,Incorrect
1,relearn,7,485,A,37.381142827940344,62.434249297623296,1.8690571413970174,0.9807148946290353,B,531,Incorrect
1,relearn,7,486,A,32.236712676573994,46.27322733273675,1.6118356338286999,0.7268581552320809,A,417,Correct
1,relearn,7,487,B,53.126997776734186,26.44807750380925,2.656349888836709,0.41544542993770306,A,446,Incorrect
1,relearn,7,488,B,78.82906793028255,59.313065401383355,3.941453396514128,0.9316874526343845,B,549,Correct
1,relearn,7,489,A,36.63374196384791,46.4669444261221,1.8316870981923956,0.7299010562193518,B,476,Correct
1,relearn,7,490,B,50.661810193282406,20.456317636621815,2.5330905096641203,0.32132708603355203,B,433,Correct
1,relearn,7,491,A,46.97749783034015,71.61691828162422,2.3488748915170077,1.1249559217314562,B,456,Incorrect
1,relearn,7,492,A,46.700981094606206,69.19672100327213,2.3350490547303107,1.0869395517819114,B,448,Correct
1,relearn,7,493,B,51.32915512098538,23.54668159502029,2.5664577560492687,0.3698704095766687,A,381,Incorrect
1,relearn,7,494,A,48.593419384303814,77.86117904114124,2.4296709692151905,1.2230405403774445,B,70,Correct
1,relearn,7,495,B,45.24894102313591,36.17867339776759,2.2624470511567956,0.5682932728152557,B,550,Correct
1,relearn,7,496,A,58.484818106395,80.71050249976417,2.9242409053197496,1.2677976086039988,B,679,Incorrect
1,relearn,7,497,A,40.579381224872016,49.704918489743,2.028969061243601,0.7807630338732804,B,638,Incorrect
1,relearn,7,498,A,51.23886746420488,60.58327546016451,2.5619433732102443,0.9516398655802981,B,598,Correct
1,relearn,7,499,A,53.647858056369884,64.37317674182795,2.6823929028184943,1.01117149570182,B,728,Incorrect
1,relearn,7,500,A,53.807362791258626,83.13047386782691,2.6903681395629313,1.3058104299630162,A,900,Correct
1,relearn,7,501,A,23.524066970613898,44.79234688095093,1.1762033485306949,0.7035965394912057,B,1087,Incorrect
1,relearn,7,502,A,26.720383427933974,49.61117540645618,1.3360191713966987,0.7792905209643867,A,1365,Incorrect
1,relearn,7,503,B,86.55321207056816,58.346101478118925,4.327660603528408,0.916498418846315,B,625,Correct
1,relearn,7,504,A,58.537903675281456,76.25592432226296,2.9268951837640724,1.1978252582176026,A,1023,Correct
1,relearn,7,505,B,48.10813021243922,31.586459560695836,2.405406510621961,0.4961589465439656,B,941,Correct
1,relearn,7,506,A,19.679147806450505,43.17054934141623,0.9839573903225252,0.6781214033121447,B,734,Incorrect
1,relearn,7,507,B,84.70970318931859,57.49641298131475,4.235485159465929,0.903151543149316,B,542,Incorrect
1,relearn,7,508,A,43.42737189034532,69.89125372823302,2.171368594517266,1.0978492463139855,A,496,Incorrect
1,relearn,7,509,A,28.107752615179624,43.11231313303102,1.4053876307589812,0.677206631089965,B,617,Incorrect
1,relearn,7,510,B,81.26007911886651,65.62188535270296,4.063003955943326,1.0307861646938163,B,507,Correct
1,relearn,7,511,A,35.03062327608696,46.12652570643937,1.7515311638043483,0.7245537714748533,B,560,Correct
1,relearn,7,512,A,14.254837510497431,37.58409375239239,0.7127418755248714,0.5903695641217298,B,1694,Incorrect
1,relearn,7,513,B,67.91486048561511,35.611534368940355,3.3957430242807556,0.5593846737826171,B,685,Correct
1,relearn,7,514,A,30.156982652675545,41.624306255781036,1.507849132633777,0.6538330737196669,B,761,Incorrect
1,relearn,7,515,A,19.278026108263628,38.824556111826666,0.9639013054131814,0.6098547012989968,B,647,Incorrect
1,relearn,7,516,A,24.322477292878375,36.874077942668464,1.2161238646439188,0.5792166618629234,B,998,Incorrect
1,relearn,7,517,B,76.35114669467836,54.770045267754206,3.8175573347339182,0.8603258592497852,B,956,Incorrect
1,relearn,7,518,B,51.41948982782562,37.984236959220375,2.570974491391281,0.5966549989165031,B,408,Incorrect
1,relearn,7,519,A,44.85187976116544,57.58571025102358,2.242593988058272,0.9045542213818306,B,588,Correct
1,relearn,7,520,B,78.44404645137755,55.023554986690044,3.922202322568877,0.8643079806028974,B,503,Correct
1,relearn,7,521,B,71.21528688979976,47.902625950877315,3.560764344489988,0.7524526888746798,B,385,Correct
1,relearn,7,522,B,40.41002209566132,25.156642496478405,2.0205011047830657,0.3951596162796067,B,465,Incorrect
1,relearn,7,523,B,79.00101877706773,48.15444397831409,3.950050938853386,0.756408237199864,B,665,Correct
1,relearn,7,524,B,67.72157934540631,49.03875720725479,3.3860789672703158,0.7702989969174258,B,562,Correct
1,relearn,7,525,B,71.00832977649371,56.772240298702464,3.550416488824686,0.8917762652511901,B,872,Correct
1,relearn,7,526,B,85.75662874296638,62.3161433310035,4.287831437148319,0.978859690443646,B,448,Incorrect
1,relearn,7,527,A,35.02862552920272,59.03773309113296,1.7514312764601359,0.9273625428184917,B,1669,Incorrect
1,relearn,7,528,B,42.84109962966939,16.55562358751529,2.142054981483469,0.26005512719067964,B,1141,Correct
1,relearn,7,529,A,47.4497255346694,77.04013264534369,2.37248627673347,1.2101435737509747,A,646,Correct
1,relearn,7,530,B,84.85308525490788,67.73906271006601,4.242654262745394,1.0640427088550086,B,838,Correct
1,relearn,7,531,B,72.49859733640638,43.61779630914411,3.6249298668203185,0.6851467422529157,A,930,Correct
1,relearn,7,532,A,51.92358599574513,67.41679232196712,2.5961792997872566,1.0589804974364034,B,627,Incorrect
1,relearn,7,533,A,15.903720962735278,34.3134241756458,0.7951860481367639,0.5389940065485962,B,1637,Incorrect
1,relearn,7,534,A,54.756968087555194,82.59799917675831,2.73784840437776,1.2974463370745983,A,1193,Correct
1,relearn,7,535,B,49.900915685682236,35.22525353434756,2.4950457842841116,0.553316988621721,B,719,Correct
1,relearn,7,536,A,39.15304488272587,62.38380140864524,1.9576522441362938,0.9799224610420224,A,540,Correct
1,relearn,7,537,B,61.91846005309692,29.48238645970236,3.095923002654846,0.46310824356048064,B,574,Incorrect
1,relearn,7,538,A,50.00030907199885,65.17205294500938,2.5000154535999424,1.0237202137570327,A,481,Incorrect
1,relearn,7,539,B,55.64076438527886,37.46517992819948,2.782038219263943,0.5885016701392562,B,583,Incorrect
1,relearn,7,540,B,80.33775943264752,56.560382470329486,4.016887971632376,0.8884484102650803,B,881,Incorrect
1,relearn,7,541,A,41.386843990662534,61.183276362632256,2.0693421995331267,0.9610646577169977,A,486,Correct
1,relearn,7,542,B,62.56802654289467,45.02756144853761,3.1284013271447337,0.7072912812789437,A,301,Correct
1,relearn,7,543,A,16.829904394229185,42.51018707096571,0.8414952197114594,0.6677484570243685,B,210,Incorrect
1,relearn,7,544,B,53.67256126356886,40.44581290654274,2.6836280631784426,0.6353213434783096,A,347,Incorrect
1,relearn,7,545,A,43.44961596136585,57.631458994206184,2.1724807980682925,0.9052728409592977,B,12,Correct
1,relearn,7,546,B,80.89837347817597,61.329235922082304,4.044918673908799,0.963357385115445,B,109,Incorrect
1,relearn,7,547,A,43.47255882266907,57.59563293527414,2.1736279411334536,0.9047100865415578,B,330,Correct
1,relearn,7,548,A,52.05524978307827,62.863749554606095,2.602762489153913,0.9874614688892956,B,524,Incorrect
1,relearn,7,549,B,54.87477569564038,44.00073110963604,2.743738784782019,0.6911618680330623,B,468,Correct
1,relearn,7,550,B,66.39677675151839,37.48713688447408,3.319838837575919,0.5888465692018937,B,474,Correct
1,relearn,7,551,A,19.622590531084207,48.42277074127187,0.9811295265542103,0.7606231041362124,B,692,Correct
1,relearn,7,552,A,32.80103467852673,63.53364083315635,1.6400517339263365,0.9979840964862825,B,1098,Incorrect
1,relearn,7,553,A,60.47878129975423,70.78525535738866,3.0239390649877116,1.111892191066249,B,523,Incorrect
1,relearn,7,554,A,27.639505159215062,44.92942549330675,1.381975257960753,0.7057497652989123,B,433,Correct
1,relearn,7,555,B,66.02198197947835,51.083739334738034,3.3010990989739177,0.8024215010595449,B,1191,Correct
1,relearn,7,556,B,71.65850028837988,46.48216490944323,3.582925014418994,0.7301401390122806,A,440,Incorrect
1,relearn,7,557,B,83.57860367728425,59.66179799215632,4.178930183864213,0.9371653313605829,B,307,Correct
1,relearn,7,558,B,79.47239910036319,47.75724158340519,3.9736199550181595,0.7501689965706935,B,355,Correct
1,relearn,7,559,A,51.84852086968551,67.62297324688339,2.5924260434842754,1.06221917983154,B,390,Incorrect
1,relearn,7,560,A,16.50680522149832,33.364589789663334,0.825340261074916,0.5240897508662168,B,944,Incorrect
1,relearn,7,561,A,59.01209648022518,81.34148227320344,2.950604824011259,1.2777090157080018,A,504,Correct
1,relearn,7,562,B,38.781985465879046,25.480804705429343,1.9390992732939523,0.40025154435066523,B,448,Incorrect
1,relearn,7,563,A,37.16658434834249,64.04491302046819,1.8583292174171246,1.0060151412245006,A,350,Incorrect
1,relearn,7,564,B,37.94316202966678,19.759964121097852,1.897158101483339,0.3103887905901945,B,784,Correct
1,relearn,7,565,B,52.306124553138986,37.265550873534906,2.6153062276569496,0.5853659042813698,B,939,Correct
1,relearn,7,566,B,39.20838245182617,14.121528604267102,1.9604191225913083,0.22182045260311828,A,2842,Correct
1,relearn,7,567,B,67.55253450140226,47.1287982745046,3.377626725070113,0.7402974321584948,B,1088,Correct
1,relearn,7,568,B,82.2162280101131,57.7609603286608,4.110811400505655,0.9073070431640613,B,895,Correct
1,relearn,7,569,A,36.81018366099177,45.32845084826434,1.8405091830495883,0.7120176409175664,B,870,Correct
1,relearn,7,570,A,32.162711658783984,58.29380905322805,1.6081355829391992,0.915677011356937,B,842,Correct
1,relearn,7,571,B,48.976294619719766,40.24444564558003,2.4488147309859882,0.6321582739397398,B,2248,Incorrect
1,relearn,7,572,A,32.54612015086421,61.89945040921187,1.6273060075432106,0.9723142933341287,B,644,Incorrect
1,relearn,7,573,A,34.25440556017599,44.82409026009307,1.7127202780087996,0.704095163324771,A,966,Correct
1,relearn,7,574,A,50.11725205643947,60.175367942626586,2.5058626028219733,0.9452324692780922,B,1201,Correct
1,relearn,7,575,A,12.474761768806694,34.96703605068062,0.6237380884403347,0.5492609178731385,A,1335,Incorrect
1,relearn,7,576,A,24.587616664454288,53.75036525939837,1.2293808332227143,0.8443087631334699,B,788,Incorrect
1,relearn,7,577,A,21.81306646135696,42.82105003455007,1.090653323067848,0.6726314810377172,B,744,Incorrect
1,relearn,7,578,A,56.01519634732391,70.67418211885209,2.8007598173661954,1.1101474567152643,B,899,Incorrect
1,relearn,7,579,B,70.14015426842276,46.44164381233677,3.507007713421138,0.7295036351073553,B,884,Correct
1,relearn,7,580,A,60.90521198826282,70.4389172954896,3.0452605994131408,1.1064519255116458,B,605,Incorrect
1,relearn,7,581,A,60.960955915325016,79.9651712206677,3.048047795766251,1.2560899722494978,A,736,Incorrect
1,relearn,7,582,B,63.773363969274286,41.57796999696395,3.188668198463714,0.6531052254681939,A,804,Incorrect
1,relearn,7,583,B,82.44376490996072,66.29558258923758,4.122188245498036,1.041368576139021,B,665,Incorrect
1,relearn,7,584,B,58.637546750858725,43.17827390922801,2.9318773375429363,0.6782427405395928,A,672,Incorrect
1,relearn,7,585,A,16.931520780488047,40.27293430115927,0.8465760390244023,0.6326057726951317,B,426,Incorrect
1,relearn,7,586,A,43.398770482167166,57.16171342980187,2.169938524108358,0.897894094888353,A,366,Incorrect
1,relearn,7,587,B,55.289904839089935,32.99593397030164,2.7644952419544966,0.5182989187971677,A,514,Incorrect
1,relearn,7,588,A,39.51713479192673,48.64648572849236,1.9758567395963365,0.7641372109379615,B,839,Incorrect
1,relearn,7,589,A,44.06509466390067,51.877219198410955,2.203254733195034,0.8148854536119762,B,409,Correct
1,relearn,7,590,A,17.811949336009054,38.166132272249655,0.8905974668004526,0.5995122038121792,B,736,Correct
1,relearn,7,591,B,34.5818590330863,14.578080086286754,1.729092951654315,0.22899194651261062,B,1001,Incorrect
1,relearn,7,592,B,56.535467354519334,40.27190026737306,2.8267733677259668,0.6325895301304001,B,904,Correct
1,relearn,7,593,A,47.07420410236931,75.39328906549163,2.3537102051184657,1.184275015290601,B,722,Correct
1,relearn,7,594,B,39.70922850289766,21.382071490935463,1.9854614251448828,0.335868793572273,A,775,Correct
1,relearn,7,595,B,59.57881035110886,47.18864162405922,2.978940517555443,0.7412374492951299,A,794,Correct
1,relearn,7,596,A,33.82725642054656,44.99806338888092,1.6913628210273282,0.7068279268413806,A,529,Correct
1,relearn,7,597,B,59.40899590588342,44.478856186616554,2.970449795294171,0.6986722391797575,A,417,Correct
1,relearn,7,598,B,61.14828162602221,41.146635034059365,3.0574140813011104,0.6463298317147066,B,797,Correct
1,relearn,7,599,A,43.955421510822106,69.2341933582345,2.1977710755411053,1.0875281661572238,B,625,Incorrect
1,relearn,7,600,B,44.2043782562617,20.64161156196875,2.210218912813085,0.3242376762066758,B,712,Correct
1,relearn,7,601,A,17.370109427130004,47.8915558577984,0.8685054713565001,0.7522788002592233,A,2190,Correct
1,relearn,7,602,B,68.81073582653106,37.29220006326245,3.440536791326553,0.5857845087747307,B,712,Correct
1,relearn,7,603,A,20.111647728915198,33.58464601651015,1.00558238644576,0.52754638599441,B,931,Incorrect
1,relearn,7,604,B,82.94614449895256,68.29057148581946,4.147307224947628,1.072705788446495,B,641,Correct
1,relearn,7,605,B,83.31333505002713,63.32392122065265,4.165666752501357,0.9946898285165059,B,589,Correct
1,relearn,7,606,B,72.72103076208653,57.961342093780594,3.636051538104326,0.9104546325701297,B,841,Correct
1,relearn,7,607,B,76.14817681068654,61.79839833322839,3.807408840534327,0.9707269710364301,B,522,Correct
1,relearn,7,608,B,73.1510853419573,57.92415181032234,3.657554267097865,0.9098704489636429,B,528,Correct
1,relearn,7,609,B,70.39262057464352,49.57971795704235,3.5196310287321757,0.7787963885044911,B,451,Correct
1,relearn,7,610,B,73.62271574233569,48.70467456838146,3.6811357871167845,0.7650512390975442,B,440,Correct
1,relearn,7,611,B,45.5108619422178,29.773069870894986,2.27554309711089,0.4676742879060965,B,641,Correct
1,relearn,7,612,A,54.688764444928125,75.90888640373133,2.734438222246406,1.1923739993407223,A,843,Correct
1,relearn,7,613,B,67.32357625090552,50.851482699562176,3.3661788125452756,0.7987732223654651,B,722,Correct
1,relearn,7,614,A,68.41990591506048,86.43854419988791,3.4209952957530243,1.3577734772268226,A,749,Correct
1,relearn,7,615,A,65.14841303996363,82.84229511157835,3.257420651998182,1.301283728645261,A,582,Correct
1,relearn,7,616,A,62.39211054449392,84.59121883431132,3.119605527224696,1.3287557582403948,A,672,Correct
1,relearn,7,617,A,20.428708292804803,40.66534448727121,1.02143541464024,0.6387697374845472,B,719,Incorrect
1,relearn,7,618,B,41.01776669991774,19.150868383245665,2.050888334995887,0.3008211371133481,A,1000,Incorrect
1,relearn,7,619,A,38.35670556139838,53.61220749133271,1.9178352780699188,0.8421385859875126,A,903,Correct
1,relearn,7,620,B,37.83566175627828,23.494202233605314,1.891783087813914,0.36904606569523685,B,949,Correct
1,relearn,7,621,A,65.93948241320601,87.81453983994311,3.2969741206603005,1.3793875661976673,A,769,Correct
1,relearn,7,622,B,76.0770623807599,64.12340698995611,3.803853119037995,1.0072481216139724,B,870,Correct
1,relearn,7,623,B,35.04375494941246,10.613800778594026,1.752187747470623,0.1667211927634831,B,740,Correct
1,relearn,7,624,A,36.90399359334384,57.67177939306882,1.8451996796671921,0.9059061923035809,A,541,Correct
1,relearn,7,625,B,78.05496427940298,62.785792780005764,3.9027482139701486,0.9862369267373858,B,556,Correct
1,relearn,7,626,B,59.2119382572042,26.672461712631943,2.96059691286021,0.4189700488477977,B,542,Correct
1,relearn,7,627,B,41.622034501815264,14.76075343301537,2.0811017250907633,0.23186137273305707,B,686,Correct
1,relearn,7,628,A,33.2388360691594,45.83726385352405,1.6619418034579698,0.7200100569144406,B,693,Incorrect
1,relearn,7,629,A,56.744049447102455,81.96155087973068,2.8372024723551226,1.2874490306029398,A,555,Correct
1,relearn,7,630,B,84.50573075997642,65.69177028000875,4.225286537998821,1.031883914564919,B,705,Correct
1,relearn,7,631,A,19.609606145378898,44.197078574468215,0.980480307268945,0.694246086798401,B,870,Incorrect
1,relearn,7,632,A,59.2280411749737,85.52512729335913,2.9614020587486847,1.3434255580107446,B,632,Incorrect
1,relearn,7,633,B,86.68437513675966,62.79340220798266,4.334218756837982,0.9863564553525372,B,708,Correct
1,relearn,7,634,B,53.63220261839581,31.98593118194827,2.6816101309197906,0.502433832097187,B,793,Correct
1,relearn,7,635,A,33.023710310355966,45.57994465943892,1.6511855155177984,0.7159680964656132,A,707,Correct
1,relearn,7,636,A,47.72896292118574,78.060238617628,2.386448146059287,1.226167360893032,A,393,Correct
1,relearn,7,637,A,47.93870988940813,62.58696250429511,2.3969354944704064,0.9831137080699667,A,1244,Correct
1,relearn,7,638,B,58.13055253933097,35.28188412819083,2.9065276269665485,0.5542065399096532,B,718,Correct
1,relearn,7,639,B,73.63115206139669,50.40479218324397,3.6815576030698343,0.7917566241429974,B,556,Correct
1,relearn,7,640,A,42.9631153033586,52.34842285654724,2.14815576516793,0.8222871033657041,B,422,Incorrect
1,relearn,7,641,A,17.888551395912348,34.92130981408785,0.8944275697956173,0.5485426518283576,A,449,Correct
1,relearn,7,642,A,30.561137217725438,61.62504554618309,1.528056860886272,0.9680039518251261,A,509,Correct
1,relearn,7,643,A,68.19713090716114,86.229355348512,3.409856545358057,1.3544875464333452,A,440,Correct
1,relearn,7,644,A,32.98804304853779,55.43438622325283,1.6494021524268896,0.8707613025761516,B,677,Incorrect
1,relearn,7,645,B,78.3283699757456,47.99367886736519,3.91641849878728,0.7538829447423109,B,518,Correct
1,relearn,7,646,A,58.86768393695765,84.81317324091155,2.943384196847882,1.3322422099064308,B,383,Incorrect
1,relearn,7,647,B,64.12201440845419,50.43860506039947,3.2061007204227097,0.7922877555753396,B,455,Correct
1,relearn,7,648,A,39.07428342362858,60.688813212194134,1.9537141711814288,0.9532976487125614,B,483,Incorrect
1,relearn,7,649,A,31.9346871918502,58.47799528156083,1.59673435959251,0.9185702018660505,A,818,Correct
1,relearn,7,650,A,53.2176645356783,63.033673144465105,2.6608832267839153,0.9901306223971591,A,406,Correct
1,relearn,7,651,B,41.305494734779174,17.328572360374295,2.065274736738959,0.27219657812275516,B,529,Correct
1,relearn,7,652,B,86.0908032142672,66.42096276035147,4.30454016071336,1.043338043261407,A,529,Incorrect
1,relearn,7,653,B,75.12174947127863,51.93522315622431,3.7560874735639316,0.8157965776507041,B,741,Correct
1,relearn,7,654,A,15.288889770918924,33.68341937285335,0.7644444885459463,0.529097914247701,A,770,Correct
1,relearn,7,655,A,50.78105873185325,63.81630506019751,2.5390529365926624,1.0024241757818082,A,565,Correct
1,relearn,7,656,A,37.70850006284882,57.19297814806333,1.885425003142441,0.8983851999343866,A,462,Correct
1,relearn,7,657,A,30.362116497898946,50.48252325957765,1.5181058248949473,0.7929776210348249,A,980,Correct
1,relearn,7,658,B,87.86198766223141,64.69891420887384,4.39309938311157,1.0162881678691718,B,524,Correct
1,relearn,7,659,B,69.71182245118192,39.99687809150312,3.4855911225590956,0.6282694918939637,B,427,Correct
1,relearn,7,660,B,56.215991018752305,45.93191641566034,2.8107995509376154,0.7214968558836948,B,564,Correct
1,relearn,7,661,A,65.97063273620704,89.04672908908299,3.298531636810352,1.3987427496623182,A,882,Correct
1,relearn,7,662,A,24.599660763617074,51.75350668718133,1.2299830381808536,0.8129421820297955,A,927,Correct
1,relearn,7,663,A,60.12777058954214,84.67615461439934,3.006388529477107,1.3300899263541521,A,890,Correct
1,relearn,7,664,A,20.714597190330316,51.68965976215541,1.0357298595165159,0.8119392768767169,A,764,Correct
1,relearn,7,665,A,36.848422235048005,61.3271287695497,1.8424211117524003,0.9633242860408631,B,1308,Incorrect
1,relearn,7,666,A,32.04585217868944,43.39740486594157,1.602292608934472,0.6816848415585199,B,965,Incorrect
1,relearn,7,667,B,60.68182452012744,38.59273569295768,3.034091226006372,0.6062132746746421,B,886,Correct
1,relearn,7,668,A,24.990694805706113,49.225859393902056,1.2495347402853056,0.7732379911926341,A,770,Correct
1,relearn,7,669,A,22.368014174639093,39.168969090986316,1.1184007087319545,0.6152647277246415,B,772,Incorrect
1,relearn,7,670,A,54.3404469656154,76.72785302519247,2.71702234828077,1.2052382969483104,A,888,Correct
1,relearn,7,671,A,24.45660084964451,48.824030390812496,1.2228300424822254,0.7669260759721066,A,367,Correct
1,relearn,7,672,B,81.67118056640062,66.9175449251452,4.083559028320031,1.0511383376655052,B,588,Correct
1,relearn,7,673,B,70.91374055022757,55.48153400951688,3.5456870275113785,0.8715018982709525,B,538,Correct
1,relearn,7,674,A,33.64324733258394,49.6534705858016,1.682162366629197,0.7799548920879561,B,775,Incorrect
1,relearn,7,675,B,41.752794117001876,18.995385476587074,2.0876397058500937,0.298378817326761,A,2406,Incorrect
1,relearn,7,676,B,72.0373363575125,42.54118912283199,3.6018668178756252,0.668235436116315,A,525,Incorrect
1,relearn,7,677,A,42.51048722928071,56.02043008604955,2.125524361464036,0.8799668580463694,A,782,Correct
1,relearn,7,678,B,67.36691052098934,46.00492281968767,3.368345526049467,0.7226436377964812,B,953,Correct
1,relearn,7,679,B,77.66002355482107,63.5157885402984,3.883001177741053,0.9977036733258211,B,672,Correct
1,relearn,7,680,A,57.78995790325156,68.11836920538731,2.889497895162578,1.0700008413508098,A,879,Correct
1,relearn,7,681,A,14.729399375490065,33.19857344630137,0.7364699687745032,0.5214819722428078,A,678,Correct
1,relearn,7,682,A,17.36856931510298,47.6468837627804,0.868428465755149,0.7484354999779885,A,525,Correct
1,relearn,7,683,A,62.85146368251709,72.44855059306252,3.1425731841258546,1.1380191715319685,B,470,Incorrect
1,relearn,7,684,B,65.44070746038975,47.95973020939373,3.272035373019487,0.753349680469899,B,311,Correct
1,relearn,7,685,B,72.90115684820924,48.47419060209223,3.645057842410462,0.7614308054212218,B,624,Correct
1,relearn,7,686,A,32.84905973218396,60.54596398461955,1.642452986609198,0.9510537782929649,A,605,Correct
1,relearn,7,687,A,37.76610207759347,70.8873469536212,1.8883051038796737,1.113495842109836,A,600,Correct
1,relearn,7,688,A,57.337204658279525,74.50357209571015,2.8668602329139765,1.1702993738104026,A,550,Correct
1,relearn,7,689,B,43.71182412677278,22.717999626406172,2.185591206338639,0.35685350365286644,B,665,Correct
1,relearn,7,690,B,61.72007286340453,35.87786746417397,3.0860036431702262,0.563568224259586,B,738,Correct
1,relearn,7,691,A,13.275550394410264,30.106862377273213,0.6637775197205131,0.47291748833540226,A,699,Correct
1,relearn,7,692,B,82.8823079707596,53.02443877775528,4.14411539853798,0.8329059366245888,B,816,Correct
1,relearn,7,693,B,42.67904806924481,32.594505785093446,2.1339524034622404,0.5119932996091979,B,620,Correct
1,relearn,7,694,A,31.900730422026562,40.26695624599091,1.595036521101328,0.6325118696241334,B,1140,Incorrect
1,relearn,7,695,B,54.12027400799138,37.957718050226056,2.7060137003995686,0.5962384408681142,B,967,Correct
1,relearn,7,696,A,61.97436290164909,79.76025488669525,3.0987181450824544,1.2528711540024562,A,1095,Correct
1,relearn,7,697,A,50.01956916531579,58.64272427140447,2.5009784582657892,0.9211577587876807,B,640,Incorrect
1,relearn,7,698,A,47.010210104155554,65.03595848909865,2.3505105052077777,1.0215824470426154,A,598,Correct
1,relearn,7,699,A,43.341377720759894,58.63331596351747,2.167068886037995,0.9210099734329782,A,523,Correct
1,relearn,7,700,B,64.34839310398704,54.46102419386283,3.217419655199352,0.8554717675720774,A,540,Incorrect
1,relearn,7,701,A,54.86476429508818,74.14561035268436,2.743238214754409,1.1646765238996224,A,498,Correct
1,relearn,7,702,B,75.00084269505848,58.87755317768206,3.7500421347529245,0.9248464426217416,B,362,Correct
1,relearn,7,703,A,64.28096407784238,78.04206057513922,3.214048203892119,1.225881820869335,A,1036,Correct
1,relearn,7,704,A,59.745209990662836,69.03581855184648,2.987260499533142,1.0844121019851942,B,440,Incorrect
1,relearn,7,705,B,50.36949828993304,36.58774916163388,2.518474914496652,0.5747190198878755,B,883,Correct
1,relearn,7,706,A,53.62341300343647,72.12114738008583,2.6811706501718233,1.132876333888722,A,984,Correct
1,relearn,7,707,B,61.20368280371382,50.94896709375032,3.060184140185691,0.8003045036485706,B,582,Correct
1,relearn,7,708,B,65.6192112505437,36.612610741588355,3.2809605625271847,0.5751095446725838,B,924,Correct
1,relearn,7,709,B,67.0398815700726,36.92402713468675,3.3519940785036293,0.5800012619364103,B,574,Correct
1,relearn,7,710,A,59.32496804577738,73.02180148131107,2.966248402288869,1.1470237754278958,A,661,Correct
1,relearn,7,711,B,61.03837588339393,41.11678078509756,3.0519187941696964,0.6458608822686223,B,754,Correct
1,relearn,7,712,A,24.537662704068204,42.659015435314714,1.2268831352034102,0.6700862475047915,A,766,Correct
1,relearn,7,713,B,35.19744095859646,19.976601740577937,1.759872047929823,0.3137917263594436,B,680,Correct
1,relearn,7,714,B,59.206499730979644,41.54966557148127,2.9603249865489825,0.6526606205923915,B,1106,Correct
1,relearn,7,715,B,53.54016793989619,44.73857778217493,2.6770083969948097,0.7027519364626814,B,835,Correct
1,relearn,7,716,A,15.942835033476229,45.24184255935484,0.7971417516738114,0.7106572010966761,A,706,Correct
1,relearn,7,717,A,29.407707674477592,61.40301442829772,1.4703853837238796,0.964516295181041,A,618,Correct
1,relearn,7,718,B,64.63869997013292,38.95407025370044,3.2319349985066457,0.6118891046822299,A,1029,Incorrect
1,relearn,7,719,B,74.10379102799466,52.116944829031105,3.705189551399733,0.8186510550121434,B,481,Correct
1,relearn,7,720,B,70.16005142492784,52.86982525270646,3.508002571246392,0.8304772730523938,A,451,Incorrect
1,relearn,7,721,A,62.720014953663494,75.71212907224273,3.136000747683175,1.189283342405,A,711,Correct
1,relearn,7,722,A,56.470046944931674,64.62900946405865,2.823502347246584,1.0151901067053595,B,736,Incorrect
1,relearn,7,723,A,49.47482104991202,65.31670694534718,2.473741052495601,1.0259924334809005,B,688,Incorrect
1,relearn,7,724,B,79.10916858224024,63.17319601063976,3.9554584291120123,0.9923222424540695,B,797,Correct
1,relearn,7,725,B,37.56863833662841,19.51732282786431,1.8784319168314203,0.30657739006879436,A,882,Incorrect
1,relearn,7,726,B,54.62123402273906,27.969668718084343,2.731061701136953,0.4393465288403701,B,361,Correct
1,relearn,7,727,B,51.40148745950188,19.740919080332503,2.570074372975094,0.31008963178941584,B,505,Correct
1,relearn,7,728,A,41.259849918616354,59.20334402513031,2.0629924959308177,0.9299639532864928,A,747,Correct
1,relearn,7,729,B,44.72222909004731,26.201001366055227,2.2361114545023653,0.41156436704147614,B,599,Correct
1,relearn,7,730,A,31.398943260719115,47.22023183777755,1.5699471630359556,0.741733667211844,B,921,Incorrect
1,relearn,7,731,A,33.28679178728465,41.26925467773902,1.6643395893642323,0.6482559365735555,A,754,Correct
1,relearn,7,732,B,47.09430571561275,29.949887013877202,2.354715285780637,0.47045172509320476,B,768,Correct
1,relearn,7,733,A,25.729352237479205,57.56908068967132,1.2864676118739602,0.9042930048429472,A,795,Correct
1,relearn,7,734,B,42.77614001376734,17.333415897015264,2.138807000688367,0.2722726602183984,B,706,Correct
1,relearn,7,735,A,12.989155411874961,34.43440763021798,0.6494577705937481,0.5408944102090456,B,619,Incorrect
1,relearn,7,736,B,61.380812013614566,40.651383848659094,3.0690406006807285,0.6385504442860308,B,807,Correct
1,relearn,7,737,B,47.639038857862516,26.861011680303996,2.3819519428931257,0.4219317848141633,B,685,Correct
1,relearn,7,738,A,21.190075407775502,42.912506305744664,1.0595037703887753,0.6740680727862656,A,845,Correct
1,relearn,7,739,A,37.15516333252927,54.546711506060944,1.8577581666264635,0.8568177407246144,A,600,Correct
1,relearn,7,740,B,53.29924332321292,23.04621985844278,2.664962166160646,0.36200917500149515,B,698,Correct
1,relearn,7,741,A,48.33133819549616,76.76060050866882,2.416566909774808,1.2057526932158744,A,840,Correct
1,relearn,7,742,B,58.27812766293923,37.56026544428443,2.9139063831469616,0.5899952699332327,A,807,Incorrect
1,relearn,7,743,B,53.30657939493119,26.650989454401245,2.6653289697465596,0.41863276340423,B,413,Correct
1,relearn,7,744,B,58.246931326374366,50.45841757343722,2.912346566318718,0.7925989698023823,A,891,Incorrect
1,relearn,7,745,B,55.262265053243574,24.954277365183586,2.7631132526621784,0.39198087223051403,B,659,Correct
1,relearn,7,746,B,75.64228625886273,45.219771046732376,3.7821143129431363,0.7103105025871342,B,646,Correct
1,relearn,7,747,B,62.37081559782078,54.46968259275173,3.1185407798910387,0.8556077733837834,B,468,Correct
1,relearn,7,748,B,60.53277828044462,37.65057218972891,3.026638914022231,0.5914138049735226,B,559,Correct
1,relearn,7,749,B,75.36414636783675,62.30945459169882,3.768207318391837,0.9787546239723391,B,515,Correct
1,relearn,7,750,B,53.460575941102285,42.67547157346339,2.6730287970551143,0.6703447399183632,A,1231,Incorrect
1,relearn,7,751,B,71.00092149310471,55.91287155210772,3.550046074655236,0.8782773325460568,A,817,Incorrect
1,relearn,7,752,A,27.606341179589695,42.93891151188337,1.3803170589794849,0.6744828447943748,A,601,Correct
1,relearn,7,753,A,38.06605363159952,47.84417930589077,1.903302681579976,0.7515346111220963,A,1706,Correct
1,relearn,7,754,A,34.97761721193148,67.45047246931098,1.7488808605965742,1.0595095439537399,A,642,Correct
1,relearn,7,755,A,46.78182929360346,58.13328133204605,2.339091464680173,0.9131554478091227,A,394,Correct
1,relearn,7,756,B,31.07655268074568,16.50142729242207,1.553827634037284,0.2592038137780964,B,725,Correct
1,relearn,7,757,B,73.52405494825129,43.17935654414337,3.6762027474125647,0.6782597465290758,B,605,Correct
1,relearn,7,758,B,31.662864414534507,11.676324714988407,1.5831432207267253,0.1834112797276826,B,796,Correct
1,relearn,7,759,B,56.929766866164144,48.45328282790104,2.846488343308207,0.7611023868722119,B,803,Correct
1,relearn,7,760,A,39.82408573175404,71.31061261930638,1.991204286587702,1.1201444836390027,B,1303,Incorrect
1,relearn,7,761,A,41.13528404716065,54.14637146841588,2.056764202358033,0.8505292141185966,A,1233,Correct
1,relearn,7,762,A,61.127788917024276,85.36863299003889,3.056389445851214,1.340967351242547,A,911,Correct
1,relearn,7,763,A,48.653770298467606,58.987603746270295,2.43268851492338,0.9265751129107427,B,773,Incorrect
1,relearn,7,764,B,75.45646132372363,53.05949818410659,3.7728230661861812,0.8334566484917512,B,621,Correct
1,relearn,7,765,B,39.656093503532205,12.252585536584455,1.9828046751766102,0.19246316354607135,B,856,Correct
1,relearn,7,766,B,63.25270525350652,47.438392367587525,3.162635262675326,0.7451605248006155,B,1282,Correct
1,relearn,7,767,B,54.376600969179194,41.21438040154286,2.71883004845896,0.6473939734587111,B,633,Correct
1,relearn,7,768,A,48.98872518867555,66.98823903611725,2.4494362594337775,1.0522487981639148,A,491,Correct
1,relearn,7,769,A,20.750614876661725,41.200592562277635,1.0375307438330863,0.6471773945859884,A,429,Correct
1,relearn,7,770,B,65.00345640975085,49.123284788125375,3.250172820487543,0.7716267530528697,A,585,Incorrect
1,relearn,7,771,A,54.685208119495655,66.694250426823,2.7342604059747826,1.0476308358879254,A,749,Correct
1,relearn,7,772,A,54.29651455984557,82.88461887972444,2.7148257279922787,1.3019485488406608,A,646,Correct
1,relearn,7,773,A,51.037272400846206,78.21391499359169,2.5518636200423104,1.2285813037618212,A,695,Correct
1,relearn,7,774,B,58.590212812326065,38.7878636234549,2.9295106406163036,0.6092783370394436,B,458,Correct
1,relearn,7,775,A,62.29439768478838,79.6038144074231,3.1147198842394186,1.2504137927004288,A,794,Correct
1,relearn,7,776,B,34.04498065983473,12.148802801461748,1.7022490329917364,0.1908329481549166,A,888,Incorrect
1,relearn,7,777,A,52.99784111452258,81.02006148395448,2.649892055726129,1.2726601497569237,A,914,Correct
1,relearn,7,778,B,42.88761642159867,32.67290762669673,2.1443808210799333,0.5132248328572419,B,769,Correct
1,relearn,7,779,A,61.12008466064904,81.16566247751243,3.0560042330324517,1.2749472448155088,A,543,Correct
1,relearn,7,780,A,41.07235987573004,58.34689927622662,2.0536179937865016,0.9165109506296858,B,1456,Incorrect
1,relearn,7,781,B,33.59761228053471,18.501945616928886,1.6798806140267357,0.2906278821363083,A,1217,Incorrect
1,relearn,7,782,A,55.422359939925016,65.31847907428812,2.7711179969962507,1.026020270017211,B,637,Incorrect
1,relearn,7,783,B,68.73739010811454,41.648168254417726,3.4368695054057268,0.6542078971177518,A,893,Incorrect
1,relearn,7,784,B,65.54243589778412,38.96402006239252,3.2771217948892057,0.6120453959116884,B,1400,Correct
1,relearn,7,785,A,34.13873106869873,66.87144218993113,1.7069365534349368,1.0504141575942108,B,1334,Incorrect
1,relearn,7,786,A,67.54352347683309,85.56733851313754,3.377176173841655,1.3440886103005194,B,1256,Incorrect
1,relearn,7,787,B,49.21374402047854,25.032258237163084,2.4606872010239274,0.39320579290317065,B,1101,Correct
1,relearn,7,788,B,44.151649155438875,20.922642475321236,2.2075824577719434,0.3286520994707748,B,1111,Correct
1,relearn,7,789,B,64.64068860552801,54.42990935423576,3.2320344302764004,0.854983016814127,B,862,Correct
1,relearn,7,790,B,47.93360782813242,17.396497798530863,2.3966803914066213,0.27326354841027783,B,1633,Correct
1,relearn,7,791,A,14.638957632209518,43.25039331333757,0.731947881610476,0.6793755894902521,A,898,Correct
1,relearn,7,792,B,68.05997336461978,51.8540116332946,3.402998668230989,0.8145209100315897,B,1154,Correct
1,relearn,7,793,B,55.19487634909797,44.41513851284015,2.7597438174548983,0.6976713643005585,B,900,Correct
1,relearn,7,794,A,61.18066934871463,74.95414135067736,3.0590334674357313,1.1773768991170948,B,1196,Incorrect
1,relearn,7,795,B,81.89643295761162,68.11674754674695,4.094821647880582,1.069975368396454,A,557,Incorrect
1,relearn,7,796,A,54.3744339911213,78.63402459379532,2.718721699556065,1.2351803699303323,B,1086,Incorrect
1,relearn,7,797,A,49.03395832372665,58.91788451243816,2.451697916186333,0.9254799657466377,B,613,Incorrect
1,relearn,7,798,A,67.91471756201992,86.5416169094669,3.3957358781009956,1.359392539562817,A,843,Correct
1,relearn,7,799,A,33.02831491313307,56.874227037927064,1.6514157456566536,0.8933782692047482,A,898,Correct
1,relearn,7,800,A,63.75568088433177,87.52535894965779,3.1877840442165883,1.3748451233952728,A,682,Correct
1,relearn,7,801,A,21.671826422320947,45.82557201748914,1.0835913211160473,0.7198264019834694,B,865,Incorrect
1,relearn,7,802,A,35.872947376319054,50.308692509079734,1.7936473688159527,0.7902470939911638,B,638,Incorrect
1,relearn,7,803,B,74.14981984082881,54.68537562087971,3.7074909920414405,0.8589958715467704,B,668,Correct
1,relearn,7,804,A,19.523017242224803,50.716883903405126,0.9761508621112401,0.7966589494195199,A,874,Correct
1,relearn,7,805,A,47.98384122028939,62.720113612794876,2.3991920610144692,0.985205240791368,B,1246,Incorrect
1,relearn,7,806,B,34.36820147682458,15.257588776982065,1.7184100738412291,0.23966564406630464,B,886,Correct
1,relearn,7,807,B,81.08532465014406,65.88624375432704,4.054266232507203,1.0349386967561012,B,773,Correct
1,relearn,7,808,A,26.021308611485885,36.08822798578984,1.3010654305742944,0.5668725596061547,B,774,Incorrect
1,relearn,7,809,A,44.74147330214658,65.68683396474107,2.237073665107329,1.0318063751060154,B,1049,Incorrect
1,relearn,7,810,B,60.3601826408896,35.76963640234677,3.0180091320444795,0.5618681347159533,B,736,Correct
1,relearn,7,811,A,38.371593681230095,59.40641253202899,1.9185796840615046,0.9331537459337343,B,699,Incorrect
1,relearn,7,812,B,45.77304520455404,18.176918235738093,2.2886522602277015,0.28552236397148567,B,618,Correct
1,relearn,7,813,A,21.143883920915194,42.082930231946,1.0571941960457596,0.6610371222910669,A,512,Correct
1,relearn,7,814,A,27.664935557351377,51.945480397702006,1.383246777867569,0.8159576980230662,A,989,Correct
1,relearn,7,815,A,65.63483960112694,78.27617572578869,3.281741980056347,1.2295592930562074,A,863,Correct
1,relearn,7,816,A,37.34705958563998,48.5410795541538,1.8673529792819992,0.7624814946232364,A,766,Correct
1,relearn,7,817,B,63.31641775628949,39.116047918793825,3.1658208878144745,0.614433443895745,B,706,Correct
1,relearn,7,818,A,36.135992531748805,68.05134258144807,1.8067996265874402,1.0689479896039975,A,731,Correct
1,relearn,7,819,A,30.46059433729723,42.92321281234035,1.5230297168648617,0.6742362501985986,A,1043,Correct
1,relearn,7,820,B,64.94794167766254,55.4593198363584,3.247397083883127,0.871152958854951,B,607,Correct
1,relearn,7,821,B,77.78993599784275,61.34985287596736,3.8894967998921373,0.9636812354697685,B,576,Correct
1,relearn,7,822,A,22.094981097099193,42.5492542039429,1.1047490548549597,0.6683621221141582,A,1026,Correct
1,relearn,7,823,A,46.10308107368165,68.3620849521247,2.305154053684083,1.0738291193483815,B,1488,Incorrect
1,relearn,7,824,B,42.53417637585625,21.595530908791925,2.1267088187928125,0.33922180626716014,B,709,Correct
1,relearn,7,825,A,38.2824918792001,53.82668623823109,1.9141245939600051,0.8455076102655481,A,435,Correct
1,relearn,7,826,A,35.084854568671,61.096510874341575,1.75424272843355,0.9597017486140019,A,950,Correct
1,relearn,7,827,A,36.27764510618787,67.86731227880456,1.8138822553093934,1.0660572483698838,A,667,Correct
1,relearn,7,828,B,70.62641141753127,42.921844770126896,3.5313205708765634,0.6742147610417607,B,948,Correct
1,relearn,7,829,A,51.45071529936689,77.17272179447605,2.5725357649683445,1.2122262792352743,A,588,Correct
1,relearn,7,830,A,26.83297469296194,45.940744176433235,1.3416487346480972,0.7216355220256536,A,841,Correct
1,relearn,7,831,B,77.62530654007467,52.62572492934676,3.881265327003734,0.8266429541393652,B,541,Correct
1,relearn,7,832,A,38.573624175144424,48.39146105240549,1.9286812087572214,0.7601312926935685,A,426,Correct
1,relearn,7,833,B,46.01298739388374,22.84722844083433,2.300649369694187,0.3588834251230646,A,994,Incorrect
1,relearn,7,834,A,42.04723816392494,67.4884802446223,2.102361908196247,1.0601065686922266,B,1103,Incorrect
1,relearn,7,835,B,59.11730033137601,33.43470892051317,2.9558650165688003,0.5251911795979864,B,880,Correct
1,relearn,7,836,A,46.05571837140843,54.89989741037508,2.3027859185704216,0.8623655719363382,B,479,Incorrect
1,relearn,7,837,A,26.444383922870827,41.72000936946121,1.3222191961435414,0.6553363747139833,B,1052,Incorrect
1,relearn,7,838,B,33.63279021111217,20.120137689152706,1.6816395105556086,0.3160463837672863,B,707,Correct
1,relearn,7,839,B,62.06292858856528,41.466576973650504,3.103146429428264,0.6513554679496805,A,1462,Incorrect
1,relearn,7,840,A,54.68467401008304,76.059551929631,2.734233700504152,1.1947406478873004,B,771,Incorrect
1,relearn,7,841,B,72.6234441500776,40.780492509133516,3.63117220750388,0.6405784783823372,B,806,Correct
1,relearn,7,842,A,50.29051621532772,69.84087935298794,2.514525810766386,1.09705796747799,B,617,Incorrect
1,relearn,7,843,B,35.33876805635801,13.489068370257328,1.7669384028179007,0.21188579047885436,B,570,Correct
1,relearn,7,844,A,23.888805089616884,45.73077780773549,1.1944402544808441,0.718337378018645,A,934,Correct
1,relearn,7,845,B,56.29025863740031,36.090008213972965,2.8145129318700155,0.5669005233650637,B,680,Correct
1,relearn,7,846,A,16.864277268623987,31.725795704535855,0.8432138634311994,0.49834763357330225,A,811,Correct
1,relearn,7,847,A,62.83105237309411,78.87014840127178,3.1415526186547056,1.2388893940248609,B,617,Incorrect
1,relearn,7,848,B,69.77118517209163,46.272495124765214,3.4885592586045817,0.7268466537361594,B,581,Correct
1,relearn,7,849,A,54.198385960154276,64.68729502166744,2.709919298007714,1.0161056541033302,A,1456,Correct
1,relearn,7,850,A,36.50021199110417,59.53271768513169,1.8250105995552088,0.9351377426392244,A,1194,Correct
1,relearn,7,851,B,49.247421467627916,25.319163344171912,2.462371073381396,0.3977124877854522,B,681,Correct
1,relearn,7,852,B,52.96214309828104,39.140535154874705,2.648107154914052,0.6148180885006369,B,720,Correct
1,relearn,7,853,B,37.251218129861996,11.53998571105161,1.8625609064931,0.18126967166185462,B,703,Correct
1,relearn,7,854,B,65.08206134365999,43.83595367452261,3.2541030671829994,0.6885735501349135,A,1075,Incorrect
1,relearn,7,855,A,34.510082234687204,43.15653801487237,1.7255041117343604,0.6779013139094583,A,774,Correct
1,relearn,7,856,B,66.65989449132582,36.72551190207944,3.3329947245662908,0.5768829919544864,B,624,Correct
1,relearn,7,857,A,64.14952927522805,87.8130396395411,3.207476463761402,1.379364001104858,A,715,Correct
1,relearn,7,858,A,55.37165276371446,83.36761519570477,2.7685826381857233,1.3095354372306347,A,740,Correct
1,relearn,7,859,A,44.14075447436671,56.34731945278235,2.207037723718335,0.8851016242116913,A,706,Correct
1,relearn,7,860,A,22.979543633223,48.82890291835881,1.14897718166115,0.7670026134558261,A,973,Correct
1,relearn,7,861,A,50.976654221677514,68.60651301355004,2.5488327110838758,1.0776685863589068,A,1091,Correct
1,relearn,7,862,A,56.696667510175686,65.85242593092319,2.8348333755087847,1.0344074876282716,A,590,Correct
1,relearn,7,863,A,53.54491937587062,74.83072258618701,2.677245968793531,1.1754382416979043,A,560,Correct
1,relearn,7,864,B,89.11379847450212,65.97546016099906,4.455689923725106,1.0363401047950036,B,686,Correct
1,relearn,7,865,A,41.43063178446334,50.11304302703443,2.071531589223167,0.787173839113803,A,852,Correct
1,relearn,7,866,A,44.91804567951848,60.160790772053176,2.245902283975924,0.9450034916181743,A,795,Correct
1,relearn,7,867,B,33.01829516353274,15.088171735344886,1.650914758176637,0.2370044473993033,B,620,Correct
1,relearn,7,868,A,68.90204459067502,85.3513975086943,3.445102229533751,1.340696616934681,A,833,Correct
1,relearn,7,869,A,25.996741611412094,57.106725458278255,1.2998370805706048,0.8970303458514809,A,1062,Correct
1,relearn,7,870,A,13.8665322185246,40.76832969058046,0.6933266109262299,0.640387425275271,B,927,Incorrect
1,relearn,7,871,B,76.9790784744165,59.57119928540227,3.848953923720825,0.9357422102027666,B,645,Correct
1,relearn,7,872,A,34.401406182116126,45.70010982185819,1.7200703091058063,0.7178556464229822,A,1173,Correct
1,relearn,7,873,B,50.01334814973797,35.65141164664249,2.5006674074868984,0.560011064595988,B,700,Correct
1,relearn,7,874,B,35.890543682594284,11.8859209318443,1.7945271841297141,0.18670360940315603,B,718,Correct
1,relearn,7,875,B,58.34773771639489,42.318310947288474,2.9173868858197443,0.6647344739216499,A,925,Incorrect
1,relearn,7,876,A,25.23323325031762,47.88725142301887,1.2616616625158812,0.7522111863558172,A,783,Correct
1,relearn,7,877,A,22.262260489231988,48.812565285010805,1.1131130244615994,0.7667459825113105,B,1038,Incorrect
1,relearn,7,878,A,62.709294854808036,79.57584824200174,3.135464742740402,1.2499745012012444,A,844,Correct
1,relearn,7,879,B,37.88952860869961,12.831668840515295,1.8944764304349804,0.20155938281329955,B,790,Correct
1,relearn,7,880,B,66.87194147299944,43.068429319920284,3.343597073649972,0.676517305765564,B,668,Correct
1,relearn,7,881,B,81.3464078006518,53.691491929187684,4.067320390032591,0.8433839830250586,B,607,Correct
1,relearn,7,882,A,44.564663101082765,54.86184674556732,2.2282331550541383,0.8617678734912169,A,658,Correct
1,relearn,7,883,A,65.52396547569366,82.27270172691274,3.276198273784683,1.2923365766812667,B,424,Incorrect
1,relearn,7,884,A,13.647662958011782,32.50397776861654,0.6823831479005891,0.5105712888516584,A,861,Correct
1,relearn,7,885,B,76.4546446663131,47.4344461013886,3.8227322333156555,0.7450985369961173,B,1000,Correct
1,relearn,7,886,A,12.872166288866897,38.90582300324077,0.6436083144433448,0.6111312386442299,A,1322,Correct
1,relearn,7,887,B,68.19649314919148,39.62712844190018,3.4098246574595743,0.6224614779796637,B,649,Correct
1,relearn,7,888,A,40.898441713351474,52.95773003297248,2.0449220856675736,0.8318580781118895,A,755,Correct
1,relearn,7,889,B,51.427621836896215,27.468981665702557,2.571381091844811,0.43148175501281927,B,590,Correct
1,relearn,7,890,B,57.92224969733791,29.593334442664563,2.8961124848668955,0.4648510104015039,B,764,Correct
1,relearn,7,891,A,12.261457868998097,38.779812156834765,0.6130728934499048,0.6091518648975213,A,745,Correct
1,relearn,7,892,B,66.61830770576377,55.964278376995615,3.330915385288188,0.8790848290631176,B,1351,Correct
1,relearn,7,893,B,35.18835213111356,22.03828538043547,1.7594176065556781,0.34617657724445705,B,1450,Correct
1,relearn,7,894,B,85.25730363290698,56.293903433096546,4.262865181645349,0.8842625673365466,B,886,Correct
1,relearn,7,895,B,44.423311201757556,17.540515972147965,2.2211655600878775,0.2755257805913724,B,632,Correct
1,relearn,7,896,A,34.099038076654836,64.75785201821265,1.7049519038327419,1.017213960813359,A,448,Correct
1,relearn,7,897,A,27.644352614404333,55.94092263847168,1.3822176307202168,0.878717957980288,A,564,Correct
1,relearn,7,898,B,35.38410371035482,13.097559734085326,1.769205185517741,0.20573598720277972,B,672,Correct
