experiment,condition,subject,trial,cat,x,y,xt,yt,resp,rt,fb
1,new_learn,20,0,B,50.16337310029908,23.32695552911526,2.5081686550149542,0.36641896060442153,B,8581,Correct
1,new_learn,20,1,A,55.83778720191662,74.00067117286869,2.7918893600958308,1.1623998245869913,B,1258,Incorrect
1,new_learn,20,2,A,48.64756331432334,71.56895007489368,2.4323781657161674,1.1242024389021033,A,948,Correct
1,new_learn,20,3,B,73.82178530298005,57.11163654146737,3.6910892651490026,0.8971074889658214,A,674,Incorrect
1,new_learn,20,4,B,46.68901644316492,17.720354979297877,2.334450822158246,0.2783506851098276,B,32758,Correct
1,new_learn,20,5,A,33.33674352094229,53.3837675179821,1.6668371760471146,0.83855025927719,A,10504,Correct
1,new_learn,20,6,A,11.450426954722918,34.29668529171599,0.5725213477361458,0.5387310727746804,B,6863,Incorrect
1,new_learn,20,7,A,64.41057973399262,74.63019923133325,3.220528986699631,1.172288428205496,A,11366,Correct
1,new_learn,20,8,A,55.53652981624771,71.89167937617333,2.776826490812385,1.1292718589120947,A,2525,Correct
1,new_learn,20,9,B,60.69574170669129,42.59395715999871,3.0347870853345644,0.6690643145058515,A,23381,Incorrect
1,new_learn,20,10,A,37.19712925613974,60.24438874122775,1.859856462806987,0.9463166454472438,A,10677,Correct
1,new_learn,20,11,A,49.26389167430867,66.03318462880716,2.4631945837154334,1.0372468386149951,B,15300,Incorrect
1,new_learn,20,12,A,49.76908180480241,63.05525747849039,2.48845409024012,0.9904696683231914,A,10252,Correct
1,new_learn,20,13,B,62.91014727637953,40.286539178110935,3.1455073638189766,0.6328194776025535,A,11145,Incorrect
1,new_learn,20,14,B,47.11510281302141,33.73084366028709,2.35575514065107,0.5298428532127188,B,18628,Correct
1,new_learn,20,15,A,32.21625352355448,43.36921471285653,1.610812676177724,0.6812420316693422,B,9835,Incorrect
1,new_learn,20,16,B,70.28850675845102,53.45613370909236,3.5144253379225514,0.8396869847489913,A,2338,Incorrect
1,new_learn,20,17,B,57.54454163828613,36.35945920178747,2.8772270819143064,0.5711330495841667,A,4781,Incorrect
1,new_learn,20,18,B,81.15869902953337,57.66016958842836,4.0579349514766685,0.9057238259187408,A,4752,Incorrect
1,new_learn,20,19,A,43.386729199295594,52.888021413239734,2.1693364599647795,0.8307630976736682,B,9522,Incorrect
1,new_learn,20,20,B,77.7460999267781,53.66512246222409,3.8873049963389055,0.8429697724065989,A,7697,Incorrect
1,new_learn,20,21,B,56.6347977106518,36.34024881951187,2.83173988553259,0.5708312936050183,B,9152,Correct
1,new_learn,20,22,A,50.14790369022528,68.55168249402628,2.507395184511264,1.0768073105722649,B,5068,Incorrect
1,new_learn,20,23,B,75.56427975202082,46.69584477539473,3.778213987601041,0.7334966144977472,B,9123,Correct
1,new_learn,20,24,A,16.599076157856665,38.01303005210997,0.8299538078928334,0.5971072797619835,A,2398,Correct
1,new_learn,20,25,A,57.03158259814216,75.31622055546516,2.851579129907108,1.1830644259659897,B,1071,Incorrect
1,new_learn,20,26,A,62.06789853588672,71.77811082403726,3.1033949267943357,1.1274879282667474,A,1604,Correct
1,new_learn,20,27,B,37.47747276411808,13.490076079806748,1.8738736382059042,0.21190161954344136,B,900,Correct
1,new_learn,20,28,B,85.29425842930273,67.83354857010562,4.2647129214651365,1.0655268892738512,A,570,Incorrect
1,new_learn,20,29,B,88.16512365626969,65.99745645011099,4.408256182813484,1.0366856216964047,A,1291,Incorrect
1,new_learn,20,30,A,27.617331261985463,42.53149749576819,1.3808665630992731,0.6680832003943902,B,2182,Incorrect
1,new_learn,20,31,B,56.50437040836145,41.76970933126156,2.8252185204180726,0.6561170598883618,A,4039,Incorrect
1,new_learn,20,32,B,51.961405459852685,36.78462755803002,2.5980702729926346,0.5778115785067188,B,11589,Correct
1,new_learn,20,33,A,49.74161778503859,59.830444997389584,2.4870808892519296,0.9398144323240365,B,9365,Incorrect
1,new_learn,20,34,A,25.51560011535497,37.850008315170584,1.2757800057677486,0.5945465403062624,A,1583,Correct
1,new_learn,20,35,B,73.28351406829862,55.42933187650392,3.6641757034149305,0.8706819090830764,A,5208,Incorrect
1,new_learn,20,36,B,47.2174333891123,25.736437131583287,2.360871669455615,0.4042670091107881,B,15365,Correct
1,new_learn,20,37,B,57.968329352906295,36.12343149582862,2.8984164676453146,0.5674255350487467,B,2646,Correct
1,new_learn,20,38,B,55.706236980875914,37.06890556741004,2.785311849043796,0.5822770070359459,A,2251,Incorrect
1,new_learn,20,39,A,39.34061023493691,54.71888198004989,1.9670305117468456,0.8595221882058582,B,5672,Incorrect
1,new_learn,20,40,B,51.02780399193092,25.781998424142156,2.5513901995965456,0.4049826842207431,B,720,Correct
1,new_learn,20,41,B,46.07699556815745,25.9691289247397,2.3038497784078724,0.40792212325044225,B,3367,Correct
1,new_learn,20,42,A,48.255383186886945,61.812501488153714,2.4127691593443474,0.9709485028759592,A,862,Correct
1,new_learn,20,43,B,41.842018774028695,27.94046902918557,2.0921009387014347,0.4388878611997127,B,868,Correct
1,new_learn,20,44,A,29.714394236665576,40.04072113783586,1.485719711833279,0.6289581768553134,B,925,Incorrect
1,new_learn,20,45,A,55.16430466633457,63.83287314432235,2.758215233316729,1.0026844266386614,A,1030,Correct
1,new_learn,20,46,B,58.857052066384995,40.88388422419687,2.94285260331925,0.6422025516447627,B,773,Correct
1,new_learn,20,47,A,33.04156272720955,46.05218713504347,1.6520781363604777,0.7233860639259747,B,702,Incorrect
1,new_learn,20,48,B,78.32752990810621,55.47581272986082,3.9163764954053106,0.8714120286202693,A,448,Incorrect
1,new_learn,20,49,B,71.37734473434014,42.68040204799635,3.568867236717007,0.6704221876312205,B,1210,Correct
1,new_learn,20,50,A,54.907287790804745,64.62438923422903,2.745364389540237,1.0151175323049062,A,573,Correct
1,new_learn,20,51,A,33.461443426007946,65.1541972222657,1.6730721713003973,1.023439736720052,A,741,Correct
1,new_learn,20,52,A,46.435256860085445,53.82958404416001,2.3217628430042723,0.8455531288946372,B,681,Incorrect
1,new_learn,20,53,B,67.12386175146545,43.053892532738985,3.356193087573273,0.6762889624464862,B,824,Correct
1,new_learn,20,54,A,15.791419190324959,39.15867372979105,0.7895709595162479,0.6151030085691558,B,1556,Incorrect
1,new_learn,20,55,A,29.189201124332676,39.6909949272855,1.4594600562166338,0.6234646903861493,B,3540,Incorrect
1,new_learn,20,56,B,38.89835142230348,13.820611715636598,1.9449175711151738,0.21709366116980483,B,816,Correct
1,new_learn,20,57,B,87.71226723835179,69.3981110931731,4.385613361917589,1.0901029799166047,A,1176,Incorrect
1,new_learn,20,58,A,54.81665988508439,78.70165192603233,2.7408329942542196,1.2362426575810206,A,1204,Correct
1,new_learn,20,59,B,53.55189686175197,34.51807920484432,2.6775948430875984,0.5422087202298476,B,1369,Correct
1,new_learn,20,60,B,37.316947367717816,13.462123643822519,1.865847368385891,0.2114625437057514,B,813,Correct
1,new_learn,20,61,A,20.36876966217535,37.08041900159398,1.0184384831087676,0.5824578596371951,B,1434,Incorrect
1,new_learn,20,62,B,74.57291874937486,42.75076117740862,3.7286459374687433,0.6715273862515934,A,1596,Incorrect
1,new_learn,20,63,A,36.94767732852817,64.04942845877488,1.8473838664264088,1.0060860695635612,A,736,Correct
1,new_learn,20,64,A,27.551801215557425,59.2037058064253,1.3775900607778713,0.9299696361337855,A,3442,Correct
1,new_learn,20,65,A,54.536549887844,74.52553282773118,2.7268274943922,1.170644332182326,A,597,Correct
1,new_learn,20,66,B,84.36700190224163,68.08649676304967,4.218350095112081,1.0695001901973102,A,617,Incorrect
1,new_learn,20,67,B,72.34230241856808,47.50141308931568,3.617115120928404,0.7461504519826411,B,1098,Correct
1,new_learn,20,68,A,24.92512391589569,48.540871054865384,1.2462561957947844,0.7624782195240725,B,927,Incorrect
1,new_learn,20,69,A,44.3373007194391,67.57971675646642,2.216865035971955,1.0615397084689697,A,1456,Correct
1,new_learn,20,70,A,51.280777278442685,78.13551034538165,2.564038863922134,1.2273497264277013,A,2713,Correct
1,new_learn,20,71,B,79.79262578137761,51.17487712658839,3.9896312890688805,0.8038530901462521,A,3992,Incorrect
1,new_learn,20,72,A,63.120626809481124,84.96337295262285,3.156031340474056,1.3346015414608485,A,1940,Correct
1,new_learn,20,73,A,14.391883966125032,41.14639556250751,0.7195941983062517,0.6463260701043663,B,1419,Incorrect
1,new_learn,20,74,B,70.42694595175033,51.720350312191016,3.5213472975875164,0.8124213629093493,B,4453,Correct
1,new_learn,20,75,B,50.47485074091328,39.96705853044246,2.523742537045664,0.6278010873241564,A,1296,Incorrect
1,new_learn,20,76,A,54.84868657576009,76.88333493046417,2.742434328788004,1.2076806010051488,A,689,Correct
1,new_learn,20,77,B,56.11166218566313,31.811758652533467,2.8055831092831562,0.4996979364028533,B,1338,Correct
1,new_learn,20,78,B,44.78174646847149,23.98159753241393,2.239087323423574,0.37670205314589356,B,608,Correct
1,new_learn,20,79,A,37.604693807360384,63.77206483730393,1.8802346903680192,1.00172925198563,A,764,Correct
1,new_learn,20,80,B,52.70647502486017,40.625255989654434,2.6353237512430088,0.6381400288365155,B,3379,Correct
1,new_learn,20,81,B,61.341700756273084,40.88389876217721,3.0670850378136545,0.6422027800068238,A,1949,Incorrect
1,new_learn,20,82,B,69.0208998972561,36.1101337587394,3.4510449948628046,0.5672166546830025,A,1390,Incorrect
1,new_learn,20,83,B,36.487812574006334,15.101109739270775,1.8243906287003169,0.23720767708973173,B,824,Correct
1,new_learn,20,84,A,37.278324896958914,62.76541756025246,1.8639162448479456,0.9859168735339245,A,728,Correct
1,new_learn,20,85,A,35.965277837732415,65.63386415306867,1.7982638918866207,1.030974327249955,A,644,Correct
1,new_learn,20,86,B,63.374970125788515,42.52105823537675,3.168748506289426,0.6679192208756168,B,1839,Correct
1,new_learn,20,87,B,86.98848288574763,68.9257603972007,4.349424144287382,1.0826833125346802,A,810,Incorrect
1,new_learn,20,88,A,43.674770615860716,66.21500448066338,2.1837385307930357,1.0401028581693366,B,1052,Incorrect
1,new_learn,20,89,B,62.52330197529608,45.59020004809652,3.1261650987648038,0.7161291877339453,B,525,Correct
1,new_learn,20,90,B,69.48566914970425,44.29946577842462,3.474283457485212,0.6958543812372563,B,957,Correct
1,new_learn,20,91,A,68.66875569603322,89.3666447153787,3.4334377848016606,1.4037679725690142,A,702,Correct
1,new_learn,20,92,A,26.271975325235044,41.552842545913734,1.313598766261752,0.6527105243900799,A,1643,Correct
1,new_learn,20,93,B,59.12355693313625,29.5425161862703,2.9561778466568125,0.4640527590967216,B,1363,Correct
1,new_learn,20,94,A,12.332730057593789,37.73826994041825,0.6166365028796895,0.5927913580200325,A,2119,Correct
1,new_learn,20,95,A,24.304632857222494,47.022049123104026,1.2152316428611245,0.7386206204094099,A,3030,Correct
1,new_learn,20,96,A,21.313516265414425,53.0216408656085,1.0656758132707211,0.83286198712336,A,825,Correct
1,new_learn,20,97,A,40.80529599711124,67.2477762563044,2.040264799855562,1.0563255992852802,A,1250,Correct
1,new_learn,20,98,B,70.92401064227364,44.733321976610384,3.546200532113682,0.7026693784619301,B,1186,Correct
1,new_learn,20,99,A,57.47722010237506,80.56893466122764,2.8738610051187528,1.2655738661963438,A,767,Correct
1,new_learn,20,100,A,34.83530078291428,61.788217562115676,1.7417650391457142,0.9705670518577522,A,1959,Correct
1,new_learn,20,101,A,31.327860626308286,44.88953392880619,1.5663930313154142,0.7051231500690365,A,1588,Correct
1,new_learn,20,102,A,52.459568662551526,70.18726058227942,2.6229784331275763,1.1024989111044075,A,1617,Correct
1,new_learn,20,103,A,55.953539296134686,74.3926266542219,2.797676964806734,1.1685566468907587,A,747,Correct
1,new_learn,20,104,B,37.92688796744871,16.06114348907545,1.8963443983724353,0.25228785196765485,B,928,Correct
1,new_learn,20,105,A,54.44686378164663,70.52240356578032,2.7223431890823315,1.1077633247787504,A,2148,Correct
1,new_learn,20,106,A,18.914406697370172,48.97901751307592,0.9457203348685086,0.7693606079956256,A,1141,Correct
1,new_learn,20,107,B,54.807370787974754,25.177065032870296,2.740368539398738,0.39548041273108886,B,1736,Correct
1,new_learn,20,108,B,41.0470066273799,18.246996912851024,2.052350331368995,0.2866231572574421,B,645,Correct
1,new_learn,20,109,B,73.39338749985913,60.089306216674046,3.669669374992957,0.9438806148480533,B,2579,Correct
1,new_learn,20,110,B,72.83185113418874,56.06822486662453,3.641592556709437,0.880717616704041,B,1413,Correct
1,new_learn,20,111,B,66.70974150714103,36.56644425933733,3.3354870753570514,0.5743843632651741,B,743,Correct
1,new_learn,20,112,B,75.53503618336208,49.417164353772506,3.776751809168104,0.7762430024752555,B,738,Correct
1,new_learn,20,113,B,68.51546879709174,54.60632080840858,3.425773439854587,0.8577540814563193,B,560,Correct
1,new_learn,20,114,A,53.69082171443286,61.1382452128896,2.6845410857216425,0.9603573100709266,A,605,Correct
1,new_learn,20,115,A,58.63397971629627,75.02511819610972,2.9316989858148133,1.178491800798021,A,653,Correct
1,new_learn,20,116,A,41.37449519206732,55.352388740562354,2.068724759603366,0.8694732891299853,A,739,Correct
1,new_learn,20,117,A,35.1388522968804,52.448855822875295,1.7569426148440201,0.8238647007116765,A,490,Correct
1,new_learn,20,118,A,60.04766209892378,69.68637453483153,3.0023831049461887,1.0946310114696678,A,575,Correct
1,new_learn,20,119,B,80.55770313267948,62.4701732987012,4.027885156633974,0.9812791875184047,B,634,Correct
1,new_learn,20,120,B,33.550598213425275,19.071261717028136,1.6775299106712638,0.2995706785245193,A,792,Incorrect
1,new_learn,20,121,B,60.554988273296615,45.82830941089739,3.0277494136648304,0.7198694008585761,B,2843,Correct
1,new_learn,20,122,A,41.68291358335428,65.24887015456251,2.0841456791677135,1.0249268556630395,A,1059,Correct
1,new_learn,20,123,A,41.618438708239786,66.69327893502538,2.080921935411989,1.047615575730453,A,514,Correct
1,new_learn,20,124,A,22.664847617849414,53.430607453035066,1.1332423808924708,0.8392860192564751,A,1091,Correct
1,new_learn,20,125,A,41.50050597124582,62.11871777702632,2.075025298562291,0.9757585370936177,A,576,Correct
1,new_learn,20,126,A,27.61538768116551,51.86914828369471,1.3807693840582755,0.8147586759800747,A,434,Correct
1,new_learn,20,127,A,36.624090898209424,52.78562276745442,1.8312045449104712,0.8291546235069847,A,540,Correct
1,new_learn,20,128,B,62.39578230654102,44.66305465848847,3.1197891153270514,0.7015656220099338,A,501,Incorrect
1,new_learn,20,129,B,36.21088215830707,17.930879211337526,1.8105441079153537,0.28165759201371954,B,764,Correct
1,new_learn,20,130,A,15.222714817431683,39.00635378664006,0.7611357408715841,0.6127103724971642,A,1066,Correct
1,new_learn,20,131,B,64.74146220067668,53.63474172722503,3.2370731100338337,0.8424925529371805,B,1024,Correct
1,new_learn,20,132,B,49.760939051176145,35.80126323172842,2.488046952558807,0.5623649277901619,B,880,Correct
1,new_learn,20,133,A,28.881553786632285,43.99381982332917,1.4440776893316143,0.6910533058016196,A,1084,Correct
1,new_learn,20,134,B,61.36151651812176,30.05008201098552,3.0680758259060883,0.4720255844274145,B,1456,Correct
1,new_learn,20,135,A,38.28403850782935,50.91869971091995,1.9142019253914675,0.7998290647108542,A,1337,Correct
1,new_learn,20,136,A,20.11902125041554,44.101321732590556,1.005951062520777,0.6927419418435318,A,772,Correct
1,new_learn,20,137,A,33.82639811914179,61.74846781208597,1.6913199059570898,0.9699426642443756,A,532,Correct
1,new_learn,20,138,A,47.141877564759135,58.99709851691853,2.357093878237957,0.9267242564193227,A,602,Correct
1,new_learn,20,139,B,70.40370130484649,52.56638360338133,3.5201850652423246,0.8257108227708286,B,1225,Correct
1,new_learn,20,140,B,44.142990462669715,27.54639353472284,2.207149523133486,0.43269773780789317,A,2249,Incorrect
1,new_learn,20,141,B,62.60361482418992,31.498872138078582,3.1301807412094957,0.49478312652675954,B,1274,Correct
1,new_learn,20,142,B,44.98945459960025,35.3918558735081,2.249472729980013,0.5559339720456091,B,973,Correct
1,new_learn,20,143,A,64.45251009151545,88.9223640849182,3.2226255045757726,1.3967892287450796,A,496,Correct
1,new_learn,20,144,A,54.33593483948596,65.70717964753122,2.716796741974298,1.0321259643439442,A,541,Correct
1,new_learn,20,145,B,75.50842997105116,55.14264816655926,3.775421498552558,0.8661786918977461,A,680,Incorrect
1,new_learn,20,146,B,77.6132003053275,54.514039309112725,3.8806600152663746,0.8563045270550687,B,687,Correct
1,new_learn,20,147,B,85.03854022596988,65.14587924405618,4.251927011298494,1.0233090782238734,B,1371,Correct
1,new_learn,20,148,B,77.88165071884059,54.35857257750099,3.8940825359420295,0.8538624613455235,B,634,Correct
1,new_learn,20,149,A,11.701811575588518,33.426143557211304,0.5850905787794259,0.5250566351858641,A,488,Correct
1,new_learn,20,150,B,45.811898363611476,33.54273949942924,2.290594918180574,0.5268881199634153,A,789,Incorrect
1,new_learn,20,151,B,68.58740229314455,54.04618764494383,3.4293701146572277,0.8489555302994549,B,2065,Correct
1,new_learn,20,152,B,46.34541499161867,22.91266058632261,2.3172707495809335,0.35991123086093757,B,880,Correct
1,new_learn,20,153,B,42.26236466620685,33.129827803653704,2.1131182333103427,0.5204021182132668,B,574,Correct
1,new_learn,20,154,A,67.14765666134005,87.91264748074197,3.357382833067003,1.3809286374156409,A,632,Correct
1,new_learn,20,155,A,55.14904076499133,70.5499027601228,2.7574520382495664,1.1081952811133804,A,1504,Correct
1,new_learn,20,156,A,18.02294229069027,47.35255053154748,0.9011471145345135,0.7438121243932451,A,1238,Correct
1,new_learn,20,157,A,54.4306208497124,72.47305835638645,2.72153104248562,1.1384041385780401,A,885,Correct
1,new_learn,20,158,A,26.81431970541253,56.83474863045463,1.3407159852706263,0.8927581438302941,A,1745,Correct
1,new_learn,20,159,A,68.38242608709837,86.55853352419277,3.4191213043549182,1.359658265125549,A,1750,Correct
1,new_learn,20,160,B,45.10245622378635,25.583983420034848,2.2551228111893176,0.4018722718097228,B,967,Correct
1,new_learn,20,161,A,39.802950993470375,64.38260034765985,1.9901475496735188,1.0113195213560793,A,2011,Correct
1,new_learn,20,162,B,65.9143372674045,34.710911795661104,3.295716863370225,0.5452377274832612,B,1321,Correct
1,new_learn,20,163,B,41.5056225710044,22.194707198885446,2.07528112855022,0.3486336454229751,B,623,Correct
1,new_learn,20,164,A,60.50086473012047,87.82637434574843,3.025043236506024,1.3795734621801519,A,679,Correct
1,new_learn,20,165,A,46.56215340932739,59.036657636300745,2.3281076704663692,0.9273456496134909,A,894,Correct
1,new_learn,20,166,B,64.54581253896178,49.484285746968546,3.2272906269480894,0.7772973428540725,B,700,Correct
1,new_learn,20,167,A,42.07579472278993,68.20363649185529,2.1037897361394964,1.0713402167546067,A,671,Correct
1,new_learn,20,168,A,16.742339587921744,33.35734604308554,0.8371169793960873,0.5239759663610505,A,696,Correct
1,new_learn,20,169,A,51.13308590365546,70.98679993060972,2.556654295182773,1.1150580458192596,A,730,Correct
1,new_learn,20,170,B,69.27053768254181,50.28031587486605,3.463526884127091,0.7898013548632671,B,638,Correct
1,new_learn,20,171,A,51.51473601522476,71.52789013344753,2.5757368007612382,1.1235574708500828,A,768,Correct
1,new_learn,20,172,B,82.93747223629455,57.72966193559785,4.146873611814727,0.9068154091554826,B,746,Correct
1,new_learn,20,173,A,40.17476333922463,58.041025577631885,2.0087381669612316,0.911706297807528,A,872,Correct
1,new_learn,20,174,A,28.321131283334864,42.60135842818444,1.4160565641667433,0.6691805733546493,A,540,Correct
1,new_learn,20,175,B,40.97459783355818,14.26931125694593,2.0487298916779086,0.22414181708303735,A,694,Incorrect
1,new_learn,20,176,B,40.578891952566906,26.29771875655576,2.028944597628345,0.4130836002588304,B,1587,Correct
1,new_learn,20,177,B,63.276693387802375,54.306867280320255,3.163834669390119,0.8530502764366501,A,551,Incorrect
1,new_learn,20,178,B,37.49352188885938,28.306036896503,1.874676094442969,0.4446301878314773,A,1350,Incorrect
1,new_learn,20,179,A,17.35713475326971,34.729600670477964,0.8678567376634854,0.5455312916424037,A,820,Correct
1,new_learn,20,180,A,50.396196606507054,70.0972908515424,2.519809830325353,1.101085669878763,A,896,Correct
1,new_learn,20,181,B,31.763083976108256,17.372129564717532,1.5881541988054126,0.27288077308863323,B,601,Correct
1,new_learn,20,182,B,61.15402180229439,36.39401522786541,3.0577010901147195,0.5716758543724851,B,2450,Correct
1,new_learn,20,183,B,65.0276273033002,42.17694943935224,3.2513813651650105,0.6625139725474857,B,1312,Correct
1,new_learn,20,184,B,44.56862029753678,27.078838022898434,2.228431014876839,0.4253533930024284,B,565,Correct
1,new_learn,20,185,B,65.61763692064261,41.28957092129451,3.2808818460321305,0.6485750633810679,B,778,Correct
1,new_learn,20,186,B,47.19954710780835,20.773365922839243,2.3599773553904173,0.3263072688676216,B,507,Correct
1,new_learn,20,187,A,14.491952120757961,36.8283452207278,0.724597606037898,0.5784982939465361,A,595,Correct
1,new_learn,20,188,B,49.83694084798624,27.71123404724728,2.491847042399312,0.43528704652369704,B,1915,Correct
1,new_learn,20,189,A,35.067927397635344,67.49620907157978,1.7533963698817672,1.060227972822179,A,582,Correct
1,new_learn,20,190,A,13.243120492612963,41.50579650687524,0.6621560246306482,0.6519715269369608,A,705,Correct
1,new_learn,20,191,A,54.61573680792686,72.69878307383513,2.730786840396343,1.1419498141483921,A,570,Correct
1,new_learn,20,192,B,69.29982978617923,47.78287022212446,3.4649914893089613,0.7505715702863035,A,588,Incorrect
1,new_learn,20,193,A,24.83057096548152,47.80281389869573,1.2415285482740759,0.7508848448253128,A,1023,Correct
1,new_learn,20,194,A,45.8519426925841,74.70004414046947,2.292597134629205,1.173385549472661,A,646,Correct
1,new_learn,20,195,A,34.004665265702286,60.0495034572291,1.7002332632851143,0.9432553945647292,A,540,Correct
1,new_learn,20,196,B,81.86791554755361,52.37296083675994,4.093395777377681,0.8226725450575548,B,1018,Correct
1,new_learn,20,197,B,40.603480456359705,15.66322437492039,2.0301740228179854,0.24603735313889238,B,1172,Correct
1,new_learn,20,198,A,63.653796087766736,77.09320152169082,3.182689804388337,1.2109771777113065,A,1340,Correct
1,new_learn,20,199,B,31.54368342585042,18.23738675710521,1.5771841712925212,0.28647220128398754,B,737,Correct
1,new_learn,20,200,A,60.69151127723441,80.64957896171161,3.0345755638617207,1.2668406239061156,A,722,Correct
1,new_learn,20,201,B,59.53618028661717,38.9955445467976,2.9768090143308585,0.6125405813547643,A,916,Incorrect
1,new_learn,20,202,A,20.122306695539073,51.31590264058933,1.0061153347769536,0.8060683137400226,A,597,Correct
1,new_learn,20,203,A,49.007740422235585,64.60639805718255,2.4503870211117795,1.014834927556713,A,578,Correct
1,new_learn,20,204,B,79.23751505265591,56.29407902780736,3.9618757526327952,0.8842653255718143,A,443,Incorrect
1,new_learn,20,205,A,62.609621396381286,77.79742587942249,3.130481069819064,1.2220391080549506,A,553,Correct
1,new_learn,20,206,B,58.28526255013662,40.897672830211356,2.914263127506831,0.6424191425615544,B,537,Correct
1,new_learn,20,207,A,58.43663965471325,74.58603117896868,2.9218319827356622,1.1715946380613362,A,716,Correct
1,new_learn,20,208,B,72.01076210591481,50.36882297910284,3.6005381052957404,0.7911916212055712,B,1507,Correct
1,new_learn,20,209,B,38.96908152609111,28.304089793188645,1.9484540763045555,0.4445996028041366,B,605,Correct
1,new_learn,20,210,A,46.04378311876538,59.72744435977184,2.3021891559382692,0.9381965020917615,B,1967,Incorrect
1,new_learn,20,211,A,55.90621442018202,70.08783996791168,2.7953107210091006,1.100937215745842,A,489,Correct
1,new_learn,20,212,B,34.2965759180106,17.58675042887126,1.7148287959005302,0.27625202973929547,B,673,Correct
1,new_learn,20,213,A,12.972618585848728,34.52063550013768,0.6486309292924364,0.5422488744224178,A,720,Correct
1,new_learn,20,214,A,29.67940495759565,52.06186458471859,1.4839702478797825,0.8177858565576928,A,665,Correct
1,new_learn,20,215,B,83.71949393803422,68.07968759627894,4.185974696901711,1.0693932320557906,B,1268,Correct
1,new_learn,20,216,A,37.91746420166171,46.60071768829629,1.8958732100830855,0.7320023617078177,A,1636,Correct
1,new_learn,20,217,B,49.7240382620035,33.30903684885823,2.486201913100175,0.5232171273126236,B,529,Correct
1,new_learn,20,218,B,75.08751807817072,44.5054851831536,3.754375903908536,0.6990905264792238,B,1159,Correct
1,new_learn,20,219,B,56.90405417621172,47.2071059003932,2.845202708810586,0.7415274854695533,B,905,Correct
1,new_learn,20,220,A,25.12680301101402,49.902104917669135,1.256340150550701,0.7838604310400822,A,885,Correct
1,new_learn,20,221,A,38.964754470062715,48.43619461405712,1.9482377235031356,0.7608339658368367,A,805,Correct
1,new_learn,20,222,B,80.2070770563347,61.091804098923916,4.010353852816735,0.959627814758631,B,765,Correct
1,new_learn,20,223,A,37.42937205140135,49.75544299907199,1.8714686025700675,0.7815566710099513,A,595,Correct
1,new_learn,20,224,A,28.28468548291788,47.13624497715464,1.4142342741458942,0.7404144046901889,A,658,Correct
1,new_learn,20,225,B,72.18602677861648,48.3570269269774,3.6093013389308237,0.75959040271618,B,1119,Correct
1,new_learn,20,226,B,56.1766857914809,31.159422455585094,2.808834289574045,0.48945106338283484,B,675,Correct
1,new_learn,20,227,B,39.378417011824034,26.455667790432713,1.9689208505912017,0.41556465788117763,B,969,Correct
1,new_learn,20,228,B,47.981874148767716,24.242712730890567,2.399093707438386,0.3808036410922677,B,588,Correct
1,new_learn,20,229,A,48.96978092143012,59.76737470542013,2.448489046071506,0.9388237264944815,A,421,Correct
1,new_learn,20,230,B,85.2426384299809,63.274175624169885,4.262131921499045,0.9939084265142123,B,826,Correct
1,new_learn,20,231,B,40.14620079140204,27.03930714951131,2.007310039570102,0.4247324434953136,B,2498,Correct
1,new_learn,20,232,B,61.726045879655565,35.20408607938624,3.0863022939827784,0.5529844910167125,B,613,Correct
1,new_learn,20,233,A,17.451531600798255,44.743869932910904,0.8725765800399128,0.7028350653720506,A,598,Correct
1,new_learn,20,234,B,53.33341148323857,28.279034896840606,2.6666705741619285,0.4442060414126192,B,2707,Correct
1,new_learn,20,235,A,56.88629368499322,79.28114893486772,2.844314684249661,1.2453453753096932,A,618,Correct
1,new_learn,20,236,B,68.90616258079613,37.651480364931714,3.445308129039807,0.5914280705562491,B,622,Correct
1,new_learn,20,237,B,70.82457333692045,40.478921961829485,3.5412286668460227,0.6358414193025902,B,546,Correct
1,new_learn,20,238,B,37.14764417974085,19.798613913814922,1.8573822089870424,0.3109959001145081,B,648,Correct
1,new_learn,20,239,B,44.34664974295599,25.429852827122133,2.2173324871477997,0.3994511941177826,B,437,Correct
1,new_learn,20,240,B,61.974554015362855,40.29611997572963,3.098727700768143,0.6329699724196256,B,936,Correct
1,new_learn,20,241,A,49.32815417907718,59.62403525351147,2.466407708953859,0.9365721556490526,A,506,Correct
1,new_learn,20,242,A,28.180107659498866,41.04455282531994,1.4090053829749434,0.6447263281295166,A,681,Correct
1,new_learn,20,243,A,34.44834812277362,46.18630239102393,1.722417406138681,0.7254927414405873,A,580,Correct
1,new_learn,20,244,B,43.54911827615392,29.148713326256033,2.1774559138076963,0.4578669182368043,B,482,Correct
1,new_learn,20,245,B,73.82534301635464,44.46150993994987,3.6912671508177315,0.6983997649742804,B,1040,Correct
1,new_learn,20,246,A,23.766041896743634,43.48713019634383,1.1883020948371816,0.6830942437526831,A,727,Correct
1,new_learn,20,247,B,52.31862907433655,38.0539474534269,2.6159314537168274,0.5977500087988898,A,994,Incorrect
1,new_learn,20,248,A,26.395676544721283,39.97406328160491,1.3197838272360642,0.6279111176981174,A,1257,Correct
1,new_learn,20,249,B,47.26728371352843,17.40724237693327,2.3633641856764216,0.27343232385315247,B,1599,Correct
1,new_learn,20,250,A,63.57104869418687,88.0711134926545,3.1785524347093435,1.3834178157099815,A,2163,Correct
1,new_learn,20,251,A,39.418370465307305,63.09437138739922,1.9709185232653652,0.9910840681675973,A,663,Correct
1,new_learn,20,252,A,54.00961833751157,83.32021887457178,2.700480916875579,1.3087909375592415,A,666,Correct
1,new_learn,20,253,A,10.483617818276098,32.74157522507848,0.5241808909138049,0.5143034609703205,A,758,Correct
1,new_learn,20,254,B,69.27475789495719,49.53983669534371,3.4637378947478594,0.7781699351106491,B,950,Correct
1,new_learn,20,255,A,23.555615374598233,52.9669653876589,1.1777807687299116,0.8320031467240703,A,878,Correct
1,new_learn,20,256,B,64.09095716982932,44.870055263808325,3.204547858491466,0.7048171799147412,B,764,Correct
1,new_learn,20,257,A,28.951562329430466,38.62634969831089,1.4475781164715231,0.606741282236019,A,852,Correct
1,new_learn,20,258,A,39.11271385406249,68.98329849880554,1.9556356927031247,1.0835871189211963,A,1307,Correct
1,new_learn,20,259,B,52.45722394979275,41.71226804677736,2.6228611974896374,0.6552147743016201,B,630,Correct
1,new_learn,20,260,B,30.963845419462316,14.797805942412033,1.5481922709731157,0.23244339218964513,B,617,Correct
1,new_learn,20,261,B,44.01054192524205,22.349733971263955,2.2005270962621024,0.35106880026904536,B,2107,Correct
1,new_learn,20,262,A,44.39427592207161,56.35162432867682,2.2197137961035804,0.8851692450441146,A,572,Correct
1,new_learn,20,263,B,66.65482923395197,58.36407038149554,3.3327414616975988,0.91678067372052,A,478,Incorrect
1,new_learn,20,264,B,76.4978024076305,53.628385172083384,3.824890120381525,0.8423927044025048,B,509,Correct
1,new_learn,20,265,A,54.511336475698776,82.22670827633686,2.7255668237849386,1.2916141132490546,A,800,Correct
1,new_learn,20,266,A,45.570176603380105,66.68281567795457,2.278508830169005,1.047451219272722,A,1033,Correct
1,new_learn,20,267,A,35.92767698144477,58.213984415299535,1.7963838490722384,0.9144231288764787,A,520,Correct
1,new_learn,20,268,A,44.843787169692185,71.01828373771659,2.2421893584846093,1.1155525923048295,A,434,Correct
1,new_learn,20,269,A,27.36998834971864,50.83685081313746,1.3684994174859322,0.7985433852309647,A,1250,Correct
1,new_learn,20,270,B,38.36281756555211,17.284744055958747,1.9181408782776057,0.27150812472689917,B,647,Correct
1,new_learn,20,271,A,32.33066461836013,45.907206373834015,1.6165332309180065,0.7211087114543373,A,816,Correct
1,new_learn,20,272,B,47.76235509071311,40.62847285153243,2.388117754535655,0.6381905591847331,A,1409,Incorrect
1,new_learn,20,273,A,32.054252137020846,41.58132096197228,1.6027126068510424,0.653157862303457,B,985,Incorrect
1,new_learn,20,274,B,65.86908519577283,48.631244997455596,3.293454259788641,0.7638978100946594,B,842,Correct
1,new_learn,20,275,B,35.8674935512664,13.938307368003088,1.79337467756332,0.21894242015397494,B,1062,Correct
1,new_learn,20,276,A,24.030196439661715,35.967866779503986,1.2015098219830858,0.5649819301989305,A,633,Correct
1,new_learn,20,277,A,54.231498511816,77.9012973745043,2.7115749255907997,1.2236707176842827,A,609,Correct
1,new_learn,20,278,B,88.4110124301022,67.57958394340514,4.420550621505111,1.0615376222462818,B,985,Correct
1,new_learn,20,279,A,31.57921222212273,54.33705258746532,1.5789606111061365,0.8535244261325166,B,1309,Incorrect
1,new_learn,20,280,A,40.98746071519777,53.124012494987156,2.0493730357598885,0.8344700369173201,A,1951,Correct
1,new_learn,20,281,A,64.11934366570645,75.17197310373336,3.2059671832853223,1.1807985922926914,A,1562,Correct
1,new_learn,20,282,A,24.616608684737074,56.263977045878796,1.2308304342368537,0.883792484745388,A,770,Correct
1,new_learn,20,283,A,29.14869479947576,52.49367917813673,1.457434739973788,0.8245687843296692,A,603,Correct
1,new_learn,20,284,B,50.38696512989243,36.449829633335014,2.5193482564946215,0.5725525850034241,B,664,Correct
1,new_learn,20,285,A,55.14869353091167,70.89901162600393,2.7574346765455835,1.1136790703551562,A,1174,Correct
1,new_learn,20,286,B,51.813864334807064,38.80994742915221,2.5906932167403536,0.6096252286481533,B,665,Correct
1,new_learn,20,287,B,53.41676444466063,31.69556120868736,2.670838222233032,0.4978727112230891,B,430,Correct
1,new_learn,20,288,B,41.20998312107652,23.67839007314906,2.060499156053826,0.37193928151319294,B,598,Correct
1,new_learn,20,289,A,50.99775434183486,67.14016654021802,2.5498877170917433,1.0546352698177208,A,1236,Correct
1,new_learn,20,290,A,30.586607183672243,43.36409949699943,1.529330359183612,0.6811616820465513,A,1322,Correct
1,new_learn,20,291,A,64.68747699150455,86.30475388201069,3.234373849575228,1.3556719038279996,A,659,Correct
1,new_learn,20,292,A,54.36255313824469,80.97027962034008,2.718127656912235,1.2718781780718587,A,530,Correct
1,new_learn,20,293,A,13.118752431669698,34.192945941097854,0.6559376215834848,0.5371015388657298,A,687,Correct
1,new_learn,20,294,A,59.81374263705602,78.00493259770032,2.990687131852801,1.2252986159635118,A,657,Correct
1,new_learn,20,295,B,62.24599954966895,43.427090420574444,3.1122999774834477,0.6821511411602817,A,886,Incorrect
1,new_learn,20,296,B,50.73760369492265,29.505025414896494,2.5368801847461326,0.46346385543709484,B,462,Correct
1,new_learn,20,297,B,44.35255596276229,21.561604941436865,2.2176277981381145,0.33868889841811717,B,489,Correct
1,new_learn,20,298,A,64.84304593482861,84.23357330707519,3.242152296741431,1.3231378754356236,A,612,Correct
1,new_learn,20,299,B,79.03983467437999,48.43014169198341,3.951991733719,0.7607388867592391,B,888,Correct
1,new_learn,20,300,B,43.60246940926966,25.43192246154206,2.180123470463483,0.39948370385922893,A,768,Incorrect
1,new_learn,20,301,A,40.70043065344756,52.47181119224595,2.035021532672378,0.8242252828105527,A,671,Incorrect
1,new_learn,20,302,A,58.741920076310734,74.53846704482278,2.9370960038155367,1.1708475023893008,A,1302,Correct
1,new_learn,20,303,A,19.36212864375739,33.601578267198235,0.9681064321878695,0.5278123571662621,A,1081,Correct
1,new_learn,20,304,B,37.322155142829814,23.36820217651518,1.8661077571414908,0.3670668614267055,A,1153,Correct
1,new_learn,20,305,B,67.03479654941327,58.67651260044168,3.351739827470664,0.9216885046190825,B,638,Incorrect
1,new_learn,20,306,B,63.48405636086238,43.24281724555036,3.174202818043119,0.6792565848957351,B,1113,Incorrect
1,new_learn,20,307,A,46.459176046946055,63.16478069617439,2.3229588023473027,0.9921900550035593,A,2911,Incorrect
1,new_learn,20,308,A,56.9964497321095,66.55367215096594,2.849822486605475,1.045422637494491,B,1807,Correct
1,new_learn,20,309,B,64.91072708937175,36.0635092802566,3.2455363544685873,0.5664842790876075,B,837,Correct
1,new_learn,20,310,B,83.68087752778041,58.98672959063717,4.184043876389021,0.9265613817061669,B,1327,Correct
1,new_learn,20,311,B,64.91820591463622,42.82539188452092,3.2459102957318113,0.6726996826575744,B,678,Correct
1,new_learn,20,312,A,31.4319513519575,56.16835182355991,1.571597567597875,0.8822904072657134,A,1327,Correct
1,new_learn,20,313,A,57.87288940458429,68.05553367856577,2.893644470229215,1.0690138232035749,A,625,Incorrect
1,new_learn,20,314,A,33.10980906966829,58.96800901399502,1.6554904534834145,0.9262673195759172,A,2743,Correct
1,new_learn,20,315,A,38.359485304021035,55.689240967422016,1.9179742652010519,0.8747645515362238,A,720,Correct
1,new_learn,20,316,A,39.896734013235495,56.33832962547336,1.9948367006617747,0.8849604123345365,A,541,Correct
1,new_learn,20,317,A,23.85508983872971,36.141033716463284,1.1927544919364856,0.5677020300839104,A,1452,Incorrect
1,new_learn,20,318,A,58.52499095070296,73.74908525291443,2.9262495475351478,1.1584479221976165,A,2695,Correct
1,new_learn,20,319,A,49.222783557049624,63.86485901954425,2.4611391778524814,1.0031868595917404,A,540,Incorrect
1,new_learn,20,320,B,68.08118136052805,42.72902367181319,3.4040590680264025,0.6711859343121634,B,908,Correct
1,new_learn,20,321,B,45.63361151188925,33.593229421366594,2.2816805755944625,0.5276812138026089,B,678,Incorrect
1,new_learn,20,322,B,70.42573366396357,41.44162657829808,3.5212866831981784,0.6509635480559639,B,4555,Correct
1,new_learn,20,323,B,66.04633351695522,38.471558670130754,3.3023166758477607,0.6043098304511574,B,616,Correct
1,new_learn,20,324,A,51.28594793794492,71.61660508711581,2.564297396897246,1.1249510020836222,A,795,Incorrect
1,new_learn,20,325,B,54.81921544390225,39.874010977341676,2.7409607721951126,0.6263394997778768,B,950,Incorrect
1,new_learn,20,326,B,43.58353890709532,22.549202219553,2.179176945354766,0.3542020401862918,B,720,Correct
1,new_learn,20,327,A,31.067589931934556,48.02719889652236,1.5533794965967278,0.7544094761290523,A,654,Incorrect
1,new_learn,20,328,A,46.788882870025894,56.083997310273624,2.3394441435012947,0.8809653696695268,A,1201,Incorrect
1,new_learn,20,329,B,80.58009056524328,64.31965211061761,4.029004528262164,1.0103307327608375,B,807,Incorrect
1,new_learn,20,330,B,63.45312322000625,39.25307992688668,3.1726561610003126,0.6165859376454008,B,891,Incorrect
1,new_learn,20,331,A,24.785618050692896,52.688420038788365,1.239280902534645,0.8276277666155538,B,1275,Correct
1,new_learn,20,332,A,29.336089818359586,41.92045056859121,1.4668044909179792,0.658484897707301,B,544,Correct
1,new_learn,20,333,A,60.54291578305478,74.671390361297,3.027145789152739,1.1729354569619317,A,1904,Correct
1,new_learn,20,334,B,73.60762233618019,57.886676503096,3.680381116809009,0.9092817882142765,A,1108,Correct
1,new_learn,20,335,A,21.618420328467455,47.53594445431204,1.0809210164233727,0.7466928693955958,B,951,Incorrect
1,new_learn,20,336,A,48.029858362867095,79.191327344716,2.401492918143355,1.2439344610709215,A,1366,Correct
1,new_learn,20,337,B,87.97515651534303,66.04105857619905,4.398757825767151,1.0373705222914007,B,922,Correct
1,new_learn,20,338,A,46.692316709365286,71.72592353341237,2.3346158354682642,1.126668172222558,A,1215,Correct
1,new_learn,20,339,B,78.05638994602793,54.648617314843264,3.9028194973013965,0.8584184734257577,B,601,Correct
1,new_learn,20,340,B,55.894179266096096,42.115653234549,2.794708963304805,0.6615511340139718,B,671,Correct
1,new_learn,20,341,B,73.98051673787509,42.399660000500134,3.6990258368937545,0.6660123018613812,B,711,Correct
1,new_learn,20,342,A,40.092676638994995,57.66440363335599,2.0046338319497496,0.9057903341409387,A,1728,Incorrect
1,new_learn,20,343,A,21.3722213859269,43.99290351801207,1.068611069296345,0.6910389125113565,B,995,Incorrect
1,new_learn,20,344,B,54.88708557860728,30.92539817795258,2.7443542789303637,0.485775018625975,B,641,Incorrect
1,new_learn,20,345,A,31.213031126587552,57.441560367928986,1.5606515563293777,0.9022899203131015,B,1743,Correct
1,new_learn,20,346,A,31.66475380935504,57.62530865217352,1.5832376904677519,0.9051762316125634,B,666,Incorrect
1,new_learn,20,347,B,67.67909400750506,38.4799792772034,3.383954700375253,0.6044421010377483,B,883,Correct
1,new_learn,20,348,A,21.05316244244292,35.843875834006184,1.052658122122146,0.5630342849814927,A,1060,Incorrect
1,new_learn,20,349,A,14.309793986805683,41.466990682610174,0.7154896993402842,0.6513619664748227,A,956,Correct
1,new_learn,20,350,A,20.33354478354555,32.79554449828501,1.0166772391772774,0.5151512083314468,A,589,Correct
1,new_learn,20,351,B,66.76335439576971,43.88791914334719,3.3381677197884856,0.6893898218104119,B,704,Correct
1,new_learn,20,352,B,45.170071684360344,34.87519768506812,2.2585035842180172,0.5478183241995088,B,523,Correct
1,new_learn,20,353,B,73.64253770943458,63.01280874013341,3.682126885471729,0.989802885100309,A,717,Correct
1,new_learn,20,354,A,34.557578692439186,42.43704703685925,1.7278789346219594,0.6665995760552075,A,3008,Correct
1,new_learn,20,355,B,49.40749304576256,34.28414502286776,2.4703746522881276,0.5385340906922422,B,1986,Incorrect
1,new_learn,20,356,A,24.483965827919654,37.69036216004826,1.2241982913959828,0.5920388243657316,A,939,Correct
1,new_learn,20,357,B,58.89245964573378,48.29446451888796,2.9446229822866887,0.7586076747079568,A,1627,Correct
1,new_learn,20,358,A,58.90653378105992,78.25855199980957,2.945326689052996,1.2292824602158825,A,661,Incorrect
1,new_learn,20,359,B,48.05519744845545,19.38990799214419,2.402759872422773,0.304575962509511,B,885,Incorrect
1,new_learn,20,360,B,45.1318695229686,22.288044699777107,2.25659347614843,0.3500997874585034,A,926,Correct
1,new_learn,20,361,B,66.90092115932168,37.4610655136955,3.3450460579660843,0.5884370410673587,A,1004,Incorrect
1,new_learn,20,362,B,35.46235147125525,12.996698135365548,1.7731175735627627,0.20415165691494283,A,855,Correct
1,new_learn,20,363,B,71.88181696901754,39.838776460845004,3.594090848450877,0.6257860372869832,B,852,Correct
1,new_learn,20,364,A,43.23635523491809,74.88222120199845,2.1618177617459047,1.1762471800634207,B,1084,Correct
1,new_learn,20,365,A,32.64976496913658,45.540077282405754,1.6324882484568288,0.7153418611715867,B,669,Incorrect
1,new_learn,20,366,A,25.607775925484955,51.48207959678032,1.2803887962742477,0.8086786152638502,A,633,Correct
1,new_learn,20,367,B,57.00379671953424,32.00824661141796,2.850189835976712,0.5027843620436052,B,749,Incorrect
1,new_learn,20,368,B,35.45700960621767,14.880207534854975,1.7728504803108833,0.2337377533769594,A,2214,Correct
1,new_learn,20,369,B,56.94789197900861,32.69519148366759,2.8473945989504306,0.5135748668640083,A,920,Correct
1,new_learn,20,370,B,58.1276230999072,43.39721380373435,2.9063811549953598,0.681681840360387,A,1607,Incorrect
1,new_learn,20,371,B,87.2921120747836,68.39473278022176,4.3646056037391805,1.0743419502329083,B,1058,Correct
1,new_learn,20,372,B,65.07983322497714,34.45250133940288,3.253991661248857,0.541178625528303,B,2017,Incorrect
1,new_learn,20,373,B,87.30684945169025,67.9893429487655,4.365342472584513,1.0679741016511934,B,653,Correct
1,new_learn,20,374,B,56.47925003581944,46.53412886977006,2.8239625017909717,0.7309563869923517,A,622,Correct
1,new_learn,20,375,B,78.52864938079887,65.5798461192064,3.9264324690399435,1.0301258139582394,B,697,Incorrect
1,new_learn,20,376,B,44.84964105822693,28.038016803405256,2.2424820529113463,0.4404201380540257,A,929,Incorrect
1,new_learn,20,377,B,73.75922324467732,40.80342099725086,3.6879611622338655,0.640938638231474,A,737,Incorrect
1,new_learn,20,378,B,79.20303213187505,60.387649164487414,3.9601516065937523,0.9485669749135573,B,2180,Incorrect
1,new_learn,20,379,A,49.85254907908245,71.7077452133876,2.4926274539541224,1.1263826278393358,A,560,Incorrect
1,new_learn,20,380,B,46.38029617617811,28.135763797261994,2.3190148088089058,0.4419555442430797,B,3028,Correct
1,new_learn,20,381,A,44.8958637775114,52.83646837186026,2.2447931888755703,0.8299533043933284,B,689,Incorrect
1,new_learn,20,382,B,56.20871975597158,39.875368840365226,2.810435987798579,0.6263608290403737,B,1255,Correct
1,new_learn,20,383,B,41.95185646656074,32.298521468696336,2.097592823328037,0.5073439888393432,A,1005,Correct
1,new_learn,20,384,A,61.490482884576586,80.64235254008545,3.0745241442288296,1.2667271115406533,A,532,Incorrect
1,new_learn,20,385,B,77.97886282840132,51.81324106904648,3.898943141420066,0.8138804875059669,B,758,Incorrect
1,new_learn,20,386,A,32.732033548996235,41.305214711178294,1.6366016774498118,0.6488207954579339,A,1154,Incorrect
1,new_learn,20,387,B,46.91763201326717,35.36390804688129,2.3458816006633585,0.5554949686115361,B,1484,Incorrect
1,new_learn,20,388,B,73.77661588047057,41.51768206179172,3.6888307940235285,0.6521582247970079,A,1424,Incorrect
1,new_learn,20,389,B,45.703908782412256,33.697190722591984,2.285195439120613,0.5293142341035455,A,1883,Correct
1,new_learn,20,390,B,61.51280890545672,36.11536546568148,3.0756404452728363,0.5672988341434773,A,688,Incorrect
1,new_learn,20,391,A,48.56706237959909,61.944441246440014,2.4283531189799548,0.9730210077527025,A,1112,Correct
1,new_learn,20,392,A,29.62339571100186,39.36061787829415,1.481169785550093,0.6182751398360199,A,913,Incorrect
1,new_learn,20,393,B,88.25688163021718,67.59881537549745,4.412844081510859,1.0618397088751776,B,962,Correct
1,new_learn,20,394,B,61.07995662971722,48.29116337348111,3.053997831485861,0.7585558204371639,B,529,Incorrect
1,new_learn,20,395,A,20.734769927422885,50.22504698399981,1.0367384963711443,0.7889331931556801,A,954,Incorrect
1,new_learn,20,396,A,50.32564661262554,60.364228730695416,2.516282330631277,0.9481990875998332,B,667,Correct
1,new_learn,20,397,A,20.1837000804,33.71417619273251,1.00918500402,0.5295810412446018,B,538,Incorrect
1,new_learn,20,398,A,28.61471865843894,48.28245348970084,1.430735932921947,0.7584190059026753,A,992,Incorrect
1,new_learn,20,399,A,26.371960736012575,58.52099580746517,1.3185980368006287,0.9192456525474583,A,873,Correct
1,new_learn,20,400,A,64.35987101744598,82.54369726610211,3.217993550872299,1.2965933646566314,B,2213,Correct
1,new_learn,20,401,A,50.57586759831053,75.32176759871251,2.5287933799155264,1.1831515587175647,B,506,Incorrect
1,new_learn,20,402,B,49.74270778261764,33.96267684498386,2.487135389130882,0.5334844803622273,A,917,Incorrect
1,new_learn,20,403,B,82.50155473230221,55.68354135354169,4.12507773661511,0.8746750222107502,A,1520,Incorrect
1,new_learn,20,404,B,33.53896414773936,17.30800312497103,1.676948207386968,0.27187347732859085,A,2376,Correct
1,new_learn,20,405,A,22.301892238052794,48.51921848452623,1.1150946119026397,0.7621381017445286,A,801,Incorrect
1,new_learn,20,406,B,67.5064601374899,40.395736792009764,3.375323006874495,0.634534749710624,A,1624,Correct
1,new_learn,20,407,A,63.37991982380116,80.88855995588081,3.1689959911900583,1.2705945285842635,A,607,Incorrect
1,new_learn,20,408,B,38.119767639688426,16.275865798110246,1.9059883819844214,0.2556607021107826,A,1366,Correct
1,new_learn,20,409,B,77.15371354023789,52.351763542180436,3.8576856770118946,0.8223395787329202,B,5319,Correct
1,new_learn,20,410,A,66.3518695442135,81.84572391337962,3.317593477210675,1.2856296248700592,B,579,Incorrect
1,new_learn,20,411,B,66.71183418732542,41.08438524211321,3.335591709366271,0.6453520142693789,B,1033,Correct
1,new_learn,20,412,B,70.73955085485379,38.57379004250952,3.5369775427426897,0.6059156770933152,B,606,Correct
1,new_learn,20,413,B,63.036718511889895,30.571711896995538,3.151835925594495,0.4802193275163243,B,1030,Incorrect
1,new_learn,20,414,A,34.88938037509263,50.13755001748015,1.7444690187546315,0.7875587940195323,A,1214,Correct
1,new_learn,20,415,B,60.62576561391811,41.984879329070154,3.0312882806959056,0.6594969423103038,B,640,Correct
1,new_learn,20,416,B,44.32827922859021,25.45600833721226,2.216413961429511,0.3998620439095328,B,588,Incorrect
1,new_learn,20,417,A,32.42882163416187,61.58889214786234,1.6214410817080935,0.9674360555722921,B,1740,Correct
1,new_learn,20,418,A,23.748710712951937,35.71940598156942,1.1874355356475967,0.5610791171114491,A,616,Correct
1,new_learn,20,419,A,31.04564242073223,61.08490345566441,1.5522821210366116,0.9595194197077853,B,1322,Incorrect
1,new_learn,20,420,A,53.169008513523394,67.5873833246336,2.65845042567617,1.0616601346401313,A,1447,Incorrect
1,new_learn,20,421,B,89.19092885263746,65.5397392624965,4.459546442631873,1.0294958169262476,B,2092,Incorrect
1,new_learn,20,422,B,56.571160085538466,40.96152745236814,2.828558004276923,0.6434221686208819,A,989,Correct
1,new_learn,20,423,A,51.27700759718264,69.52471182218935,2.5638503798591317,1.0920916195176875,A,550,Incorrect
1,new_learn,20,424,B,38.72430242852672,18.520522383015155,1.9362151214263361,0.2909196852956287,A,2298,Incorrect
1,new_learn,20,425,A,66.90938267852084,83.45827198579691,3.3454691339260423,1.310959470759392,B,712,Incorrect
1,new_learn,20,426,A,43.518310771950894,60.15470363504191,2.1759155385975446,0.9449078750935945,A,1316,Incorrect
1,new_learn,20,427,A,50.13476799429709,58.33063110772403,2.5067383997148545,0.9162554108364104,B,626,Incorrect
1,new_learn,20,428,B,56.48978083413297,46.73778028542674,2.824489041706648,0.7341553359489523,B,800,Correct
1,new_learn,20,429,B,68.69471739137418,60.319541188275956,3.4347358695687094,0.9474971373249734,A,837,Incorrect
1,new_learn,20,430,A,44.17758478731653,68.47793895260783,2.2088792393658268,1.0756489497324153,B,590,Correct
1,new_learn,20,431,B,76.74261363546428,64.64912661725006,3.837130681773214,1.0155061062087456,B,760,Correct
1,new_learn,20,432,B,50.45248065371937,20.41632728193309,2.5226240326859686,0.32069891901102926,A,532,Incorrect
1,new_learn,20,433,A,49.962589498934385,67.75764976050165,2.4981294749467193,1.064334673560511,B,462,Correct
1,new_learn,20,434,A,42.640731636248944,55.283560515172766,2.1320365818124474,0.8683921378937677,B,575,Correct
1,new_learn,20,435,A,28.749383254701378,42.537366328932066,1.4374691627350689,0.6681753878101541,B,1183,Incorrect
1,new_learn,20,436,A,31.890296557312006,62.86983782693651,1.5945148278656003,0.9875571032474271,A,769,Correct
1,new_learn,20,437,B,39.58856041673413,31.20386643336859,1.9794280208367068,0.49014918775333943,B,1338,Incorrect
1,new_learn,20,438,B,68.77313204263835,44.25091946505759,3.4386566021319176,0.6950918175300925,B,746,Correct
1,new_learn,20,439,B,39.94515537941842,17.133496842607485,1.9972577689709212,0.26913233905519796,A,915,Incorrect
1,new_learn,20,440,A,26.64516438590926,47.38890269396573,1.332258219295463,0.7443831428252214,A,601,Incorrect
1,new_learn,20,441,A,40.76352810478886,56.2379561200129,2.038176405239443,0.8833837489976883,B,713,Incorrect
1,new_learn,20,442,B,50.58064357600809,25.15059154543851,2.5290321788004047,0.3950645681629359,B,4854,Incorrect
1,new_learn,20,443,A,52.676020693520925,65.2721975728385,2.633801034676046,1.0252932818924547,B,696,Incorrect
1,new_learn,20,444,A,57.556252744599234,79.917898561482,2.8778126372299617,1.255347415055431,A,735,Incorrect
1,new_learn,20,445,B,67.19605832262104,58.204485232603304,3.3598029161310525,0.9142739160636106,B,738,Correct
1,new_learn,20,446,A,35.18797840372379,58.39118196956131,1.7593989201861893,0.9172065415499929,A,3028,Correct
1,new_learn,20,447,A,47.91025683062576,63.049957181602494,2.3955128415312883,0.990386411454367,B,689,Correct
1,new_learn,20,448,B,74.19430393217124,46.77960542003854,3.709715196608562,0.7348123236271117,A,1747,Incorrect
1,new_learn,20,449,B,36.8907199779681,12.601394047723197,1.844535998898405,0.19794223482658674,A,976,Correct
1,new_learn,20,450,A,19.881819985392962,44.2611590061108,0.9940909992696482,0.6952526598648371,B,1776,Incorrect
1,new_learn,20,451,B,55.674153433059395,42.66309282435048,2.78370767165297,0.6701502949819943,B,1690,Correct
1,new_learn,20,452,A,24.490742933003137,50.20233575694176,1.224537146650157,0.7885764460352822,A,757,Correct
1,new_learn,20,453,B,51.155455667699286,34.19452593942238,2.5577727833849644,0.5371263574213748,A,962,Incorrect
1,new_learn,20,454,A,55.77250353302293,77.95792640578647,2.7886251766511463,1.2245602444275623,A,1844,Correct
1,new_learn,20,455,B,38.06934859059294,26.37697588791438,1.903467429529647,0.41432856836693466,B,940,Incorrect
1,new_learn,20,456,B,69.92365184717315,61.246392475886786,3.496182592358657,0.9620560833056155,A,763,Incorrect
1,new_learn,20,457,B,63.77996567976768,45.326261552133545,3.188998283988384,0.7119832515343612,B,633,Incorrect
1,new_learn,20,458,B,66.26958272059065,41.753961405017726,3.313479136029532,0.6558696920413774,B,804,Incorrect
1,new_learn,20,459,A,17.826827818284443,34.009786616938946,0.8913413909142222,0.5342244789296593,A,1779,Correct
1,new_learn,20,460,A,51.67226380226599,71.34136546005323,2.5836131901132995,1.120627548131839,A,1435,Incorrect
1,new_learn,20,461,B,51.462372183321634,24.69554809938256,2.5731186091660816,0.38791676242696815,B,944,Incorrect
1,new_learn,20,462,A,48.40902420104061,75.9075324863599,2.4204512100520303,1.192352732056384,A,1288,Correct
1,new_learn,20,463,B,61.61087801045408,50.59008823936841,3.080543900522704,0.7946672477862959,A,599,Incorrect
1,new_learn,20,464,A,20.625272012908283,40.252027019476046,1.0312636006454141,0.6322773618824189,A,951,Correct
1,new_learn,20,465,B,53.581754242415776,38.82245755749438,2.6790877121207886,0.6098217372846295,B,585,Correct
1,new_learn,20,466,A,23.480725391219398,47.7264995810519,1.1740362695609698,0.7496861023269449,A,620,Incorrect
1,new_learn,20,467,B,70.48218932527115,51.53432346821691,3.5241094662635577,0.8094992600773515,B,607,Incorrect
1,new_learn,20,468,B,46.41682459172574,22.747788427155438,2.320841229586287,0.35732142504083214,B,1377,Incorrect
1,new_learn,20,469,A,36.89311884153505,67.70740458529872,1.8446559420767525,1.0635454241940316,A,1647,Incorrect
1,new_learn,20,470,A,54.45487575022267,66.20353963622267,2.722743787511133,1.0399227688139892,B,3013,Incorrect
1,new_learn,20,471,B,69.78337996137844,56.47678862249181,3.489168998068922,0.8871353211738194,A,1420,Incorrect
1,new_learn,20,472,A,50.50049444162131,79.23356800883447,2.5250247220810653,1.2445979758713082,A,1042,Correct
1,new_learn,20,473,A,38.89222714185353,49.904672302544725,1.9446113570926766,0.7839007594274026,B,1175,Incorrect
1,new_learn,20,474,A,44.49182340484103,76.69347091288668,2.2245911702420513,1.2046982239911364,A,632,Correct
1,new_learn,20,475,B,43.57300533872399,31.158926805647454,2.1786502669361996,0.48944327773182056,B,1319,Correct
1,new_learn,20,476,A,30.81598728270923,44.55398136504674,1.5407993641354614,0.699852302723037,B,781,Correct
1,new_learn,20,477,A,29.029269641159523,55.65751109075435,1.4514634820579762,0.8742661397990314,A,1223,Correct
1,new_learn,20,478,B,84.22019000269779,62.28020927437442,4.21100950013489,0.978295239602048,B,1154,Incorrect
1,new_learn,20,479,A,37.824545451574174,50.18801579747926,1.8912272725787087,0.7883515086380465,A,879,Correct
1,new_learn,20,480,A,13.303568166870384,34.20136900461961,0.6651784083435192,0.5372338480381331,A,1431,Incorrect
1,new_learn,20,481,B,83.20721552010768,62.69095858728646,4.160360776005384,0.9847472747216056,A,648,Incorrect
1,new_learn,20,482,A,27.72079941029999,50.32209515440539,1.3860399705149995,0.7904576222516326,B,2851,Correct
1,new_learn,20,483,B,39.57993421693215,17.57239608694956,1.9789967108466076,0.2760265522636538,B,707,Correct
1,new_learn,20,484,B,78.15152311254967,61.64075286812157,3.9075761556274835,0.9682506818611736,A,1614,Correct
1,new_learn,20,485,B,77.81868232456979,65.91736275549029,3.8909341162284896,1.0354275128833086,A,585,Correct
1,new_learn,20,486,A,11.910659190023022,33.60051686531777,0.5955329595011511,0.5277956847045112,A,1026,Incorrect
1,new_learn,20,487,A,56.19177058524113,71.90385245998259,2.809588529262056,1.1294630732654283,A,946,Incorrect
1,new_learn,20,488,A,29.59738400957672,50.11811510388514,1.479869200478836,0.7872535111106659,B,872,Correct
1,new_learn,20,489,A,59.224274924518454,69.4490656041962,2.9612137462259227,1.090903371504092,A,823,Incorrect
1,new_learn,20,490,A,58.61741732256093,70.36941357329054,2.9308708661280467,1.1053601635963572,B,971,Correct
1,new_learn,20,491,A,40.93483265808448,57.57609109826046,2.046741632904224,0.9044031240835587,B,658,Correct
1,new_learn,20,492,B,81.22536089151644,52.22937460354342,4.061268044575822,0.8204170977804065,B,820,Correct
1,new_learn,20,493,A,59.4627955279706,75.74178129102985,2.9731397763985297,1.1897491183685212,A,815,Correct
1,new_learn,20,494,B,83.27693959602222,63.71278271249703,4.163846979801111,1.000798050546717,B,1383,Incorrect
1,new_learn,20,495,A,31.924089946292497,61.30663452785856,1.5962044973146248,0.963002363245174,B,1416,Incorrect
1,new_learn,20,496,B,74.47247092138329,59.8007600564737,3.723623546069165,0.9393481423625186,A,970,Correct
1,new_learn,20,497,B,58.497272738411745,45.40566508091758,2.924863636920587,0.7132305192478463,B,698,Incorrect
1,new_learn,20,498,A,44.467674542652716,72.06420427405233,2.223383727132636,1.1319818736707847,A,661,Incorrect
1,new_learn,20,499,A,59.72511402231959,72.07449463518189,2.9862557011159794,1.132143514285422,B,1393,Correct
1,new_learn,20,500,B,69.30603462174005,56.464534141036815,3.465301731087003,0.8869428282292566,B,747,Correct
1,new_learn,20,501,A,45.774218553302966,77.76329151608184,2.2887109276651483,1.221502926729421,A,826,Correct
1,new_learn,20,502,A,44.14642061148725,60.308268156563024,2.2073210305743625,0.9473200609569082,B,1433,Correct
1,new_learn,20,503,B,63.10512482072052,34.4729064301952,3.155256241036026,0.541499147944948,B,983,Incorrect
1,new_learn,20,504,A,21.264343343521485,48.21445917343419,1.0632171671760744,0.7573509536803292,B,1323,Correct
1,new_learn,20,505,B,70.9861027990604,56.627064735270565,3.54930513995302,0.8894958528333984,B,699,Correct
1,new_learn,20,506,B,39.53944584445803,25.85195527583175,1.9769722922229016,0.40608156387742456,A,1187,Incorrect
1,new_learn,20,507,A,36.53501579238147,61.30558302088692,1.8267507896190736,0.9629858462122877,B,514,Correct
1,new_learn,20,508,B,69.92098887392173,37.11000575845339,3.4960494436960863,0.5829226073271604,A,1122,Incorrect
1,new_learn,20,509,B,47.49861787429782,18.149772311014555,2.374930893714891,0.2850959567830538,A,853,Incorrect
1,new_learn,20,510,A,17.161823386850575,36.36387524083497,0.8580911693425287,0.5712024165633146,A,870,Correct
1,new_learn,20,511,B,84.31018263907006,61.86016527457102,4.215509131953503,0.9716972038822137,B,646,Correct
1,new_learn,20,512,A,29.224335937130718,51.537374283954776,1.461216796856536,0.8095471821788992,B,612,Correct
1,new_learn,20,513,A,48.25346448864024,63.34364720871344,2.412673224432012,0.9949996836123889,B,673,Incorrect
1,new_learn,20,514,A,63.24958623552827,87.22855705406437,3.162479311776414,1.3701829701214339,A,681,Incorrect
1,new_learn,20,515,B,59.33390324091489,27.3292698246918,2.9666951620457445,0.42928716654612487,B,698,Correct
1,new_learn,20,516,B,49.070191421667936,36.29925120838408,2.453509571083397,0.5701873046353493,B,576,Correct
1,new_learn,20,517,B,69.87514301507078,60.359317197461635,3.4937571507535385,0.9481219374162078,B,1359,Correct
1,new_learn,20,518,B,61.617967452173986,31.429770937711226,3.080898372608699,0.49369768740961784,B,570,Correct
1,new_learn,20,519,B,36.290983490829134,11.329961605576624,1.8145491745414568,0.17797062072766967,B,637,Correct
1,new_learn,20,520,B,86.7129239236322,65.74291663982896,4.33564619618161,1.0326873197062643,A,1140,Correct
1,new_learn,20,521,B,56.042907410718044,48.77138312961515,2.8021453705359023,0.7660990947270606,B,1544,Incorrect
1,new_learn,20,522,B,71.23029449322799,52.92390933919435,3.561514724661399,0.8313268238963261,A,698,Incorrect
1,new_learn,20,523,A,32.05477823189047,61.86901786399272,1.6027389115945232,0.971836260031676,A,661,Correct
1,new_learn,20,524,B,49.103632400264786,25.80297886957269,2.4551816200132395,0.4053122442869111,B,603,Incorrect
1,new_learn,20,525,A,52.452401714345406,74.35181269495676,2.6226200857172706,1.1679155427178023,A,744,Incorrect
1,new_learn,20,526,A,29.462310315997048,57.548317893040725,1.4731155157998523,0.9039668635961339,B,1244,Correct
1,new_learn,20,527,B,50.174416455607336,33.06526924389321,2.508720822780367,0.5193880347279172,B,814,Correct
1,new_learn,20,528,B,54.45456326558925,29.155962724983947,2.7227281632794624,0.457980791525737,B,566,Correct
1,new_learn,20,529,A,45.52960606036978,64.58871483692046,2.2764803030184892,1.014557160182377,B,525,Incorrect
1,new_learn,20,530,A,50.94158922213183,61.375168576816954,2.5470794611065917,0.9640788935688163,A,732,Correct
1,new_learn,20,531,A,45.41032136020229,74.0515472929159,2.2705160680101146,1.1631989848119086,A,567,Correct
1,new_learn,20,532,A,46.738351353340015,70.80741524950852,2.3369175676670007,1.1122402778376892,A,485,Correct
1,new_learn,20,533,B,85.47170417556711,57.41702062089318,4.273585208778355,0.9019044508680584,B,2138,Incorrect
1,new_learn,20,534,A,42.39342583664293,70.25892621724081,2.1196712918321468,1.1036246322659553,B,1085,Correct
1,new_learn,20,535,A,60.013791829710044,71.03640252961507,3.0006895914855023,1.1158372016224305,B,739,Incorrect
1,new_learn,20,536,B,79.94036498158168,60.96863195695371,3.997018249079084,0.9576930312769283,B,552,Correct
1,new_learn,20,537,A,19.284789801575048,41.84070675865553,0.9642394900787523,0.6572322848699851,A,647,Incorrect
1,new_learn,20,538,A,21.878016809422757,36.94041060471298,1.093900840471138,0.5802586128817839,B,738,Correct
1,new_learn,20,539,A,62.37362478930244,83.59416755518902,3.118681239465122,1.3130941133716805,A,853,Incorrect
1,new_learn,20,540,A,19.094461129377446,37.7052159370851,0.9547230564688723,0.5922721469498167,B,779,Correct
1,new_learn,20,541,B,47.11933120475761,25.743225247682425,2.35596656023788,0.4043736365891319,B,563,Correct
1,new_learn,20,542,B,68.59424635283426,44.326759546938334,3.4297123176417132,0.6962831107505134,B,931,Correct
1,new_learn,20,543,A,21.52934050555956,44.1323524629,1.076467025277978,0.6932293714154103,B,778,Incorrect
1,new_learn,20,544,A,29.089113338859995,43.35478110263993,1.4544556669429998,0.681015309050236,A,953,Incorrect
1,new_learn,20,545,B,48.8014377819826,24.095625068231442,2.44007188909913,0.3784931934900498,B,963,Correct
1,new_learn,20,546,A,26.04879218769972,46.51844617630863,1.3024396093849862,0.7307100438195169,A,568,Incorrect
1,new_learn,20,547,B,52.665771965886826,21.08872704359831,2.633288598294341,0.33126094976864423,B,347,Correct
1,new_learn,20,548,A,20.579337097848487,44.16693739111722,1.0289668548924242,0.693772630197471,B,728,Incorrect
1,new_learn,20,549,A,49.555928082380376,78.11020726232132,2.477796404119019,1.2269522665284238,A,595,Correct
1,new_learn,20,550,B,66.59234549847741,42.030294679827406,3.3296172749238706,0.6602103249717997,B,627,Incorrect
1,new_learn,20,551,B,42.1489199427482,33.382764495143576,2.1074459971374098,0.5243752384723062,B,532,Correct
1,new_learn,20,552,A,42.08418595222848,61.6565346388855,2.1042092976114244,0.9684985813366366,B,1141,Correct
1,new_learn,20,553,A,53.01397385127526,70.55992716948465,2.650698692563763,1.108352744167419,A,465,Incorrect
1,new_learn,20,554,B,42.96376506342553,18.25127934892579,2.148188253171276,0.2866904256060019,B,460,Correct
1,new_learn,20,555,B,46.76803805543697,26.37635333146946,2.338401902771848,0.4143187892731656,B,390,Incorrect
1,new_learn,20,556,B,38.594030083210725,27.626857768055665,1.9297015041605363,0.4339616670294689,A,998,Correct
1,new_learn,20,557,A,31.784324803786703,40.16159420953288,1.5892162401893353,0.6308568466256144,B,1554,Incorrect
1,new_learn,20,558,A,62.13644763527837,74.74408534480611,3.106822381763919,1.174077347092657,B,750,Correct
1,new_learn,20,559,A,46.334932196010605,68.14927341024548,2.3167466098005303,1.0704862834655473,B,538,Incorrect
1,new_learn,20,560,B,39.24155953990271,17.874222452448247,1.9620779769951355,0.2807676297262058,A,590,Incorrect
1,new_learn,20,561,A,33.71077640943824,56.090910971327936,1.685538820471912,0.8810739692034149,A,634,Correct
1,new_learn,20,562,B,40.373545070872574,14.0510328612555,2.0186772535436286,0.22071310806134528,B,566,Incorrect
1,new_learn,20,563,B,58.18598341385917,38.10900275707299,2.9092991706929587,0.5986148154862685,A,1653,Correct
1,new_learn,20,564,A,23.50320964290159,37.699418250198676,1.1751604821450796,0.5921810770971657,A,436,Correct
1,new_learn,20,565,A,55.03568968010165,78.46104726110909,2.751784484005082,1.2324632483423095,A,732,Correct
1,new_learn,20,566,B,51.948063881961644,20.605012712124704,2.597403194098082,0.32366278281767635,B,959,Correct
1,new_learn,20,567,B,85.96803478629582,63.317586881597265,4.298401739314791,0.9945903289512971,A,575,Correct
1,new_learn,20,568,B,85.67718502130685,63.73218475088847,4.283859251065342,1.0011028170530933,A,583,Incorrect
1,new_learn,20,569,A,18.415998149843666,35.13084444532391,0.9207999074921832,0.5518340141191769,B,718,Correct
1,new_learn,20,570,B,41.04975909894554,24.771210172249425,2.052487954947277,0.38910525948833774,B,684,Incorrect
1,new_learn,20,571,A,31.822981408925813,58.80167901446442,1.5911490704462907,0.9236546140529326,A,610,Correct
1,new_learn,20,572,B,33.93008943354556,16.95418765485658,1.6965044716772781,0.266315756920401,B,683,Incorrect
1,new_learn,20,573,B,84.26487680938592,64.13931712018422,4.213243840469296,1.0074980373551838,B,1294,Incorrect
1,new_learn,20,574,B,71.69195344667715,46.072296449361595,3.584597672333857,0.7237019402966275,A,813,Correct
1,new_learn,20,575,B,55.815395725994016,48.38153280452568,2.790769786299701,0.7599753401405575,A,518,Incorrect
1,new_learn,20,576,A,62.07187087442094,73.09665557394304,3.103593543721047,1.1481995807654142,B,1299,Correct
1,new_learn,20,577,B,58.92163134575188,32.19294779071038,2.9460815672875937,0.5056856413834774,B,744,Incorrect
1,new_learn,20,578,B,45.81261091955417,37.4005987717001,2.2906305459777085,0.5874872317051624,B,11973,Correct
1,new_learn,20,579,A,61.303288909344,70.84344844464671,3.0651644454672,1.1128062859433467,B,1009,Incorrect
1,new_learn,20,580,B,58.608994623153,33.25012376887253,2.93044973115765,0.5222917228162065,A,2969,Correct
1,new_learn,20,581,A,15.06087217585208,37.86890827661961,0.753043608792604,0.5948434202064693,A,1492,Incorrect
1,new_learn,20,582,B,45.531199469241876,16.409061882381202,2.276559973462094,0.2577529413099454,B,939,Correct
1,new_learn,20,583,B,75.31609002141498,52.301976427213475,3.765804501070749,0.8215575245598019,B,1872,Incorrect
1,new_learn,20,584,B,70.48862994027564,52.063005795013076,3.524431497013782,0.8178037826470794,A,768,Incorrect
1,new_learn,20,585,A,52.522870673480995,81.32878819812382,2.6261435336740497,1.2775096176429304,A,594,Incorrect
1,new_learn,20,586,A,39.874900782070654,50.76420160453084,1.9937450391035327,0.7974022141307263,B,735,Incorrect
1,new_learn,20,587,B,84.23600714044836,61.816219160360575,4.211800357022418,0.9710068999344268,A,2842,Correct
1,new_learn,20,588,A,36.54125465086961,68.01946800364718,1.8270627325434805,1.0684473049067198,B,392,Correct
1,new_learn,20,589,B,41.589248933094055,28.380135704422095,2.0794624466547025,0.4457941291844692,B,909,Incorrect
1,new_learn,20,590,A,50.94193114518911,71.61849188639212,2.5470965572594553,1.1249806398573483,B,815,Incorrect
1,new_learn,20,591,A,23.0144739691897,42.287457368656085,1.150723698459485,0.6642498270418075,B,4464,Correct
1,new_learn,20,592,B,80.91392558736034,58.90327817128613,4.045696279368017,0.9252505298763427,A,1733,Correct
1,new_learn,20,593,A,31.681199497777776,42.99311548536319,1.5840599748888888,0.6753342788187727,B,995,Incorrect
1,new_learn,20,594,A,35.84839974297179,63.293664218885354,1.7924199871485897,0.9942145526441469,B,1161,Correct
1,new_learn,20,595,B,36.49039103350949,24.882378795277567,1.8245195516754746,0.39085149213541226,A,1733,Correct
1,new_learn,20,596,A,38.376805593721734,54.62891910472572,1.9188402796860868,0.8581090546647872,A,1224,Incorrect
1,new_learn,20,597,B,39.15256273937702,18.055951365572717,1.9576281369688509,0.2836222208182892,A,1834,Correct
1,new_learn,20,598,B,62.93917642588436,37.257788523994265,3.146958821294218,0.5852439735799123,B,779,Incorrect
1,new_learn,20,599,A,26.759380043262304,40.55574803750177,1.3379690021631152,0.6370482004772712,A,1990,Incorrect
1,new_learn,20,600,A,75.9075324863599,51.59097579895939,3.795376624317995,0.8103891528076983,B,1728,Incorrect
1,new_learn,20,601,A,43.99290351801207,78.6277786140731,2.1996451759006037,1.2350822583102834,B,2048,Incorrect
1,new_learn,20,602,B,60.319541188275956,31.305282608625816,3.015977059413798,0.4917422293090559,B,3352,Correct
1,new_learn,20,603,A,66.69327893502538,58.381561291760214,3.334663946751269,0.9170554202964806,A,843,Correct
1,new_learn,20,604,B,25.736437131583287,52.7825666108877,1.2868218565791643,0.8291066175118934,A,676,Incorrect
1,new_learn,20,605,B,57.636265341379406,19.144182241714788,2.8818132670689702,0.3007161114477768,B,876,Correct
1,new_learn,20,606,B,13.820611715636602,61.10164857769652,0.6910305857818301,0.9597824514695832,A,645,Incorrect
1,new_learn,20,607,A,58.99709851691853,52.858122435240865,2.9498549258459263,0.8302934456255127,B,570,Incorrect
1,new_learn,20,608,B,36.9754242160959,51.977842065211206,1.8487712108047953,0.8164660339075902,B,1622,Correct
1,new_learn,20,609,B,22.288044699777107,54.8681304770314,1.1144022349888554,0.8618665781142405,B,722,Correct
1,new_learn,20,610,B,14.797805942412033,69.03615458053768,0.7398902971206016,1.0844173803115327,B,714,Correct
1,new_learn,20,611,A,43.58973669671876,67.4756884224162,2.179486834835938,1.059905635218883,A,873,Correct
1,new_learn,20,612,A,63.049957181602494,52.08974316937424,3.1524978590801247,0.8182237723414261,B,1100,Incorrect
1,new_learn,20,613,A,53.933691433595136,56.85195920962588,2.696684571679757,0.8930284869757362,A,3375,Correct
1,new_learn,20,614,A,46.60071768829629,62.08253579833829,2.330035884414815,0.9751901919014246,A,821,Correct
1,new_learn,20,615,A,37.850008315170584,74.48439988464503,1.8925004157585292,1.1699982174232264,A,538,Correct
1,new_learn,20,616,B,54.648617314843264,21.943610053972066,2.732430865742163,0.34468942069398883,B,856,Correct
1,new_learn,20,617,A,76.16907284734124,48.25699264201636,3.808453642367062,0.7580190678424764,B,2241,Incorrect
1,new_learn,20,618,B,53.628385172083384,23.502197592369498,2.681419258604169,0.3691716564970187,B,642,Correct
1,new_learn,20,619,A,54.62891910472572,61.623194406278266,2.731445955236286,0.9679748741874973,A,611,Correct
1,new_learn,20,620,B,26.244665431790892,63.71673572196594,1.3122332715895448,1.0008601442742528,A,822,Incorrect
1,new_learn,20,621,B,25.45600833721226,55.67172077140979,1.272800416860613,0.8744893449408164,B,567,Correct
1,new_learn,20,622,B,65.5397392624965,10.809071147362545,3.2769869631248247,0.16978849254341785,B,776,Correct
1,new_learn,20,623,B,17.133496842607485,60.05484462058158,0.8566748421303743,0.943339293362478,B,1403,Correct
1,new_learn,20,624,B,21.99322183831804,52.633326570383225,1.099661091915902,0.826762360437542,B,545,Correct
1,new_learn,20,625,A,66.55064363177443,42.36056565207149,3.327532181588722,0.6653982092722797,B,1434,Incorrect
1,new_learn,20,626,A,41.14639556250751,85.60811603387496,2.0573197781253754,1.3447291420984209,A,868,Correct
1,new_learn,20,627,A,51.48207959678032,74.39222407451504,2.5741039798390157,1.1685503231835108,A,775,Correct
1,new_learn,20,628,B,51.17487712658839,20.20737421862239,2.5587438563294196,0.3174166919678194,B,717,Correct
1,new_learn,20,629,B,24.242712730890567,52.018125851232284,1.2121356365445282,0.8170988101387032,B,1083,Correct
1,new_learn,20,630,A,64.58871483692046,54.47039393963022,3.2294357418460233,0.8556189471944214,A,781,Correct
1,new_learn,20,631,B,34.45250133940288,34.920166775022864,1.722625066970144,0.5485246970127111,B,905,Correct
1,new_learn,20,632,A,60.53782449564674,56.490292408514456,3.0268912247823367,0.8873474381486413,A,592,Correct
1,new_learn,20,633,B,68.08818420497616,11.667009941085908,3.4044092102488084,0.1832649636013729,B,1752,Correct
1,new_learn,20,634,B,40.89547056619705,47.742603112962094,2.0447735283098525,0.7499390560146746,A,760,Incorrect
1,new_learn,20,635,A,42.001544534073155,74.33922140091283,2.100077226703658,1.1677177591334644,A,610,Correct
1,new_learn,20,636,B,29.453715884019545,58.79576613339536,1.4726857942009772,0.923561734734292,A,553,Incorrect
1,new_learn,20,637,B,49.35620239451514,24.391620831763206,2.467810119725757,0.3831426840710753,B,904,Correct
1,new_learn,20,638,B,13.938307368003088,64.13250644873361,0.6969153684001543,1.0073910555782077,B,3727,Correct
1,new_learn,20,639,B,54.35857257750099,22.11834928115941,2.7179286288750495,0.34743421805611746,B,601,Correct
1,new_learn,20,640,B,60.28448784670047,16.829841712013916,3.0142243923350236,0.26436253541770993,B,713,Correct
1,new_learn,20,641,B,33.90351565103827,37.295258528800794,1.6951757825519136,0.5858325510390632,A,561,Incorrect
1,new_learn,20,642,A,83.6780356499851,35.27005677472539,4.183901782499255,0.554020756275861,B,884,Incorrect
1,new_learn,20,643,B,40.395736792009764,32.493539862510104,2.019786839600488,0.5104073306059442,B,615,Correct
1,new_learn,20,644,A,43.48713019634383,76.23395810325637,2.1743565098171915,1.1974802136563114,A,566,Correct
1,new_learn,20,645,B,61.246392475886786,30.076348152826853,3.0623196237943393,0.4724381720186489,B,2659,Correct
1,new_learn,20,646,A,60.364228730695416,49.67435338737446,3.0182114365347705,0.7802829183679943,A,739,Correct
1,new_learn,20,647,B,30.571711896995538,36.963281488110105,1.5285855948497769,0.5806178678780914,A,787,Incorrect
1,new_learn,20,648,B,64.29208317716899,11.29606843967376,3.2146041588584495,0.17743822812263305,B,509,Correct
1,new_learn,20,649,B,35.80126323172842,50.239060948823855,1.790063161586421,0.7891533240003745,A,592,Incorrect
1,new_learn,20,650,A,58.452688539190554,53.02276863866226,2.9226344269595277,0.832879702141063,B,767,Incorrect
1,new_learn,20,651,B,25.9691289247397,53.92300443184255,1.298456446236985,0.8470205729128321,B,622,Correct
1,new_learn,20,652,A,88.9223640849182,35.54748990848455,4.446118204245909,0.5583786657502618,B,1564,Incorrect
1,new_learn,20,653,A,59.86638786431526,65.30945743819538,2.9933193932157627,1.0258785584888495,A,688,Correct
1,new_learn,20,654,B,25.429852827122133,55.65335025704401,1.2714926413561067,0.8742007815759455,A,530,Incorrect
1,new_learn,20,655,A,51.87163386585972,74.87674499600934,2.593581693292986,1.1761611600208963,A,1120,Correct
1,new_learn,20,656,A,74.02060737752424,57.27838818406019,3.701030368876212,0.8997268176425395,B,694,Incorrect
1,new_learn,20,657,B,37.4005987717001,54.18738908044583,1.8700299385850052,0.8511735172617021,B,570,Correct
1,new_learn,20,658,A,45.528768269579494,75.76678337461499,2.276438413478975,1.1901418501790986,A,603,Correct
1,new_learn,20,659,A,41.668163943392216,69.48938837307372,2.083408197169611,1.091536760076482,A,487,Correct
1,new_learn,20,660,A,85.46185176521749,31.2106903792469,4.273092588260875,0.4902563780445384,B,853,Incorrect
1,new_learn,20,661,A,71.34136546005323,48.32773619773401,3.5670682730026613,0.7591303050171335,A,725,Correct
1,new_learn,20,662,B,25.912059770931943,55.895040963081684,1.2956029885465972,0.8779972503085899,A,523,Incorrect
1,new_learn,20,663,B,37.85846634133271,44.85641925545471,1.8929233170666353,0.7046029859964013,B,1061,Correct
1,new_learn,20,664,B,29.5425161862703,40.87644306686375,1.4771258093135151,0.6420856662187029,B,541,Correct
1,new_learn,20,665,A,73.11371992246305,57.91627416475875,3.655685996123152,0.9097467071964922,A,1466,Correct
1,new_learn,20,666,B,17.693577530409087,57.82696165811913,0.8846788765204543,0.9083437896228287,B,735,Correct
1,new_learn,20,667,B,35.3918558735081,55.01054540039975,1.7695927936754048,0.8641036264993182,B,531,Correct
1,new_learn,20,668,B,28.304089793188645,61.03091847390889,1.4152044896594322,0.9586714255973487,B,399,Correct
1,new_learn,20,669,B,59.780520652762696,19.864739387687507,2.989026032638135,0.3120345966291743,A,467,Incorrect
1,new_learn,20,670,B,24.20747253370468,59.732637886557754,1.210373626685234,0.938278081819746,B,991,Correct
1,new_learn,20,671,A,70.84344844464671,38.696711090656,3.542172422232335,0.6078465164024578,A,837,Correct
1,new_learn,20,672,B,65.91736275549029,22.181317675430208,3.295868137774514,0.34842332328036485,A,618,Incorrect
1,new_learn,20,673,A,70.01499859674044,62.09192135911865,3.500749929837022,0.9753376199454116,A,1713,Correct
1,new_learn,20,674,B,46.73778028542674,43.51021916586703,2.3368890142713368,0.6834569244378483,B,935,Correct
1,new_learn,20,675,B,18.25127934892579,57.03623493657447,0.9125639674462895,0.8959230833258193,B,932,Correct
1,new_learn,20,676,B,18.520522383015155,61.27569757147328,0.9260261191507578,0.9625164066706519,B,645,Correct
1,new_learn,20,677,A,55.65751109075435,70.97073035884048,2.7828755545377173,1.114805625576177,A,705,Correct
1,new_learn,20,678,A,72.69878307383513,45.38426319207314,3.6349391536917564,0.7128943391640132,B,861,Incorrect
1,new_learn,20,679,A,63.16478069617439,53.540823953053945,3.1582390348087195,0.8410172959902934,A,561,Correct
1,new_learn,20,680,A,74.58603117896868,41.56336034528675,3.729301558948434,0.652875737596291,A,811,Correct
1,new_learn,20,681,B,34.710911795661104,34.085662732595495,1.7355455897830552,0.5354163381673069,B,607,Correct
1,new_learn,20,682,A,87.8455210221024,33.45520260508846,4.39227605110512,0.5255130936425201,B,797,Incorrect
1,new_learn,20,683,B,24.69554809938256,48.537627816678366,1.234777404969128,0.7624272748577618,B,762,Correct
1,new_learn,20,684,A,76.69347091288668,55.50817659515897,3.834673545644334,0.8719203990275817,A,1270,Correct
1,new_learn,20,685,B,61.64075286812157,21.84847688745033,3.0820376434060783,0.34319507240870173,B,1935,Correct
1,new_learn,20,686,B,39.875368840365226,43.79128024402842,1.9937684420182615,0.6878718215296575,A,614,Incorrect
1,new_learn,20,687,A,84.96337295262285,36.879373190518876,4.248168647631143,0.5792998394216523,B,1273,Incorrect
1,new_learn,20,688,A,43.35478110263993,70.91088666114001,2.167739055131997,1.1138656029708796,A,1574,Correct
1,new_learn,20,689,A,82.01074374031987,37.637688267706345,4.100537187015993,0.591211424799645,A,910,Correct
1,new_learn,20,690,B,24.095625068231442,51.1985622180174,1.204781253411572,0.8042251346924171,B,595,Correct
1,new_learn,20,691,B,39.70774048846285,53.26979729853902,1.9853870244231429,0.836760019256538,B,1715,Correct
1,new_learn,20,692,A,71.61849188639212,49.05806885481089,3.580924594319606,0.7706023435678806,A,530,Correct
1,new_learn,20,693,B,32.68454993745907,58.63048312068709,1.6342274968729533,0.9209654752418547,B,1693,Correct
1,new_learn,20,694,B,44.00264258761735,29.587970999060587,2.2001321293808673,0.464766761626383,B,1042,Correct
1,new_learn,20,695,A,40.56721922791246,75.10805075189813,2.028360961395623,1.1797945023380623,A,685,Correct
1,new_learn,20,696,B,62.7557625270958,24.645020306114688,3.1377881263547898,0.38712307370630583,B,1015,Correct
1,new_learn,20,697,B,49.53983669534371,30.72524210504281,2.476991834767185,0.48263097438485136,B,719,Correct
1,new_learn,20,698,B,44.25091946505759,31.226867957361648,2.2125459732528796,0.49051049484732934,B,521,Correct
1,new_learn,20,699,A,74.53846704482278,41.258079923689266,3.7269233522411387,0.6480804039474137,A,1027,Correct
1,new_learn,20,700,B,36.35945920178747,42.45545836171387,1.8179729600893737,0.6668887804697382,B,1795,Correct
1,new_learn,20,701,A,77.95792640578647,44.22749646697707,3.8978963202893233,0.6947238899366185,A,1136,Correct
1,new_learn,20,702,B,36.574248279490405,30.51625599003745,1.8287124139745203,0.4793482281668359,B,624,Correct
1,new_learn,20,703,A,41.84070675865553,80.71521019842496,2.0920353379327765,1.267871556961639,A,653,Correct
1,new_learn,20,704,B,36.29925120838408,50.929808578332064,1.814962560419204,0.8000035623921123,A,942,Incorrect
1,new_learn,20,705,A,45.77163338974608,81.00618018787218,2.288581669487304,1.2724421028679513,A,1026,Correct
1,new_learn,20,706,A,36.8283452207278,85.50804787924204,1.8414172610363897,1.3431572752011554,A,570,Correct
1,new_learn,20,707,A,52.49367917813673,70.85130520052424,2.6246839589068367,1.1129296995760762,A,719,Correct
1,new_learn,20,708,B,18.238462376056965,57.79696680130859,0.9119231188028482,0.9078726315138212,B,2491,Correct
1,new_learn,20,709,B,40.88389876217721,38.658299243726916,2.0441949381088604,0.6072431445218417,B,672,Correct
1,new_learn,20,710,B,46.53412886977006,43.52074996418056,2.326706443488503,0.6836223418309395,B,699,Correct
1,new_learn,20,711,B,25.743225247682425,52.88066879524239,1.2871612623841213,0.8306476030202424,B,628,Correct
1,new_learn,20,712,A,46.72517889360212,62.83150824366935,2.3362589446801056,0.9869550235613906,A,631,Correct
1,new_learn,20,713,A,86.30475388201069,35.31252300849545,4.315237694100534,0.5546878143160492,A,1854,Correct
1,new_learn,20,714,A,40.252027019476046,79.37472798709172,2.012601350973802,1.2468153116246772,A,1074,Correct
1,new_learn,20,715,A,71.01828373771659,55.156212830307815,3.5509141868858296,0.8663917651376506,A,1358,Correct
1,new_learn,20,716,A,50.83685081313746,72.63001165028136,2.541842540656873,1.140869555153325,A,626,Correct
1,new_learn,20,717,B,51.960710535364086,22.058028485942515,2.5980355267682045,0.3464867012205569,B,497,Correct
1,new_learn,20,718,A,58.33063110772403,49.86523200570291,2.9165315553862015,0.7832812326933344,A,694,Correct
1,new_learn,20,719,B,44.66305465848847,37.60421769345898,2.2331527329244234,0.5906856702488102,A,1576,Incorrect
1,new_learn,20,720,B,48.77138312961515,43.957092589281956,2.4385691564807574,0.6904763957582727,A,748,Incorrect
1,new_learn,20,721,B,40.897672830211356,41.71473744986338,2.044883641510568,0.6552535635945891,A,646,Incorrect
1,new_learn,20,722,B,26.37635333146946,53.23196194456303,1.318817666573473,0.8361657029060533,A,1040,Incorrect
1,new_learn,20,723,A,61.0270139783369,52.365245632496766,3.051350698916845,0.8225513549123842,B,557,Incorrect
1,new_learn,20,724,B,69.3981110931731,12.287732761648215,3.469905554658655,0.19301525486634322,B,790,Correct
1,new_learn,20,725,A,46.46332274032865,65.95986015938698,2.3231661370164325,1.0360950605427013,A,464,Correct
1,new_learn,20,726,A,61.29767877005291,67.19781462875045,3.064883938502646,1.0555408038748557,A,559,Correct
1,new_learn,20,727,A,50.20233575694176,75.50925706699687,2.5101167878470876,1.1860966363985026,A,569,Correct
1,new_learn,20,728,B,60.359317197461635,30.124856984929224,3.0179658598730814,0.47320014697148405,B,612,Correct
1,new_learn,20,729,B,27.71123404724728,50.16305915201376,1.3855617023623639,0.7879594905677832,A,535,Incorrect
1,new_learn,20,730,B,40.41864524072346,40.73855052385087,2.020932262036173,0.6399196552181324,B,507,Correct
1,new_learn,20,731,A,66.68281567795457,54.429823396619895,3.3341407838977286,0.8549816665950546,A,806,Correct
1,new_learn,20,732,B,48.290737572890585,32.67252414226974,2.414536878644529,0.5132188090979488,A,716,Incorrect
1,new_learn,20,733,A,75.04416411135963,49.538011657279,3.7522082055679817,0.7781412674797663,A,997,Correct
1,new_learn,20,734,A,46.393058526928975,74.14685137173095,2.3196529263464485,1.1646960177812211,A,1365,Correct
1,new_learn,20,735,B,28.038016803405256,55.15035894177307,1.4019008401702626,0.8662998124715723,B,1313,Correct
1,new_learn,20,736,B,40.06087026043847,27.87895634905594,2.0030435130219235,0.43792162227972325,B,566,Correct
1,new_learn,20,737,B,19.798613913814922,62.85235582025915,0.9899306956907461,0.987282496528689,B,784,Correct
1,new_learn,20,738,A,61.212601641721236,68.81038259999548,3.0606300820860617,1.0808709623342438,A,779,Correct
1,new_learn,20,739,A,72.47305835638645,45.5693791502876,3.623652917819322,0.715802133835957,A,1446,Correct
1,new_learn,20,740,A,75.36114717361477,41.88369749750811,3.768057358680738,0.6579075818167434,A,764,Correct
1,new_learn,20,741,B,14.744887835878458,63.89740688477254,0.7372443917939229,1.0036981202631963,B,551,Correct
1,new_learn,20,742,A,86.10000572596296,41.9848480248003,4.305000286298148,0.6594964505839828,A,782,Correct
1,new_learn,20,743,A,70.89901162600393,44.85130646908833,3.5449505813001965,0.7045226745359612,A,775,Correct
1,new_learn,20,744,A,71.52789013344753,48.48526398477524,3.576394506672376,0.7616047457096583,A,478,Correct
1,new_learn,20,745,B,19.38990799214419,51.94480255154455,0.9694953996072095,0.8159470504405235,B,619,Correct
1,new_learn,20,746,B,53.63474172722503,35.25853779932332,2.681737086361251,0.5538398166333609,B,1072,Correct
1,new_learn,20,747,B,63.274175624169885,14.7573615700191,3.163708781208494,0.2318080934737017,B,816,Correct
1,new_learn,20,748,A,35.71940598156942,76.25128928704807,1.7859702990784712,1.1977524512547015,A,796,Correct
1,new_learn,20,749,B,38.82245755749438,46.418245757584224,1.941122877874719,0.7291360993227608,A,802,Incorrect
1,new_learn,20,750,A,75.57994251236425,39.42203749501813,3.7789971256182127,0.6192399169194516,B,860,Incorrect
1,new_learn,20,751,B,45.969720299213854,33.96886704996595,2.2984860149606927,0.5335817158747072,B,667,Correct
1,new_learn,20,752,A,82.63932125575701,35.74842115344177,4.131966062787851,0.5615348863654331,B,858,Incorrect
1,new_learn,20,753,A,61.6565346388855,57.91581404777152,3.082826731944275,0.9097394796957576,A,821,Correct
1,new_learn,20,754,A,34.52063550013768,87.02738141415128,1.7260317750068839,1.3670229105592728,A,767,Correct
1,new_learn,20,755,A,48.710293582722386,75.86650451550196,2.4355146791361193,1.1917082661971892,A,550,Correct
1,new_learn,20,756,B,40.21870167024695,45.66369049672514,2.0109350835123476,0.7172835730015488,A,948,Incorrect
1,new_learn,20,757,B,46.43578413880156,21.739338646502148,2.321789206940078,0.34148073292875913,B,573,Correct
1,new_learn,20,758,A,52.9669653876589,76.44438462540177,2.6483482693829448,1.2007855857367735,A,802,Correct
1,new_learn,20,759,B,52.56638360338133,29.596298695153507,2.6283191801690666,0.46489757277071725,A,928,Incorrect
1,new_learn,20,760,B,47.05697169001224,45.56911241110989,2.3528485845006117,0.7157979439067514,A,1136,Incorrect
1,new_learn,20,761,A,80.97027962034008,45.63744686175531,4.048513981017004,0.7168713389474252,A,787,Correct
1,new_learn,20,762,B,48.29446451888796,41.10754035426622,2.4147232259443983,0.6457157339205436,B,689,Correct
1,new_learn,20,763,A,68.01946800364718,63.45874534913039,3.4009734001823584,0.9968076409742674,A,662,Correct
1,new_learn,20,764,A,61.812501488153714,51.744616813113055,3.0906250744076855,0.8128025402144743,A,445,Correct
1,new_learn,20,765,B,53.808502422928456,24.009670798041597,2.6904251211464225,0.37714302697118435,B,574,Correct
1,new_learn,20,766,B,34.87519768506812,54.829928315639656,1.7437598842534061,0.8612664999663426,B,888,Correct
1,new_learn,20,767,A,79.917898561482,42.443747255400766,3.9958949280741,0.666704822841945,A,2022,Correct
1,new_learn,20,768,B,40.413846998932605,31.82893759274151,2.0206923499466303,0.4999677825646236,B,634,Correct
1,new_learn,20,769,A,39.66776659506198,69.01652386855663,1.9833883297530988,1.0841090218088105,A,734,Correct
1,new_learn,20,770,B,58.90327817128613,19.08607441263966,2.945163908564307,0.2998033558030844,B,786,Correct
1,new_learn,20,771,A,60.308268156563024,55.85357938851275,3.015413407828151,0.8773459734182297,A,681,Correct
1,new_learn,20,772,B,58.36407038149554,33.34517076604803,2.918203519074777,0.5237847175565681,B,703,Correct
1,new_learn,20,773,B,41.20694953840315,32.55311597728986,2.0603474769201573,0.5113431500285518,B,587,Correct
1,new_learn,20,774,B,47.2071059003932,43.09594582378828,2.36035529501966,0.6769495339975848,B,635,Correct
1,new_learn,20,775,A,47.38890269396573,73.35483561409075,2.369445134698287,1.152255063352572,A,560,Correct
1,new_learn,20,776,B,18.23738675710521,68.45631657414958,0.9118693378552605,1.0753093062058277,B,746,Correct
1,new_learn,20,777,A,39.97406328160491,73.60432345527872,1.9987031640802457,1.1561740091977526,A,559,Correct
1,new_learn,20,778,A,44.88953392880619,68.67213937369172,2.2444766964403096,1.0786994428134216,A,556,Correct
1,new_learn,20,779,A,37.7052159370851,80.90553887062255,1.885260796854255,1.2708612327533564,A,498,Correct
1,new_learn,20,780,A,77.31157384354417,36.597248980825995,3.8655786921772086,0.5748682426987974,A,660,Correct
1,new_learn,20,781,B,39.4664974031896,39.80388167111686,1.97332487015948,0.6252379112116908,A,959,Incorrect
1,new_learn,20,782,A,54.33705258746532,68.42078777787727,2.716852629373266,1.0747512211790278,A,932,Correct
1,new_learn,20,783,B,15.66322437492039,59.396519543640295,0.7831612187460195,0.9329983472355147,B,559,Correct
1,new_learn,20,784,A,34.192945941097854,86.88124756833031,1.7096472970548928,1.364727445476913,A,724,Correct
1,new_learn,20,785,B,63.01280874013341,26.357462290565422,3.1506404370066705,0.41402204949655164,A,2408,Incorrect
1,new_learn,20,786,B,62.15902573080736,17.45713908526045,3.107951286540368,0.27421609951474735,A,706,Incorrect
1,new_learn,20,787,B,17.372129564717532,68.23691602389175,0.8686064782358767,1.0718629704214098,B,661,Correct
1,new_learn,20,788,A,66.76979036501228,54.127123082217174,3.338489518250614,0.85022686117522,A,956,Correct
1,new_learn,20,789,B,44.870055263808325,35.90904283017068,2.243502763190416,0.5640579257635271,B,769,Correct
1,new_learn,20,790,A,42.60135842818444,71.67886871666514,2.1300679214092217,1.1259290368895123,A,1121,Correct
1,new_learn,20,791,B,52.351763542180436,22.846286459762112,2.6175881771090217,0.3588686285189831,B,1420,Correct
1,new_learn,20,792,A,58.66214244252327,56.54971832004013,2.9331071221261635,0.888280898184051,A,622,Correct
1,new_learn,20,793,A,71.7077452133876,50.14745092091755,3.58538726066938,0.7877143170470463,B,684,Incorrect
1,new_learn,20,794,B,56.212567201835085,34.938416426098755,2.8106283600917545,0.548811361861464,A,630,Incorrect
1,new_learn,20,795,A,50.352522633484334,64.80568696852939,2.517626131674217,1.0179653504558586,A,705,Correct
1,new_learn,20,796,B,56.47678862249181,30.216620038621556,2.8238394311245907,0.4746415576482381,B,753,Correct
1,new_learn,20,797,A,41.305214711178294,67.26796645100376,2.0652607355589145,1.0566427461219905,A,497,Correct
1,new_learn,20,798,A,41.552842545913734,73.72802467476495,2.077642127295687,1.158117103409643,A,550,Correct
1,new_learn,20,799,A,78.13551034538165,48.719222721557315,3.9067755172690823,0.7652797609532469,B,847,Incorrect
1,new_learn,20,800,B,28.279034896840606,46.66658851676143,1.4139517448420305,0.7330370582617775,B,661,Correct
1,new_learn,20,801,A,65.1541972222657,66.53855657399205,3.2577098611132844,1.0451852025666113,A,563,Correct
1,new_learn,20,802,B,12.195902777552313,66.32603595540232,0.6097951388776156,1.041846936496122,B,615,Correct
1,new_learn,20,803,A,42.70830524969561,76.39232857409449,2.1354152624847806,1.1999678911949645,B,800,Incorrect
1,new_learn,20,804,B,59.8007600564737,25.52752907861671,2.990038002823685,0.40098548908841036,A,1931,Incorrect
1,new_learn,20,805,B,55.47581272986082,21.672470091893786,2.773790636493041,0.3404303641291901,B,568,Correct
1,new_learn,20,806,B,40.625255989654434,47.29352497513983,2.0312627994827217,0.7428849531213236,A,914,Incorrect
1,new_learn,20,807,A,56.83474863045463,73.18568029458747,2.841737431522731,1.1495979778072365,A,1465,Correct
1,new_learn,20,808,A,65.02817340500913,42.9486075802165,3.251408670250456,0.6746351502795954,B,878,Incorrect
1,new_learn,20,809,A,54.87455529134851,54.38214717108071,2.7437277645674256,0.8542327701955305,A,579,Correct
1,new_learn,20,810,A,84.23357330707519,35.15695406517139,4.21167866535376,0.5522441430686813,B,743,Incorrect
1,new_learn,20,811,A,52.688420038788365,75.2143819493071,2.634421001939418,1.1814647488811996,A,614,Correct
1,new_learn,20,812,B,23.36820217651518,62.677844857170186,1.168410108825759,0.9845412847306332,A,435,Incorrect
1,new_learn,20,813,B,50.28031587486605,30.729462317458186,2.5140157937433028,0.48269726532645507,B,1519,Correct
1,new_learn,20,814,B,39.838776460845004,28.118183030982465,1.9919388230422501,0.4416793862121385,B,555,Correct
1,new_learn,20,815,B,68.07968759627894,16.28050606196578,3.4039843798139473,0.2557335912049789,A,923,Incorrect
1,new_learn,20,816,A,57.30732842399171,65.01639916290887,2.8653664211995857,1.0212752098652802,A,639,Correct
1,new_learn,20,817,B,19.680436010670572,62.26575826614639,0.9840218005335286,0.9780682436956171,B,657,Correct
1,new_learn,20,818,B,52.37296083675994,18.132084452446392,2.6186480418379965,0.2848181165503764,B,508,Correct
1,new_learn,20,819,A,63.77206483730393,62.395306192639616,3.1886032418651964,0.9801031777664116,A,539,Correct
1,new_learn,20,820,A,55.352388740562354,58.62550480793268,2.767619437028118,0.920887276087972,A,565,Correct
1,new_learn,20,821,B,29.884084204891202,37.18400717238461,1.49420421024456,0.5840850188189683,B,726,Correct
1,new_learn,20,822,A,50.11811510388514,70.40261599042327,2.505905755194257,1.1058817059450852,A,578,Correct
1,new_learn,20,823,B,27.94046902918557,58.157981225971305,1.3970234514592788,0.9135434328356229,A,516,Incorrect
1,new_learn,20,824,A,54.779431873349736,65.94037175762328,2.7389715936674865,1.035788937443646,A,549,Correct
1,new_learn,20,825,A,74.3135199428453,45.555466228387665,3.715675997142265,0.7155835901698031,B,716,Incorrect
1,new_learn,20,826,A,75.02511819610972,41.36602028370373,3.7512559098054856,0.64977592715765,A,762,Correct
1,new_learn,20,827,B,16.085153563501287,68.3585911855979,0.8042576781750642,1.0737742393921117,B,509,Correct
1,new_learn,20,828,B,43.24281724555036,36.51594363913762,2.1621408622775182,0.5735911013780685,B,693,Correct
1,new_learn,20,829,B,31.211076632733523,48.13398075824324,1.560553831636676,0.7560868016906471,B,465,Correct
1,new_learn,20,830,A,83.59416755518902,37.62637521069756,4.179708377759451,0.5910337197157027,A,575,Correct
1,new_learn,20,831,A,65.2721975728385,47.323979306479075,3.2636098786419243,0.7433633286393503,A,553,Correct
1,new_learn,20,832,B,50.47331213056748,27.186365219808934,2.523665606528374,0.42704242626180405,B,1162,Correct
1,new_learn,20,833,B,58.204485232603304,32.80394167737896,2.910224261630165,0.5152831109122088,B,566,Correct
1,new_learn,20,834,A,51.537374283954776,70.77566406286928,2.5768687141977384,1.1117415313642462,A,542,Correct
1,new_learn,20,835,A,77.02018479907308,46.737381448221335,3.851009239953654,0.7341490710287802,A,684,Correct
1,new_learn,20,836,B,42.030294679827406,33.407654501522586,2.1015147339913707,0.5247662097782466,B,1154,Correct
1,new_learn,20,837,A,52.83646837186026,55.1041362224886,2.6418234185930136,0.8655737476949069,B,637,Incorrect
1,new_learn,20,838,B,23.32695552911526,49.83662689970092,1.1663477764557628,0.7828319047389795,100,816,Correct
1,new_learn,20,839,A,52.05978481720778,76.64039807208368,2.602989240860389,1.203864557757277,A,628,Correct
1,new_learn,20,840,B,41.202009175958985,39.54709354332365,2.0601004587979492,0.6212042927326695,A,1302,Incorrect
1,new_learn,20,841,A,49.75544299907199,62.57062794859865,2.4877721499535994,0.9828571254690884,A,923,Correct
1,new_learn,20,842,A,69.52471182218935,48.72299240281736,3.4762355911094676,0.7653389749680116,B,684,Incorrect
1,new_learn,20,843,A,58.96800901399502,66.89019093033171,2.948400450699751,1.0507086621197437,A,576,Correct
1,new_learn,20,844,B,26.455667790432713,60.621582988175966,1.3227833895216354,0.9522415988231879,B,671,Correct
1,new_learn,20,845,A,78.70165192603233,45.18334011491561,3.9350825963016165,0.7097382468483394,B,779,Incorrect
1,new_learn,20,846,B,54.85741600746885,29.62801888189145,2.7428708003734426,0.46539583229884934,A,719,Incorrect
1,new_learn,20,847,B,42.82539188452092,35.08179408536378,2.141269594226046,0.5510635328666436,B,1028,Correct
1,new_learn,20,848,A,66.20353963622267,45.54512424977733,3.3101769818111335,0.7154211387496741,A,762,Correct
1,new_learn,20,849,A,59.62403525351147,50.67184582092282,2.981201762675574,0.795951492874229,A,559,Correct
1,new_learn,20,850,A,37.48338354168901,75.65655255445824,1.8741691770844506,1.1884103485050808,A,687,Correct
1,new_learn,20,851,A,74.00067117286869,44.16221279808338,3.7000335586434345,0.6936984164636394,B,803,Incorrect
1,new_learn,20,852,B,51.720350312191016,29.573054048249674,2.586017515609551,0.4645324467109753,A,708,Incorrect
1,new_learn,20,853,A,58.39118196956131,64.81202159627621,2.9195590984780653,1.0180648545558217,A,518,Correct
1,new_learn,20,854,B,41.08438524211321,33.28816581267458,2.05421926210566,0.5228892858428867,A,851,Incorrect
1,new_learn,20,855,A,37.69036216004826,75.51603417208034,1.8845181080024132,1.1862030909162167,A,817,Correct
1,new_learn,20,856,A,42.287457368656085,76.98552603081029,2.1143728684328043,1.209285815055697,A,461,Correct
1,new_learn,20,857,A,77.76329151608184,54.225781446697034,3.8881645758040917,0.8517765831405455,B,945,Incorrect
1,new_learn,20,858,A,69.29899913613889,61.81909745941472,3.4649499568069446,0.9710521121502437,A,590,Correct
1,new_learn,20,859,A,52.06186458471859,70.32059504240435,2.6030932292359297,1.1045933239064016,A,514,Correct
1,new_learn,20,860,B,27.03930714951131,59.85379920859796,1.3519653574755655,0.9401812794158497,B,602,Correct
1,new_learn,20,861,A,66.03318462880716,50.73610832569133,3.301659231440358,0.7969609259386393,B,647,Incorrect
1,new_learn,20,862,A,41.04455282531994,71.81989234050113,2.052227641265997,1.1281442307926408,A,505,Correct
1,new_learn,20,863,A,48.51921848452623,77.6981077619472,2.4259609242263114,1.220479022713807,A,556,Correct
1,new_learn,20,864,B,17.87422245244825,60.75844046009729,0.8937111226224126,0.9543913509650724,B,834,Correct
1,new_learn,20,865,B,25.472973761667706,47.53822494461868,1.2736486880833853,0.7467286912535654,B,523,Correct
1,new_learn,20,866,B,40.29611997572963,38.025445984637145,2.0148059987864815,0.5973023087740578,B,1056,Correct
1,new_learn,20,867,B,44.733321976610384,29.075989357726357,2.2366660988305194,0.4567245728104407,B,448,Correct
1,new_learn,20,868,B,24.882378795277567,63.50960896649051,1.2441189397638783,0.9976066048074352,B,741,Correct
1,new_learn,20,869,A,35.967866779503986,75.96980356033828,1.7983933389751994,1.1933308837990924,B,446,Incorrect
1,new_learn,20,870,B,39.71411386613057,42.9181201507276,1.9857056933065282,0.6741562548570496,B,728,Correct
1,new_learn,20,871,A,44.101321732590556,79.88097874958446,2.2050660866295275,1.2547674800062845,A,562,Correct
1,new_learn,20,872,B,20.32259746248405,61.58100267798615,1.0161298731242026,0.9673121280692732,B,828,Correct
1,new_learn,20,873,A,61.74846781208597,66.1736018808582,3.0874233906042985,1.0394525076523993,A,1011,Correct
1,new_learn,20,874,A,43.99381982332917,71.11844621336772,2.1996909911664586,1.1171259407931844,A,1425,Correct
1,new_learn,20,875,B,25.80297886957269,50.896367599735214,1.2901489434786344,0.7994782727286686,B,567,Correct
1,new_learn,20,876,B,14.28661421466414,66.09542459122449,0.7143307107332071,1.038224501658445,B,629,Correct
1,new_learn,20,877,A,50.02538437353238,69.4852592299678,2.501269218676619,1.091471899648246,A,697,Correct
1,new_learn,20,878,B,18.149772311014555,52.50138212570218,0.9074886155507278,0.8246897819470822,B,676,Correct
1,new_learn,20,879,A,67.2477762563044,59.19470400288876,3.36238881281522,0.9298282361344883,A,622,Correct
1,new_learn,20,880,A,74.88222120199845,56.76364476508191,3.7441110600999226,0.8916412469248103,A,725,Correct
1,new_learn,20,881,A,53.36327699211029,64.12729397636795,2.6681638496055147,1.0073091782537529,A,483,Correct
1,new_learn,20,882,B,45.326261552133545,36.22003432023232,2.266313077606677,0.5689429686660602,B,566,Correct
1,new_learn,20,883,A,34.009786616938946,82.17317218171556,1.7004893308469473,1.2907731702412337,A,570,Correct
1,new_learn,20,884,A,57.70822552114028,53.56308598267681,2.8854112760570136,0.8413669871338796,A,756,Correct
1,new_learn,20,885,B,15.101109739270775,63.512187425993666,0.7550554869635389,0.9976471071545987,B,611,Correct
1,new_learn,20,886,A,89.3666447153787,31.331244303966784,4.468332235768935,0.4921500346658455,A,645,Correct
1,new_learn,20,887,A,61.30558302088692,63.46498420761853,3.0652791510443462,0.9969056407342329,A,564,Correct
1,new_learn,20,888,A,69.44367087491705,50.616066452624025,3.4721835437458526,0.7950753126058822,A,845,Correct
1,new_learn,20,889,A,71.77811082403726,37.93210146411328,3.5889055412018624,0.5958360564744045,A,502,Correct
1,new_learn,20,890,A,63.05525747849039,50.23091819519759,3.1527628739245195,0.7890254179255132,A,729,Correct
1,new_learn,20,891,B,68.39473278022176,12.707887925216397,3.419736639011088,0.19961503674251135,B,658,Correct
1,new_learn,20,892,B,18.963689527925375,68.13981036120407,0.9481844763962687,1.070337638238802,A,494,Incorrect
1,new_learn,20,893,B,32.69519148366759,43.05210802099139,1.6347595741833798,0.6762609314015038,B,625,Correct
1,new_learn,20,894,A,53.3837675179821,66.66325647905771,2.669188375899105,1.0471439840948995,A,522,Correct
1,new_learn,20,895,A,57.66440363335599,59.907323361005005,2.883220181667799,0.9410220348358075,A,585,Correct
1,new_learn,20,896,B,35.78314993392742,51.174779334263256,1.7891574966963708,0.8038515540280012,B,885,Correct
1,new_learn,20,897,B,42.383522497261666,40.58928112645276,2.119176124863083,0.6375749370067741,B,505,Correct
1,new_learn,20,898,B,28.432009101655453,58.27509813759217,1.4216004550827728,0.915383100981419,B,645,Correct
