experiment,condition,subject,trial,cat,x,y,xt,yt,resp,rt,fb
1,relearn,25,0,B,47.35933049860749,29.95640892876439,2.3679665249303747,0.47055417109268943,B,6415,Correct
1,relearn,25,1,B,52.577862934745156,39.52929265142049,2.6288931467372576,0.620924676976518,B,1375,Correct
1,relearn,25,2,A,49.699294561367296,65.35772220231961,2.484964728068365,1.026636699630849,B,1999,Incorrect
1,relearn,25,3,A,54.775385264599365,75.81422101738536,2.7387692632299685,1.1908869989292536,A,2309,Correct
1,relearn,25,4,A,12.722072858715464,36.60057445854108,0.6361036429357732,0.5749204791805944,A,3321,Correct
1,relearn,25,5,B,62.54569956113565,37.916945762661236,3.127284978056782,0.5955979912726959,B,3380,Correct
1,relearn,25,6,B,44.67252910773188,29.981503194008667,2.2336264553865943,0.4709483508893827,B,5803,Correct
1,relearn,25,7,A,41.28976685082246,69.52052390741628,2.064488342541123,1.0920258359062627,A,2186,Correct
1,relearn,25,8,B,32.83737390463628,12.485468015397583,1.641868695231814,0.1961212729690169,B,1770,Correct
1,relearn,25,9,A,56.60441914347193,71.89179809186592,2.8302209571735966,1.1292737236938337,A,1104,Correct
1,relearn,25,10,A,27.574409772023714,40.24119794850173,1.378720488601186,0.6321072592333284,B,1535,Incorrect
1,relearn,25,11,A,57.351589831546335,71.05064576855892,2.8675794915773167,1.1160609338965772,A,1218,Correct
1,relearn,25,12,B,84.1604069945872,67.33782322242075,4.2080203497293605,1.057740053721426,A,3197,Incorrect
1,relearn,25,13,A,52.31301258280878,66.70440052106885,2.615650629140439,1.047790273195505,A,22001,Correct
1,relearn,25,14,A,66.41699465797349,89.8093130918059,3.320849732898674,1.4107213911658152,A,2801,Correct
1,relearn,25,15,A,55.151423301150174,82.41000518216492,2.757571165057509,1.2944933343129308,A,1086,Correct
1,relearn,25,16,A,40.804563919196305,51.034010512482894,2.0402281959598154,0.8016403625462029,B,1880,Incorrect
1,relearn,25,17,A,23.839124649136718,45.207126685274886,1.191956232456836,0.7101118854218135,A,5333,Correct
1,relearn,25,18,B,64.11712160691039,39.677768136237944,3.205856080345519,0.6232569244382216,A,21993,Incorrect
1,relearn,25,19,A,38.13119725455834,50.906003837094914,1.906559862727917,0.7996296383911559,A,2830,Correct
1,relearn,25,20,B,49.76501916344178,18.642184049997105,2.4882509581720886,0.29283074229169864,B,2924,Correct
1,relearn,25,21,A,42.43330323354127,58.01167347079197,2.1216651616770634,0.9112452359914498,A,1044,Correct
1,relearn,25,22,A,37.78407791861568,46.259254964721826,1.889203895930784,0.7266386777885362,A,2164,Correct
1,relearn,25,23,B,36.37354383410659,14.174527361874787,1.8186771917053295,0.2226529551408667,B,3091,Correct
1,relearn,25,24,B,68.71668338126597,47.336598308756415,3.4358341690632983,0.7435615474636009,A,1941,Incorrect
1,relearn,25,25,B,81.44785969698263,56.651460761978896,4.072392984849132,0.8898790647248167,A,1503,Incorrect
1,relearn,25,26,B,76.45955900801921,56.053177636076526,3.8229779504009604,0.8804812553593084,B,987,Correct
1,relearn,25,27,A,44.08776479619891,60.67953112533479,2.2043882398099455,0.9531518460331247,A,3618,Correct
1,relearn,25,28,A,17.57117548032333,37.39700612650036,0.8785587740161666,0.5874307985663301,A,3836,Correct
1,relearn,25,29,B,67.25625439471597,47.990875839598786,3.362812719735798,0.7538389148851171,B,805,Correct
1,relearn,25,30,A,48.86843912118273,61.78070618481977,2.4434219560591366,0.9704490634190964,A,2297,Correct
1,relearn,25,31,A,54.79480552869977,67.94708501142432,2.7397402764349885,1.067310315523659,B,889,Incorrect
1,relearn,25,32,B,81.04355637634629,64.09884986688249,4.052177818817314,1.0068623792267657,B,1009,Correct
1,relearn,25,33,B,49.75889461853406,29.013194901933012,2.487944730926703,0.4557381998054079,A,2358,Incorrect
1,relearn,25,34,A,40.28742688792156,73.1003773009157,2.014371344396078,1.1482580415159942,A,10401,Correct
1,relearn,25,35,A,18.913702945478434,33.32445365991769,0.9456851472739217,0.5234592940144546,A,1713,Correct
1,relearn,25,36,A,48.58635760879447,72.90715905664108,2.4293178804397235,1.1452229764322306,A,14341,Correct
1,relearn,25,37,A,60.27617215465794,75.36237482948187,3.0138086077328974,1.1837894156069029,B,1769,Incorrect
1,relearn,25,38,A,64.84263799467314,80.85286333228916,3.2421318997336575,1.270033807332096,B,34620,Incorrect
1,relearn,25,39,B,63.28120471717411,30.793376241848158,3.1640602358587055,0.4837012229030832,A,12485,Incorrect
1,relearn,25,40,B,79.53383319770484,50.98193441934883,3.9766916598852418,0.8008223531881145,B,35881,Correct
1,relearn,25,41,B,68.69093335634521,51.36542261697782,3.4345466678172607,0.8068461717101626,A,26803,Incorrect
1,relearn,25,42,B,75.2544962274021,54.327063985049634,3.7627248113701053,0.8533675255326727,B,2157,Correct
1,relearn,25,43,A,32.47099907775228,41.42566192520601,1.6235499538876141,0.6507127758716079,A,2084,Correct
1,relearn,25,44,B,84.87204890138057,61.607442410817,4.243602445069029,0.9677274424213946,B,4375,Correct
1,relearn,25,45,B,77.44023995648058,55.63193360592689,3.8720119978240293,0.8738643696068752,B,1017,Correct
1,relearn,25,46,A,45.80241140637435,71.19067196892844,2.2901205703187175,1.118260460308532,A,9862,Correct
1,relearn,25,47,A,26.44376379727431,46.90869573392825,1.3221881898637156,0.7368400695359393,A,1234,Correct
1,relearn,25,48,B,36.29810701941951,18.302991758451014,1.8149053509709756,0.28750272223532125,A,947,Incorrect
1,relearn,25,49,A,41.18469372156635,48.26685642092359,2.0592346860783177,0.7581740077192343,B,3052,Incorrect
1,relearn,25,50,B,57.134668591777604,38.85951643791376,2.85673342958888,0.6104038568170084,B,12746,Correct
1,relearn,25,51,B,56.798747028691594,46.30226360774403,2.8399373514345796,0.7273142559733334,B,1152,Correct
1,relearn,25,52,B,42.71784451344665,29.184029433395466,2.1358922256723325,0.45842166235051746,A,18031,Incorrect
1,relearn,25,53,A,57.24991285559054,73.48336069041251,2.862495642779527,1.1542739305304446,B,1389,Incorrect
1,relearn,25,54,B,72.79297887180681,44.59961680942001,3.6396489435903403,0.7005691426069688,B,703,Correct
1,relearn,25,55,B,37.043732384911365,18.61559415247365,1.8521866192455685,0.2924130691581017,A,6611,Incorrect
1,relearn,25,56,A,31.04444862261161,59.26400264785797,1.5522224311305806,0.9309167767041833,B,1951,Incorrect
1,relearn,25,57,B,75.67166590038106,50.141921754918265,3.783583295019053,0.7876274651106273,B,693,Correct
1,relearn,25,58,A,41.3119760110227,54.30835978507248,2.0655988005511348,0.8530737206464752,A,2449,Correct
1,relearn,25,59,B,61.21680986429719,48.934594066981134,3.06084049321486,0.7686628061361331,B,2870,Correct
1,relearn,25,60,B,41.614031552158956,16.894551774094374,2.080701577607948,0.26537899869593645,A,2147,Incorrect
1,relearn,25,61,A,63.64166220629464,82.81109604506021,3.182083110314732,1.3007936548544,B,1139,Incorrect
1,relearn,25,62,B,80.71224233604714,56.87119118685939,4.0356121168023575,0.8933305821676905,B,966,Correct
1,relearn,25,63,B,71.70226542873027,44.3707986468908,3.5851132714365135,0.6969748753149203,B,1414,Correct
1,relearn,25,64,A,47.76834276398437,61.243021892542664,2.3884171381992187,0.9620031383062545,A,2617,Correct
1,relearn,25,65,B,61.26244606790361,35.81672065956359,3.063122303395181,0.5626077324988137,B,1278,Correct
1,relearn,25,66,A,15.009631864043307,35.74515927439607,0.7504815932021655,0.5614836488891989,A,933,Correct
1,relearn,25,67,A,35.87333202033568,51.7848240197654,1.793666601016784,0.8134341135396762,A,2447,Correct
1,relearn,25,68,B,83.37249827444703,62.93194361304183,4.168624913722351,0.9885326586542965,B,824,Correct
1,relearn,25,69,B,51.283093801712475,29.03337899485644,2.5641546900856236,0.45605525079564607,A,1473,Incorrect
1,relearn,25,70,A,38.080697822778646,56.75119757821048,1.9040348911389322,0.8914457269706445,A,1173,Correct
1,relearn,25,71,B,74.87412822639337,43.811352010936666,3.7437064113196685,0.6881871081069753,B,664,Correct
1,relearn,25,72,A,40.471202171469294,68.15473820145186,2.0235601085734647,1.070572124205084,A,5447,Correct
1,relearn,25,73,B,82.73891188756757,52.59374526166221,4.136945594378378,0.8261406186940549,B,810,Correct
1,relearn,25,74,A,28.42548107670755,58.259579570516266,1.4212740538353774,0.9151393358998194,A,745,Correct
1,relearn,25,75,B,69.44742848923563,40.92559870114161,3.4723714244617816,0.6428578011163523,B,683,Correct
1,relearn,25,76,A,28.200498537536802,42.940120721248036,1.4100249268768403,0.6745018390106584,A,725,Correct
1,relearn,25,77,B,35.680619764944794,15.59192620817679,1.7840309882472396,0.24491740415461183,A,1239,Incorrect
1,relearn,25,78,B,84.28879617384757,54.72947779825782,4.214439808692378,0.8596886269290623,B,459,Correct
1,relearn,25,79,A,27.450558388942774,39.17181342446908,1.3725279194471387,0.6153094064105105,A,1275,Correct
1,relearn,25,80,A,46.475637123352726,55.71184274663468,2.323781856167636,0.8751195794538865,A,1410,Correct
1,relearn,25,81,A,12.529132100551415,38.55938762653667,0.6264566050275707,0.6056894444722437,A,845,Correct
1,relearn,25,82,B,66.14372200669744,46.18392621281262,3.307186100334872,0.725455416520526,B,677,Correct
1,relearn,25,83,B,76.65904517672195,62.81332324150377,3.8329522588360976,0.9866693742153462,B,648,Correct
1,relearn,25,84,B,73.69476087695672,45.29742861668489,3.684738043847836,0.7115303448434266,B,527,Correct
1,relearn,25,85,A,36.850589009085134,46.63291384854801,1.8425294504542566,0.7325080978104208,B,1410,Incorrect
1,relearn,25,86,B,76.0500894056496,52.39780405333141,3.80250447028248,0.8230627813909173,B,402,Correct
1,relearn,25,87,B,87.54846323146373,65.65335184717412,4.377423161573187,1.0312804392331405,B,680,Correct
1,relearn,25,88,A,39.19697974132011,54.548158785555074,1.9598489870660059,0.8568404745377467,A,1944,Correct
1,relearn,25,89,A,14.842307772129967,39.07512961288961,0.7421153886064984,0.6137907006496149,A,770,Correct
1,relearn,25,90,A,40.65853530728555,62.159208969167274,2.0329267653642775,0.9763945712524433,B,4819,Incorrect
1,relearn,25,91,A,18.513480687794953,32.60127391550871,0.9256740343897476,0.5120996131531537,A,1098,Correct
1,relearn,25,92,B,67.11176716683896,40.16597509583264,3.3555883583419477,0.6309256614266922,B,877,Correct
1,relearn,25,93,B,68.0077452613465,37.61908043206339,3.4003872630673246,0.5909191336008695,B,813,Correct
1,relearn,25,94,A,10.73648718165174,33.93204463422056,0.536824359082587,0.5330033107207414,A,842,Correct
1,relearn,25,95,A,19.327502942059297,35.3436058993866,0.9663751471029649,0.5551760632244291,B,4163,Incorrect
1,relearn,25,96,B,80.99793747203951,61.023738274699866,4.049896873601975,0.9585586392919169,B,510,Correct
1,relearn,25,97,A,49.509943934686426,74.48954926528077,2.475497196734321,1.1700791037051053,A,1761,Correct
1,relearn,25,98,B,42.12525428372863,21.293117819372974,2.1062627141864314,0.3344715125668203,B,1428,Correct
1,relearn,25,99,B,56.00724613057726,24.59420543174863,2.8003623065288625,0.38632487552629846,B,1336,Correct
1,relearn,25,100,A,50.315522237191075,60.20564549102064,2.515776111859554,0.9457080678961094,B,1813,Incorrect
1,relearn,25,101,B,39.64942449546305,31.201308752182083,1.9824712247731526,0.49010901179121075,A,1560,Incorrect
1,relearn,25,102,B,35.183987238698904,16.849244667287113,1.7591993619349453,0.264667316326431,B,952,Correct
1,relearn,25,103,A,49.45023139432277,62.116444757959414,2.4725115697161386,0.9757228325936075,B,2492,Incorrect
1,relearn,25,104,A,38.523729503035106,51.594239078390984,1.9261864751517552,0.8104404122811426,B,837,Incorrect
1,relearn,25,105,B,48.29461067019349,36.69738318370301,2.4147305335096747,0.576441147079455,A,511,Incorrect
1,relearn,25,106,A,30.781063607026034,39.94393039747326,1.5390531803513017,0.6274377914610202,A,1539,Correct
1,relearn,25,107,A,58.92797517901768,73.98349658881432,2.9463987589508838,1.162130046851523,B,840,Incorrect
1,relearn,25,108,B,50.12971425516776,24.594864005606688,2.506485712758388,0.3863352203802701,B,1769,Correct
1,relearn,25,109,B,77.14842599430273,52.59429166916665,3.8574212997151363,0.8261492016430642,B,1801,Correct
1,relearn,25,110,A,41.60031465509623,59.6644143436833,2.080015732754811,0.9372064289142646,A,1113,Correct
1,relearn,25,111,B,48.85424385925836,33.616283079517835,2.442712192962918,0.5280433398180405,B,1937,Correct
1,relearn,25,112,A,26.89206282323073,44.490527200691965,1.3446031411615365,0.6988555670401537,A,1317,Correct
1,relearn,25,113,A,22.886186142627565,52.108719231083846,1.1443093071313784,0.8185218476217309,B,1204,Incorrect
1,relearn,25,114,A,52.400364973414526,70.6028786775753,2.620018248670726,1.1090274248788101,B,782,Incorrect
1,relearn,25,115,A,52.728210487948836,80.17456838817158,2.6364105243974416,1.2593791752650616,B,849,Incorrect
1,relearn,25,116,B,74.17942798897943,55.36384303284692,3.7089713994489717,0.8696532127324517,B,732,Correct
1,relearn,25,117,B,74.59258910364593,44.806348403605554,3.729629455182297,0.7038164748947597,B,823,Correct
1,relearn,25,118,A,21.30652006000101,34.3621733976119,1.0653260030000504,0.5397597575365808,A,934,Correct
1,relearn,25,119,A,23.905123690155804,37.634451134099805,1.1952561845077903,0.5911605760238601,A,887,Correct
1,relearn,25,120,B,43.30266381530985,32.63351193921713,2.1651331907654923,0.5126060068453967,B,914,Correct
1,relearn,25,121,B,72.8358046160113,48.55816582832626,3.6417902308005647,0.7627498851903236,B,1027,Correct
1,relearn,25,122,B,61.526338837699406,37.73689551973775,3.0763169418849703,0.5927697686704685,B,555,Correct
1,relearn,25,123,A,19.61934780446247,46.64835976995871,0.9809673902231236,0.7327507217765797,A,1205,Correct
1,relearn,25,124,A,44.09450259303423,53.206942433863645,2.2047251296517114,0.8357726973510052,B,880,Incorrect
1,relearn,25,125,A,53.708905435569044,74.85262547467003,2.6854452717784523,1.175782291465658,B,1627,Incorrect
1,relearn,25,126,A,15.930674697285934,40.92405133066073,0.7965337348642967,0.6428334950776767,A,1052,Correct
1,relearn,25,127,A,44.72327219945377,55.88501221143406,2.2361636099726883,0.8778397190460857,A,1470,Correct
1,relearn,25,128,B,63.99321038597695,55.119142092661264,3.1996605192988476,0.8658094593523827,B,1301,Correct
1,relearn,25,129,B,64.77436381910272,39.227193580618014,3.238718190955136,0.6161793158690713,B,1635,Correct
1,relearn,25,130,A,49.70876578349413,78.0342883377493,2.4854382891747067,1.2257597348499043,A,1423,Correct
1,relearn,25,131,B,59.429017712972055,49.782787708680246,2.9714508856486024,0.7819862007040507,A,1319,Incorrect
1,relearn,25,132,A,53.86412278651986,63.45131438786387,2.6932061393259925,0.9966909157076473,B,1120,Incorrect
1,relearn,25,133,A,39.803346655736036,55.689457501493344,1.990167332786802,0.8747679528454624,A,2019,Correct
1,relearn,25,134,B,66.71801137291709,57.052413790853194,3.3359005686458545,0.896177220174547,B,765,Correct
1,relearn,25,135,B,56.22522496996864,44.49175000890928,2.811261248498432,0.698874774866715,A,2101,Incorrect
1,relearn,25,136,A,63.704900123154324,82.16289733010427,3.185245006157716,1.29061177324954,B,460,Incorrect
1,relearn,25,137,B,62.50820711007368,46.68387976094315,3.125410355503684,0.7333086684902412,B,1547,Correct
1,relearn,25,138,A,10.681313106015349,33.61100389695915,0.5340656553007674,0.5279604146123238,A,795,Correct
1,relearn,25,139,B,52.169975530458814,42.29123844904252,2.608498776522941,0.6643092201136308,B,3431,Correct
1,relearn,25,140,B,89.50177724066077,64.2215561444137,4.475088862033038,1.0087898449269725,B,642,Correct
1,relearn,25,141,A,54.585452663540636,64.28965279285387,2.729272633177032,1.0098595045793413,A,953,Correct
1,relearn,25,142,B,42.14540477731721,24.207824719573594,2.10727023886586,0.38025562149200903,B,2319,Correct
1,relearn,25,143,B,54.47104677301818,41.85583385219748,2.723552338650909,0.6574699006996929,B,1786,Correct
1,relearn,25,144,A,23.14809365818181,52.984217826131285,1.1574046829090905,0.8322741473938771,A,1011,Correct
1,relearn,25,145,A,59.96079323918693,68.4586200371737,2.998039661959347,1.0753454889183995,B,1845,Incorrect
1,relearn,25,146,B,66.4553306391706,35.40563429914081,3.32276653195853,0.5561504030493377,B,2972,Correct
1,relearn,25,147,A,56.95148013422919,72.08804459148722,2.8475740067114597,1.1323563565013484,B,1350,Incorrect
1,relearn,25,148,A,26.337307265079836,38.56888649384224,1.3168653632539917,0.6058386523309669,B,2042,Incorrect
1,relearn,25,149,A,27.221834144260853,45.7588009499325,1.3610917072130428,0.7187775645069279,A,666,Correct
1,relearn,25,150,A,54.396995792782356,68.30480865165009,2.7198497896391176,1.0729294253244024,B,763,Incorrect
1,relearn,25,151,B,48.222147329282336,36.894077050059934,2.4111073664641167,0.5795308071072203,B,2883,Correct
1,relearn,25,152,A,45.37038502874835,53.695099615026045,2.2685192514374175,0.8434406524216896,B,2628,Incorrect
1,relearn,25,153,B,74.77936645020009,43.26725982032528,3.7389683225100043,0.6796405279624737,B,920,Correct
1,relearn,25,154,B,35.62328387749524,21.379890151752157,1.7811641938747618,0.33583452917650675,A,811,Incorrect
1,relearn,25,155,B,76.91286221998934,56.17630078558199,3.845643110999467,0.8824152692691745,B,577,Correct
1,relearn,25,156,A,42.38953342519843,74.92642354839072,2.1194766712599216,1.1769415088969077,A,2761,Correct
1,relearn,25,157,A,65.69298093444505,77.46704839204146,3.284649046722252,1.216849550618612,B,811,Incorrect
1,relearn,25,158,A,45.86890655489629,76.97616848460677,2.2934453277448146,1.209138827063654,B,3117,Incorrect
1,relearn,25,159,B,56.881532183627364,25.06265790980184,2.844076609181368,0.3936833098443379,B,828,Correct
1,relearn,25,160,A,55.889023596253864,66.19464201205516,2.794451179812693,1.0397830052603938,A,720,Correct
1,relearn,25,161,A,21.78627459007046,48.494094613593205,1.089313729503523,0.761743456902764,A,2074,Correct
1,relearn,25,162,A,42.50520150764238,61.40945771092263,2.125260075382119,0.9646175060278381,B,1948,Incorrect
1,relearn,25,163,A,62.426065493671544,80.80049763541919,3.1213032746835774,1.2692112488891618,B,476,Incorrect
1,relearn,25,164,A,39.538442249211464,54.60210704472991,1.9769221124605734,0.8576878918112348,A,715,Correct
1,relearn,25,165,A,59.06312312188126,68.6871153135103,2.9531561560940633,1.0789346843259948,B,878,Incorrect
1,relearn,25,166,B,65.93273805435585,32.60017413536801,3.296636902717793,0.5120823378471006,B,595,Correct
1,relearn,25,167,B,79.58245484610768,54.78521286405379,3.979122742305384,0.8605641112953221,B,810,Correct
1,relearn,25,168,B,48.26663182711423,32.23324906477991,2.4133315913557114,0.5063186923162132,A,724,Incorrect
1,relearn,25,169,A,38.79093292514891,59.140922635661035,1.9395466462574456,0.928983440393575,A,946,Correct
1,relearn,25,170,B,44.41382409810893,33.780661771081135,2.220691204905447,0.5306253942671504,A,816,Incorrect
1,relearn,25,171,A,37.06685506485127,52.42912977717389,1.8533427532425635,0.8235548447103769,A,687,Correct
1,relearn,25,172,B,55.622353453409374,29.237619707730722,2.7811176726704683,0.45926345641129496,B,721,Correct
1,relearn,25,173,B,62.874475763090956,47.39140570296155,3.143723788154548,0.7444224599985872,B,2621,Correct
1,relearn,25,174,A,66.14544787548125,83.3933249066765,3.3072723937740625,1.309939284426208,B,2110,Incorrect
1,relearn,25,175,B,78.6517553770233,48.04473310308873,3.9325877688511652,0.7546849028017295,B,402,Correct
1,relearn,25,176,A,36.99000515063,59.648670788365585,1.8495002575314998,0.9369591297256272,A,860,Correct
1,relearn,25,177,B,35.066475739773175,12.976301517773287,1.7533237869886589,0.20383126759501322,A,1390,Incorrect
1,relearn,25,178,A,67.4373737366733,80.87073652564685,3.3718686868336647,1.2703145587968394,B,350,Incorrect
1,relearn,25,179,A,54.340229663749234,78.49520874327447,2.7170114831874614,1.2329998556493418,B,931,Incorrect
1,relearn,25,180,B,56.36950337885768,37.23817245291333,2.818475168942884,0.5849358450559116,B,762,Correct
1,relearn,25,181,B,54.678283235568934,39.07365918643559,2.733914161778447,0.613767603244887,B,1446,Correct
1,relearn,25,182,B,75.13040100021844,63.40736236619304,3.756520050010922,0.9960005189656899,B,1053,Correct
1,relearn,25,183,A,45.309860867648524,53.805942650008674,2.2654930433824263,0.8451817707437049,A,673,Correct
1,relearn,25,184,B,42.75183005014661,29.811181635738016,2.1375915025073304,0.4682729461083276,B,4069,Correct
1,relearn,25,185,B,45.29092960327186,28.477882337533224,2.2645464801635935,0.4473295297069445,A,962,Incorrect
1,relearn,25,186,A,48.01823426476703,74.07657615737719,2.4009117132383517,1.163592137295505,B,342,Incorrect
1,relearn,25,187,A,26.744613224448603,46.956138290787116,1.33723066122243,0.7375852954764159,A,1319,Correct
1,relearn,25,188,A,67.4636525854458,84.97507698042534,3.37318262927229,1.3347853878996572,B,1337,Incorrect
1,relearn,25,189,B,44.467411474713714,16.585433091317405,2.2233705737356857,0.2605233737814391,A,5806,Incorrect
1,relearn,25,190,A,63.50298359695616,84.67098663095317,3.1751491798478084,1.33000874786001,B,597,Incorrect
1,relearn,25,191,A,39.079047478494644,61.2211552567322,1.9539523739247324,0.9616596579941501,A,1675,Correct
1,relearn,25,192,B,54.97736285961095,24.686342323277493,2.7488681429805473,0.3877721584340568,B,1297,Correct
1,relearn,25,193,A,61.92735674617862,76.3261425075895,3.0963678373089305,1.198928242893454,A,1093,Correct
1,relearn,25,194,A,42.690319055206274,61.51820215868553,2.1345159527603137,0.9663256598188911,A,1771,Correct
1,relearn,25,195,A,50.7637535904796,79.79636442229862,2.5381876795239804,1.2534383612613365,A,808,Correct
1,relearn,25,196,B,62.683424605502864,41.34256925670454,3.134171230275143,0.649407559286951,A,1319,Incorrect
1,relearn,25,197,A,19.905468363140795,46.427838174608375,0.9952734181570397,0.7292867766570271,A,1275,Correct
1,relearn,25,198,B,75.29999286257359,43.474013312256275,3.7649996431286796,0.682888204219246,A,2275,Incorrect
1,relearn,25,199,B,54.425807247554744,42.35007096687581,2.7212903623777374,0.6652333591427172,B,749,Correct
1,relearn,25,200,A,60.57960990238793,80.55014113704821,3.0289804951193964,1.2652786582088584,A,1019,Correct
1,relearn,25,201,B,60.83396008974491,29.246714449338004,3.041698004487246,0.4594063162783936,B,1533,Correct
1,relearn,25,202,A,34.1525130510458,52.42363355473668,1.70762565255229,0.8234685102502207,A,913,Correct
1,relearn,25,203,A,54.470171320838666,68.34476795415264,2.723508566041933,1.0735571045803254,A,872,Correct
1,relearn,25,204,A,19.572743072361153,44.32505344201907,0.9786371536180576,0.6962563113171104,A,1335,Correct
1,relearn,25,205,B,60.37465817985039,36.15019900079921,3.01873290899252,0.5678459980335994,A,1655,Incorrect
1,relearn,25,206,B,36.81640562554977,11.39141404702248,1.8408202812774885,0.17893591342062695,B,924,Correct
1,relearn,25,207,A,22.47051733400591,40.290516053072736,1.1235258667002954,0.6328819462083747,A,784,Correct
1,relearn,25,208,A,27.850038977517016,37.74497527523507,1.3925019488758508,0.5928966851730344,A,747,Correct
1,relearn,25,209,B,56.55680090857866,25.6955699936548,2.8278400454289327,0.4036250696093413,B,6416,Correct
1,relearn,25,210,B,75.1241720495307,49.04346896232676,3.756208602476535,0.7703730089930241,B,4309,Correct
1,relearn,25,211,B,47.43641964178811,38.36714757225497,2.371820982089406,0.6026697447609585,B,2389,Correct
1,relearn,25,212,B,51.61720609416882,21.38817815822361,2.580860304708441,0.33596471687772483,B,1331,Correct
1,relearn,25,213,B,76.83001515117519,52.306007389855026,3.8415007575587596,0.8216208427729098,A,1005,Incorrect
1,relearn,25,214,A,68.00441319153711,85.02384226749668,3.4002206595768554,1.3355513912377244,A,1151,Correct
1,relearn,25,215,B,52.70188505203742,21.92788682164453,2.6350942526018706,0.3444424407381345,B,855,Correct
1,relearn,25,216,A,19.75372047978962,44.76039756868571,0.987686023989481,0.7030946808677073,A,922,Correct
1,relearn,25,217,B,65.69708812130995,41.88111759935868,3.2848544060654974,0.657867056871377,B,812,Correct
1,relearn,25,218,A,44.55007681504698,63.27103548936263,2.2275038407523486,0.9938591013920036,B,2069,Incorrect
1,relearn,25,219,B,75.54737835665597,45.29623809797321,3.7773689178327983,0.7115116442192336,B,660,Correct
1,relearn,25,220,B,88.14441996514225,68.15582484591904,4.407220998257112,1.0705891931764597,A,776,Incorrect
1,relearn,25,221,B,71.39497498552824,59.928049060722614,3.5697487492764117,0.9413475933656744,B,1055,Correct
1,relearn,25,222,B,71.15229862482656,42.632290853351236,3.557614931241328,0.6696664587529578,A,2005,Incorrect
1,relearn,25,223,B,56.58675724792177,47.09300220331024,2.829337862396088,0.739735148787037,A,1119,Incorrect
1,relearn,25,224,A,19.095227845403752,38.90269949086516,0.9547613922701876,0.6110821746265669,A,763,Correct
1,relearn,25,225,B,59.72593820429381,29.448818294156798,2.9862969102146906,0.46258095604911853,A,3827,Incorrect
1,relearn,25,226,B,72.85844082530076,51.062931836973576,3.642922041265038,0.8020946576489629,B,3483,Correct
1,relearn,25,227,A,29.628065462014458,39.69752043016635,1.4814032731007227,0.6235671927457067,B,1813,Incorrect
1,relearn,25,228,B,54.1794893679654,44.32099672620062,2.70897446839827,0.6961925885740456,B,1224,Correct
1,relearn,25,229,A,44.092472711251105,67.41841063945112,2.2046236355625553,1.0590059179079978,A,1067,Correct
1,relearn,25,230,B,72.01551810832777,48.1764247674642,3.6007759054163886,0.7567535106284345,B,1105,Correct
1,relearn,25,231,B,63.99322643848795,36.96321765434632,3.1996613219243977,0.5806168651796747,B,503,Correct
1,relearn,25,232,B,67.22809080228676,39.760410196871796,3.361404540114338,0.6245550628910457,B,569,Correct
1,relearn,25,233,A,41.788727926977586,54.785211523879696,2.089436396348879,0.8605640902439166,A,1208,Correct
1,relearn,25,234,B,58.46804134866995,25.755208899336587,2.9234020674334977,0.40456187534913146,B,1700,Correct
1,relearn,25,235,B,70.49099725438559,60.056871883274,3.5245498627192795,0.943371137530385,A,1067,Incorrect
1,relearn,25,236,A,19.476030771633372,34.17124939962268,0.9738015385816686,0.5367607303891961,A,731,Correct
1,relearn,25,237,B,63.78383278708992,35.75920787192834,3.189191639354496,0.5617043237432018,B,763,Correct
1,relearn,25,238,B,39.97098580349047,26.456886603416244,1.9985492901745234,0.4155838029507534,B,2924,Correct
1,relearn,25,239,B,89.78386364465733,66.76049097750007,4.489193182232866,1.0486713400248096,B,870,Correct
1,relearn,25,240,A,53.92587464427684,68.28205312612772,2.696293732213842,1.0725719823653541,B,1041,Incorrect
1,relearn,25,241,B,64.77990358308416,56.77234316192707,3.238995179154208,0.8917778810229441,B,467,Correct
1,relearn,25,242,A,58.29131080603965,73.9578525008951,2.9145655403019823,1.1617272304604478,B,1671,Incorrect
1,relearn,25,243,B,75.83102677734871,52.208487085169594,3.7915513388674356,0.820088997409032,B,364,Correct
1,relearn,25,244,B,66.29623704046246,44.1389770373779,3.314811852023123,0.693333429987975,B,1008,Correct
1,relearn,25,245,B,47.57796905860735,31.264527375030134,2.3788984529303674,0.49110204759675824,A,1534,Incorrect
1,relearn,25,246,B,62.50968261464595,54.73075605132567,3.1254841307322976,0.8597087056812991,B,494,Correct
1,relearn,25,247,B,41.61123033110063,19.855672189003553,2.080561516555031,0.3118921694053037,A,897,Incorrect
1,relearn,25,248,B,53.74910550313396,43.53973113652561,2.687455275156698,0.6839204973889182,B,464,Correct
1,relearn,25,249,A,13.136484872932183,41.12546799709804,0.6568242436466092,0.6459973406756268,A,676,Correct
1,relearn,25,250,B,73.28645450984442,63.45522970594989,3.664322725492221,0.9967524173803249,B,664,Correct
1,relearn,25,251,A,50.41360970164679,64.20983147932864,2.5206804850823397,1.0086056743184875,A,2453,Correct
1,relearn,25,252,A,27.998913974014172,49.641104976560236,1.3999456987007084,0.7797606535522069,A,800,Correct
1,relearn,25,253,B,84.04481012456858,59.69498935490554,4.20224050622843,0.9376867000674606,B,612,Correct
1,relearn,25,254,B,81.39390376583525,56.29146143810517,4.069695188291763,0.8842242085689217,B,481,Correct
1,relearn,25,255,B,78.880164622145,58.600152139106235,3.94400823110725,0.9204890372973018,B,523,Correct
1,relearn,25,256,A,64.43270291002962,82.77796831924441,3.2216351455014807,1.3002732857541341,B,844,Incorrect
1,relearn,25,257,A,31.545113937737796,46.5854946370245,1.5772556968868898,0.7317632385776144,A,1103,Correct
1,relearn,25,258,B,47.4766276793687,23.82845020237635,2.373831383968435,0.37429642051107886,B,983,Correct
1,relearn,25,259,B,62.088855991241715,47.74182878944672,3.1044427995620856,0.7499268929693375,B,1173,Correct
1,relearn,25,260,B,55.34493680684676,43.23467348627435,2.767246840342338,0.6791286630241646,B,1494,Correct
1,relearn,25,261,B,74.94094206701475,62.44122674641022,3.7470471033507375,0.9808244961382842,B,1103,Correct
1,relearn,25,262,A,21.935356964374943,41.925934569463834,1.0967678482187473,0.6585710401915696,A,689,Correct
1,relearn,25,263,B,32.299756781014665,17.947265627937288,1.614987839050733,0.28191498924376196,A,882,Incorrect
1,relearn,25,264,B,51.781450938135215,27.456889819733533,2.589072546906761,0.4312918167404962,B,502,Correct
1,relearn,25,265,B,48.032583431050995,22.162848743622757,2.4016291715525497,0.3481332139779351,B,814,Correct
1,relearn,25,266,B,63.79217023655432,32.04943837692334,3.189608511827716,0.5034314007831057,B,494,Correct
1,relearn,25,267,B,72.5173014869847,62.763084672101925,3.6258650743492353,0.9858802286125479,B,356,Correct
1,relearn,25,268,A,24.061150925312063,55.68788926202324,1.2030575462656032,0.8747433189974706,A,474,Correct
1,relearn,25,269,A,19.79622743599851,43.39121557233076,0.9898113717999254,0.6815876203618266,A,623,Correct
1,relearn,25,270,B,57.299190635381336,48.017566826097465,2.8649595317690673,0.7542581759206237,B,644,Correct
1,relearn,25,271,B,59.509321121028115,34.861490760501326,2.975466056051406,0.547603016331897,B,560,Correct
1,relearn,25,272,A,32.058871215642654,61.718483111438005,1.6029435607821327,0.9694716656679968,B,1164,Incorrect
1,relearn,25,273,A,22.19934514090018,38.33522256858029,1.109967257045009,0.6021682679759074,A,685,Correct
1,relearn,25,274,B,87.0907523194204,68.95167726282133,4.3545376159710205,1.0830904137078694,B,553,Correct
1,relearn,25,275,B,43.84759940521111,26.828465834153143,2.1923799702605553,0.4214205558583013,B,814,Correct
1,relearn,25,276,B,45.48497351810173,26.763022256217493,2.2742486759050866,0.42039257053996504,B,546,Correct
1,relearn,25,277,A,31.639085499033833,56.46114314309312,1.5819542749516915,0.8868895625581155,B,455,Incorrect
1,relearn,25,278,A,42.49720615572679,75.06208624577803,2.1248603077863395,1.1790724935642987,B,1874,Incorrect
1,relearn,25,279,A,51.11903409763181,78.52959122342732,2.5559517048815907,1.2335399343846438,B,647,Incorrect
1,relearn,25,280,A,17.039793145828266,34.76172116437424,0.8519896572914134,0.5460358391806746,A,730,Correct
1,relearn,25,281,B,82.56582630693228,55.94357879314105,4.1282913153466145,0.8787596807602683,B,707,Correct
1,relearn,25,282,A,49.20638176722441,56.89742350858173,2.4603190883612203,0.8937426385137377,B,1982,Incorrect
1,relearn,25,283,A,43.648851141431635,62.07820314270498,2.1824425570715817,0.975122134705884,A,479,Correct
1,relearn,25,284,B,62.09393517844187,52.60331016362255,3.1046967589220937,0.8262908638227094,B,665,Correct
1,relearn,25,285,A,57.67075563873992,80.58559715120876,2.883537781936996,1.26583559997692,B,736,Incorrect
1,relearn,25,286,B,40.628730908333445,29.97918709140004,2.031436545416672,0.4709119696346816,B,693,Correct
1,relearn,25,287,B,55.39316469723789,31.588128888584745,2.769658234861895,0.49618516828512665,B,1124,Correct
1,relearn,25,288,B,63.690174490051604,51.47868204649168,3.1845087245025803,0.8086252466687152,B,664,Correct
1,relearn,25,289,B,44.02170392343114,29.566546295303873,2.201085196171557,0.46443022316674576,B,1100,Correct
1,relearn,25,290,B,62.086939086204495,31.573648830580225,3.1043469543102247,0.49595771606587397,B,553,Correct
1,relearn,25,291,B,35.00872758368358,21.2471382357868,1.750436379184179,0.33374926695677304,A,2029,Incorrect
1,relearn,25,292,A,26.528025884668313,47.26383871673171,1.3264012942334156,0.7424186424646858,B,617,Incorrect
1,relearn,25,293,A,23.070844864542526,52.78305753869156,1.1535422432271263,0.8291143289878038,A,532,Correct
1,relearn,25,294,A,63.05615344113301,85.52483362378052,3.152807672056651,1.343420945059791,B,498,Incorrect
1,relearn,25,295,B,74.03757723830851,46.70625125023515,3.701878861915426,0.733660079022289,B,753,Correct
1,relearn,25,296,B,63.849267951396925,43.49358785551083,3.1924633975698464,0.6831956804256754,B,859,Correct
1,relearn,25,297,A,20.52651534200098,44.62376672440932,1.026325767100049,0.700948488584545,A,1049,Correct
1,relearn,25,298,B,57.71329856030976,40.07226285843912,2.8856649280154882,0.6294536330439572,B,686,Correct
1,relearn,25,299,A,31.55283082946707,45.1988855136817,1.5776415414733536,0.7099824334011429,B,1187,Incorrect
1,relearn,25,300,A,30.447414647407854,50.76031308511759,1.5223707323703928,0.7973411334106163,A,583,Incorrect
1,relearn,25,301,A,38.16299075902939,56.12848710290276,1.9081495379514695,0.8816642136979438,B,807,Correct
1,relearn,25,302,B,59.964932847858684,51.194887165073595,2.9982466423929344,0.8041674070957682,B,1144,Correct
1,relearn,25,303,B,64.01655223373947,38.85945310644077,3.200827611686974,0.610402862008557,B,495,Incorrect
1,relearn,25,304,A,44.26281792156561,61.434354125302136,2.2131408960782806,0.9650085779904148,B,2638,Correct
1,relearn,25,305,B,71.45239572306346,43.24245309125259,3.5726197861531728,0.6792508647734019,B,577,Correct
1,relearn,25,306,B,68.20476803117069,55.770021073495556,3.4102384015585345,0.8760334424752079,B,529,Correct
1,relearn,25,307,A,20.98649204414059,42.62559098576647,1.0493246022070295,0.6695612174790362,A,1006,Incorrect
1,relearn,25,308,B,42.13971439881206,27.20307521317995,2.106985719940603,0.4273049062238836,B,690,Correct
1,relearn,25,309,B,38.084561424459174,12.284581821784755,1.9042280712229587,0.19296576001870855,B,1226,Correct
1,relearn,25,310,B,65.61731047419356,38.832229168144856,3.280865523709678,0.6099752293857957,B,622,Correct
1,relearn,25,311,A,28.7647344426378,45.25049417891118,1.43823672213189,0.7107931004188753,A,1213,Correct
1,relearn,25,312,A,51.56517561805505,64.00406481028375,2.578258780902752,1.0053734990393621,B,671,Correct
1,relearn,25,313,B,46.291544866366145,37.795567985726734,2.314577243318307,0.5936913936110635,B,682,Correct
1,relearn,25,314,B,62.00747155728709,38.88343250787346,3.1003735778643544,0.6107795295654489,B,584,Correct
1,relearn,25,315,A,50.57199857758201,58.36819655087432,2.5285999288791006,0.9168454874375593,B,784,Incorrect
1,relearn,25,316,B,76.94558866061752,64.28848691961197,3.847279433030876,1.0098411910852825,B,551,Incorrect
1,relearn,25,317,A,38.94797898342231,47.83663744101152,1.9473989491711154,0.7514161437856012,B,953,Correct
1,relearn,25,318,B,62.699966765742545,46.66125140465989,3.134998338287127,0.7329532231009297,B,1062,Incorrect
1,relearn,25,319,A,54.94962769017653,73.02120003190599,2.747481384508826,1.147014327882733,A,2441,Incorrect
1,relearn,25,320,B,54.65339286051023,37.09781832049935,2.7326696430255115,0.582731167499448,B,773,Incorrect
1,relearn,25,321,B,47.712462712275524,22.650810799748527,2.385623135613776,0.3557981040317116,B,1041,Incorrect
1,relearn,25,322,B,54.3622143805494,27.378799934275108,2.7181107190274703,0.430065183688117,B,697,Correct
1,relearn,25,323,A,44.43629223258536,72.63126107246978,2.221814611629268,1.140889181031167,A,4210,Correct
1,relearn,25,324,A,34.16263417290973,48.27861824655866,1.7081317086454868,0.7583587620442741,A,2689,Correct
1,relearn,25,325,B,62.48027464744581,39.285016156271965,3.1240137323722905,0.6170875907635016,B,555,Incorrect
1,relearn,25,326,B,51.285042612957525,21.0585220386367,2.5642521306478763,0.33078649066019905,A,2304,Incorrect
1,relearn,25,327,A,46.53601154086382,61.39671870505427,2.326800577043191,0.9644174021915877,B,727,Correct
1,relearn,25,328,B,37.131577170727795,11.851116000787062,1.8565788585363896,0.1861568948245654,B,975,Correct
1,relearn,25,329,A,66.79179086269168,85.73323630711431,3.3395895431345846,1.3466945267545403,B,1283,Incorrect
1,relearn,25,330,A,15.007645250698907,37.72331030054898,0.7503822625349454,0.5925563725464642,A,4042,Correct
1,relearn,25,331,A,55.705159452335124,82.13866847023331,2.785257972616756,1.2902311872086627,A,2022,Incorrect
1,relearn,25,332,A,33.26196381891202,65.48413280613191,1.663098190945601,1.0286223527522118,A,1050,Incorrect
1,relearn,25,333,A,14.002615823759015,39.27359927226813,0.7001307911879507,0.6169082547689351,A,725,Correct
1,relearn,25,334,A,32.812468156737786,61.26725577108987,1.6406234078368893,0.962383803180314,B,2650,Correct
1,relearn,25,335,B,66.36514490729525,41.106316455867244,3.3182572453647623,0.6456965089694487,B,719,Correct
1,relearn,25,336,A,53.39792995309974,62.24693181908659,2.669896497654987,0.977772518556736,B,1235,Correct
1,relearn,25,337,A,58.71231767536883,71.64673356348314,2.9356158837684414,1.1254242590837193,B,697,Incorrect
1,relearn,25,338,B,55.81576941300244,39.509131976658594,2.790788470650122,0.6206079938379012,B,517,Incorrect
1,relearn,25,339,B,53.480560484538444,42.219935648900936,2.674028024226922,0.6631891983481051,B,757,Incorrect
1,relearn,25,340,B,71.18621854676529,39.55686863833479,3.559310927338265,0.6213578395660453,B,743,Incorrect
1,relearn,25,341,A,62.39895558970241,75.04646702665733,3.1199477794851203,1.1788271474440768,B,937,Incorrect
1,relearn,25,342,A,36.03828760077083,67.21469400997968,1.8019143800385415,1.05580594457519,A,1061,Incorrect
1,relearn,25,343,B,57.31458318403878,44.78335282064289,2.865729159201939,0.7034552611222571,B,777,Correct
1,relearn,25,344,A,23.431502540747477,36.930414222756895,1.1715751270373738,0.5801015900812054,A,1037,Correct
1,relearn,25,345,B,37.907779792203094,17.641955311229843,1.8953889896101546,0.27711918600359553,B,2619,Incorrect
1,relearn,25,346,B,44.28916800433222,22.726153158325236,2.214458400216611,0.3569815790327551,A,6563,Incorrect
1,relearn,25,347,A,48.8691352414267,65.73915180520693,2.4434567620713348,1.0326281818223113,B,786,Incorrect
1,relearn,25,348,B,63.900993697748696,31.972462127726672,3.195049684887435,0.50222226068822,B,583,Correct
1,relearn,25,349,B,73.96935651024866,55.541189636290454,3.6984678255124326,0.8724389666650383,B,714,Correct
1,relearn,25,350,B,46.27164287734167,25.33098404695825,2.3135821438670834,0.39789816695062147,A,655,Correct
1,relearn,25,351,A,65.01758312922804,89.20484425493376,3.2508791564614024,1.4012264168796076,B,2093,Correct
1,relearn,25,352,A,32.87105592762787,44.54036155200286,1.6435527963813936,0.6996383632000273,A,1078,Correct
1,relearn,25,353,B,54.441892269510284,45.718269183761535,2.722094613475514,0.7181408930127294,B,928,Incorrect
1,relearn,25,354,A,66.48709158013449,80.40744781940194,3.3243545790067244,1.263037236816689,B,414,Incorrect
1,relearn,25,355,B,47.40401726653045,17.21945520790115,2.3702008633265224,0.27048256989980374,A,962,Correct
1,relearn,25,356,B,68.65975024345569,48.16808440605094,3.4329875121727844,0.7566225005377136,B,672,Correct
1,relearn,25,357,B,62.04425493791681,54.44164141302333,3.1022127468958405,0.8551673035626197,B,8860,Incorrect
1,relearn,25,358,B,80.07835178385864,58.82890560058966,4.003917589192932,0.9240822882676994,B,13084,Incorrect
1,relearn,25,359,B,74.6204854109724,62.850772538751066,3.73102427054862,0.9872576264009172,A,971,Incorrect
1,relearn,25,360,A,47.99665999101101,72.19400930149257,2.3998329995505503,1.1340208462738113,A,1408,Correct
1,relearn,25,361,B,63.814846835709304,54.509775125364456,3.1907423417854655,0.856237545413383,B,5066,Correct
1,relearn,25,362,B,78.33774791897147,52.339560948824015,3.9168873959485735,0.8221479008447037,B,539,Correct
1,relearn,25,363,B,57.67521654809918,33.886586978010946,2.8837608274049593,0.5322892635267537,A,1255,Correct
1,relearn,25,364,A,37.04789475738525,62.19828835314931,1.8523947378692625,0.9770084287805674,B,713,Incorrect
1,relearn,25,365,B,32.35892991678518,19.537195019928063,1.6179464958392589,0.3068895417317855,A,992,Correct
1,relearn,25,366,A,31.317848598957944,57.38065932306095,1.5658924299478971,0.9013332889373348,A,700,Correct
1,relearn,25,367,A,16.680496603139133,43.2490764558616,0.8340248301569566,0.6793549043413905,A,1534,Correct
1,relearn,25,368,A,50.94844224708723,65.07532421986511,2.5474221123543614,1.0222008024955107,B,1363,Incorrect
1,relearn,25,369,A,41.57115427622358,73.05139232748225,2.078557713811179,1.14748858735262,B,1668,Correct
1,relearn,25,370,B,81.96332469664178,62.744339729995914,4.098166234832089,0.9855857837504868,B,665,Incorrect
1,relearn,25,371,B,71.13719953124736,47.20163471694166,3.556859976562368,0.7414415443208643,B,947,Correct
1,relearn,25,372,B,41.156769451810135,27.57333368777192,2.0578384725905066,0.4331209127424211,A,789,Correct
1,relearn,25,373,A,25.526683499078732,58.28234450534729,1.2763341749539365,0.9154969266599424,A,783,Correct
1,relearn,25,374,B,88.21037302008173,61.56442004918173,4.410518651004087,0.9670516487451276,B,650,Incorrect
1,relearn,25,375,A,24.559839967724116,35.62327054429056,1.2279919983862058,0.5595690251939246,A,522,Correct
1,relearn,25,376,B,55.90393562674742,43.436503190277776,2.795196781337371,0.6822989966010313,B,885,Incorrect
1,relearn,25,377,B,40.06696001322035,21.411487318131552,2.003348000661018,0.3363308563053655,A,867,Incorrect
1,relearn,25,378,A,30.812243092738477,47.09972775812502,1.5406121546369238,0.7398407935550241,A,2013,Incorrect
1,relearn,25,379,A,47.37913887407422,55.614610728290536,2.368956943703711,0.8735922624812683,B,624,Incorrect
1,relearn,25,380,A,57.715109052846415,83.15973922958187,2.8857554526423206,1.3062701291904866,B,562,Correct
1,relearn,25,381,B,75.10893873671344,63.114026885566844,3.7554469368356718,0.9913928160108275,A,5547,Correct
1,relearn,25,382,B,67.25711780054387,36.93796544388562,3.3628558900271934,0.5802202043853236,B,2382,Incorrect
1,relearn,25,383,A,51.24094499704506,71.48103600174869,2.5620472498522533,1.1228214878704061,B,519,Correct
1,relearn,25,384,A,54.878360969158344,65.05671648332007,2.7439180484579175,1.0219085128533618,B,736,Correct
1,relearn,25,385,A,58.60267694791963,84.13471319335437,2.9301338473959815,1.3215849844006315,B,864,Correct
1,relearn,25,386,A,44.43450930445603,62.20764138407536,2.2217254652228013,0.9771553458467975,A,757,Correct
1,relearn,25,387,B,51.38276211862262,39.91910116003221,2.569138105931131,0.627047774711325,A,7990,Correct
1,relearn,25,388,B,73.89964751651607,43.42441593373905,3.694982375825804,0.6821091304193108,B,703,Correct
1,relearn,25,389,A,46.56113982984816,69.4213027574641,2.3280569914924083,1.0904672737274104,A,1243,Correct
1,relearn,25,390,A,18.167889664897043,42.613751612609846,0.9083944832448522,0.6693752450403764,A,681,Incorrect
1,relearn,25,391,A,29.719946783837706,54.62744333519826,1.4859973391918855,0.8580858733312579,A,1078,Correct
1,relearn,25,392,A,33.55120023340041,59.546109160592785,1.6775600116700204,0.9353480954438709,A,924,Correct
1,relearn,25,393,A,28.03438254309286,48.05128604420238,1.4017191271546432,0.7547878361600396,A,720,Incorrect
1,relearn,25,394,B,56.641219185968005,26.660040582679848,2.8320609592984005,0.41877493819476386,B,847,Incorrect
1,relearn,25,395,B,68.43385782378816,47.51850716171546,3.4216928911894082,0.7464189650439964,B,718,Correct
1,relearn,25,396,B,62.800011147822474,49.258876796931446,3.140000557391124,0.7737566273466229,A,757,Correct
1,relearn,25,397,A,38.991962225739506,67.01380524530363,1.9495981112869754,1.0526503912387153,B,749,Correct
1,relearn,25,398,A,31.59448386966914,48.587729923065815,1.5797241934834572,0.7632142769045427,A,762,Correct
1,relearn,25,399,B,67.23134547879634,37.48823542027515,3.3615672739398175,0.5888638249619055,B,642,Correct
1,relearn,25,400,B,89.68145384951212,67.25426411722793,4.484072692475606,1.0564275103663545,B,590,Correct
1,relearn,25,401,B,53.93631843563558,23.85280848209855,2.696815921781779,0.3746790394742255,B,1387,Correct
1,relearn,25,402,B,61.80119319471169,48.0172476446717,3.090059659735585,0.754253162230512,B,681,Correct
1,relearn,25,403,A,65.27908493016983,80.31248409403325,3.2639542465084914,1.26154555010681,B,995,Correct
1,relearn,25,404,B,54.606703856200994,24.336785350828308,2.7303351928100494,0.3822813303507695,B,440,Correct
1,relearn,25,405,B,51.50468224708962,34.985898052393324,2.575234112354481,0.5495572015032016,B,1599,Incorrect
1,relearn,25,406,B,71.9845692999094,41.27168909373783,3.5992284649954693,0.6482941762906438,A,262,Incorrect
1,relearn,25,407,A,25.604253991494097,41.31466821971722,1.2802126995747047,0.6489692908228166,A,1266,Incorrect
1,relearn,25,408,A,46.9311839136356,56.73249117032068,2.34655919568178,0.8911518874026361,B,616,Correct
1,relearn,25,409,A,31.60078450329032,58.16153964898397,1.5800392251645161,0.9135993284135975,A,484,Incorrect
1,relearn,25,410,B,74.08759495629036,51.028443374976874,3.7043797478145177,0.8015529141547505,B,1020,Correct
1,relearn,25,411,B,49.88320701689554,39.00735126495127,2.494160350844777,0.6127260408498371,B,600,Incorrect
1,relearn,25,412,B,75.93157162417451,44.87585121838542,3.796578581208726,0.704908222556341,B,467,Incorrect
1,relearn,25,413,A,27.46399494260035,47.38720017215169,1.3731997471300175,0.7443563996751035,A,1527,Correct
1,relearn,25,414,B,42.092682058628625,23.117177911113057,2.1046341029314313,0.3631237814864051,B,2969,Correct
1,relearn,25,415,B,33.96050642317847,21.143015817191706,1.6980253211589236,0.3321137158301113,B,1283,Correct
1,relearn,25,416,B,58.530801104257236,30.89749271167434,2.926540055212862,0.4853366805867015,A,2498,Correct
1,relearn,25,417,B,47.63921230993668,19.677494912669413,2.3819606154968342,0.3090933672934638,B,2911,Correct
1,relearn,25,418,B,43.21017192942702,30.91023592665495,2.160508596471351,0.48553685053953244,B,1073,Correct
1,relearn,25,419,A,45.3093313675299,71.94540725077843,2.2654665683764947,1.1301158143928567,B,2100,Correct
1,relearn,25,420,B,57.47327742124962,40.0355009584714,2.8736638710624813,0.6288761784696044,B,1428,Correct
1,relearn,25,421,B,50.62183270687862,43.577106180350455,2.5310916353439312,0.6845075832044567,B,1758,Correct
1,relearn,25,422,A,24.338491626346904,50.11647991929627,1.2169245813173453,0.7872278256912076,A,1018,Correct
1,relearn,25,423,A,43.6788829023414,66.37819244276612,2.18394414511707,1.0426662086838179,B,2332,Incorrect
1,relearn,25,424,B,40.22328992188011,26.02797901820891,2.0111644960940054,0.408846538356972,B,2539,Correct
1,relearn,25,425,A,29.83003744711034,41.92312991619821,1.491501872355517,0.6585269848010938,A,911,Correct
1,relearn,25,426,B,57.23653522068177,47.28874598670349,2.861826761034089,0.7428098849465076,B,1061,Incorrect
1,relearn,25,427,B,47.699722078183214,30.270456616841784,2.384986103909161,0.4754872206413935,B,1673,Incorrect
1,relearn,25,428,B,75.62958707163247,49.750905059779356,3.781479353581624,0.7814853892262305,B,1408,Incorrect
1,relearn,25,429,A,65.61524742916028,79.82661669875702,3.280762371458014,1.253913562908717,B,545,Correct
1,relearn,25,430,A,58.14235939993448,74.05815126143834,2.9071179699967242,1.1633027197068817,B,835,Incorrect
1,relearn,25,431,A,12.560049445546273,37.32679126185741,0.6280024722773137,0.5863278660516545,A,854,Incorrect
1,relearn,25,432,B,69.1796623424255,45.91822103729765,3.4589831171212753,0.7212817293834329,B,3076,Correct
1,relearn,25,433,B,48.14019798646629,32.5270733556202,2.4070098993233144,0.5109340734839637,A,1499,Incorrect
1,relearn,25,434,B,79.44439496952369,48.95131389725756,3.972219748476184,0.7689254406159615,B,477,Incorrect
1,relearn,25,435,A,55.40947318873774,77.14539100060554,2.770473659436887,1.2117969681290726,B,571,Incorrect
1,relearn,25,436,A,48.10174313031537,75.85887236527688,2.4050871565157683,1.1915883806617982,B,461,Incorrect
1,relearn,25,437,B,57.85917280359348,46.57047057038499,2.892958640179674,0.7315272410907057,B,489,Correct
1,relearn,25,438,A,46.871767748739714,69.33449755820826,2.343588387436986,1.0891037408460325,A,1195,Incorrect
1,relearn,25,439,B,36.33661918357069,25.98649227562423,1.8168309591785345,0.4081948661283449,B,364,Correct
1,relearn,25,440,A,68.64308431150913,83.96802732697459,3.4321542155754567,1.318966688934252,B,501,Correct
1,relearn,25,441,B,52.96442168105758,22.029648297555323,2.6482210840528793,0.34604090626383344,A,617,Correct
1,relearn,25,442,A,54.791248182554696,78.87470955169098,2.7395624091277346,1.2389610404081053,A,946,Correct
1,relearn,25,443,A,33.9456618492937,60.20061252969696,1.697283092464685,0.9456290103245081,B,1055,Incorrect
1,relearn,25,444,B,38.90290803900119,29.173027781430967,1.9451454019500596,0.4582488488055724,B,892,Correct
1,relearn,25,445,B,53.05426170820161,22.172526398097023,2.65271308541008,0.34828523021893687,B,1131,Correct
1,relearn,25,446,A,64.4255431750331,81.70026581713643,3.221277158751655,1.2833447744372455,B,966,Correct
1,relearn,25,447,A,21.486813844955083,49.62453811568498,1.074340692247754,0.7795004219101129,A,863,Incorrect
1,relearn,25,448,A,44.332169590437225,53.35777628787233,2.2166084795218612,0.8381419899893369,B,2030,Incorrect
1,relearn,25,449,B,38.590029287129795,22.766972845517476,1.9295014643564898,0.35762277317978003,B,870,Correct
1,relearn,25,450,B,79.74542416668554,48.41118817549233,3.987271208334277,0.7604411656183987,B,2433,Incorrect
1,relearn,25,451,A,36.97788325624285,67.00092512369403,1.8488941628121425,1.0524480707615849,A,4841,Incorrect
1,relearn,25,452,A,57.6136774610326,76.37197622064791,2.88068387305163,1.1996481971746094,B,417,Correct
1,relearn,25,453,A,50.287499283826946,67.44176771616317,2.5143749641913473,1.0593728100110376,B,498,Incorrect
1,relearn,25,454,A,36.321655988746215,58.69979476087591,1.8160827994373108,0.9220542199399819,A,510,Incorrect
1,relearn,25,455,A,38.22806954525106,66.75492482655224,1.911403477262553,1.0485839071301772,B,449,Incorrect
1,relearn,25,456,A,32.348559029718466,54.41603816521147,1.6174279514859233,0.8547651286864507,B,614,Incorrect
1,relearn,25,457,B,56.400977718944276,25.503309173288528,2.8200488859472137,0.4006050437051621,B,535,Incorrect
1,relearn,25,458,B,68.51934139591471,38.906095571108025,3.4259670697957354,0.6111355201302768,B,718,Correct
1,relearn,25,459,A,55.53483219970227,73.51086569859704,2.7767416099851134,1.154705978188692,B,1318,Correct
1,relearn,25,460,A,28.889830423876575,51.81756028983053,1.4444915211938285,0.813948333667389,A,3299,Incorrect
1,relearn,25,461,B,44.92429958461013,30.56525915304896,2.2462149792305066,0.480117968051434,B,556,Incorrect
1,relearn,25,462,A,20.66597016302311,49.63034624725269,1.0332985081511554,0.7795916558274341,A,1641,Incorrect
1,relearn,25,463,A,16.20056833618962,32.73778745835355,0.8100284168094809,0.514243962869738,A,1033,Incorrect
1,relearn,25,464,B,66.59692961239895,41.76178965994873,3.3298464806199477,0.6559926579822857,B,587,Incorrect
1,relearn,25,465,A,32.065598302959195,55.81460669627505,1.6032799151479598,0.8767337918001069,B,1014,Correct
1,relearn,25,466,B,38.36827553516585,24.9222626629711,1.9184137767582925,0.391477986464126,A,686,Correct
1,relearn,25,467,A,37.8434939692143,47.263305661435254,1.892174698460715,0.7424102692516694,B,1462,Correct
1,relearn,25,468,A,21.446831002964014,33.51163338773195,1.0723415501482008,0.5263995063034657,A,3401,Correct
1,relearn,25,469,B,60.11856790196183,46.103747514513174,3.0059283950980915,0.7241959724727662,B,739,Correct
1,relearn,25,470,A,33.95155165449994,42.43196561954889,1.697577582724997,0.6665197573387474,A,716,Incorrect
1,relearn,25,471,A,34.501439640508586,65.60044873440182,1.7250719820254292,1.0304494390809529,B,450,Incorrect
1,relearn,25,472,A,40.06945986677269,61.313369022466134,2.0034729933386344,0.963108148439098,B,627,Correct
1,relearn,25,473,A,13.633368293174478,34.51736543261884,0.6816684146587239,0.542197508321948,A,710,Incorrect
1,relearn,25,474,B,40.63014884841777,29.089897932641456,2.0315074424208883,0.4569430481943166,B,643,Correct
1,relearn,25,475,A,42.450047192989736,72.1230265029542,2.1225023596494865,1.1329058510817145,A,1609,Incorrect
1,relearn,25,476,A,46.89765857170585,78.10870330472878,2.3448829285852923,1.2269286424178036,B,456,Correct
1,relearn,25,477,B,62.40484389102192,36.365900484567845,3.120242194551096,0.5712342290174791,B,682,Incorrect
1,relearn,25,478,B,54.76485966302136,37.93120517644711,2.738242983151068,0.5958219776206668,B,964,Correct
1,relearn,25,479,B,79.44984454400954,48.571459158460804,3.9724922272004766,0.7629586963317858,B,820,Incorrect
1,relearn,25,480,B,70.47682027479432,60.83725815205466,3.523841013739716,0.9556294163752033,B,830,Correct
1,relearn,25,481,B,83.07237701334326,55.41385025490048,4.153618850667163,0.8704387243396013,B,2082,Correct
1,relearn,25,482,A,53.68249143406998,81.15304869952004,2.684124571703499,1.2747491080541342,A,1009,Correct
1,relearn,25,483,B,58.66300315458186,44.638362972323606,2.9331501577290933,0.7011777659106323,B,3328,Correct
1,relearn,25,484,A,30.03798656335325,39.907810146592254,1.5018993281676627,0.6268704158869521,A,881,Incorrect
1,relearn,25,485,B,46.652318516949535,37.82199717649667,2.332615925847477,0.5941065423688793,B,573,Incorrect
1,relearn,25,486,A,46.65054677520346,63.62574519984536,2.332527338760173,0.999430868495051,B,211,Incorrect
1,relearn,25,487,B,48.90628392780979,20.516166402508485,2.4453141963904894,0.322267188249732,B,812,Correct
1,relearn,25,488,A,37.4512783506763,49.58985166861107,1.8725639175338147,0.7789555684735804,A,656,Correct
1,relearn,25,489,B,70.57963063732103,42.45189666953857,3.5289815318660516,0.6668328335398769,A,1149,Correct
1,relearn,25,490,A,21.03969256308806,51.69705667331265,1.0519846281544032,0.8120554672854711,B,2538,Incorrect
1,relearn,25,491,A,44.87361087442273,73.46871748328958,2.2436805437211365,1.1540439155708329,A,286,Correct
1,relearn,25,492,A,69.00343534763925,87.950683917578,3.4501717673819625,1.3815261123683051,B,1521,Incorrect
1,relearn,25,493,A,61.432747939503585,86.77794697712102,3.0716373969751793,1.36310480358464,A,290,Correct
1,relearn,25,494,A,56.30771201422275,72.84632671495284,2.8153856007111373,1.1442674242434885,A,407,Correct
1,relearn,25,495,A,44.15887996432286,53.18794098252568,2.207943998216143,0.8354742232513508,A,362,Correct
1,relearn,25,496,A,39.00215758294145,65.47105164544095,1.9501078791470723,1.0284168743605764,B,1740,Correct
1,relearn,25,497,B,52.742857060195604,24.765834891187403,2.63714285300978,0.3890208247708606,B,268,Correct
1,relearn,25,498,B,67.35178018457901,46.77198816393892,3.3675890092289507,0.7346926720480964,B,491,Correct
1,relearn,25,499,B,52.7334473264836,30.201968772234785,2.63667236632418,0.47441141609400567,A,204,Correct
1,relearn,25,500,A,51.08430158902307,73.0195112718933,2.554215079451154,1.1469878009024854,A,28,Correct
1,relearn,25,501,A,30.80077728419665,62.35086031235383,1.5400388642098324,0.9794050235114709,A,153,Incorrect
1,relearn,25,502,B,34.365478905032205,19.280476667696075,1.7182739452516103,0.302857019284717,A,1509,Correct
1,relearn,25,503,B,55.416863623720424,32.64874505032316,2.7708431811860215,0.5128452879951068,A,283,Incorrect
1,relearn,25,504,B,56.94887408479313,37.73115999133223,2.847443704239657,0.5926796752009522,A,397,Correct
1,relearn,25,505,B,79.56941249002789,51.65861282178487,3.9784706245013943,0.8114515926777943,B,342,Correct
1,relearn,25,506,B,66.5326051540176,39.93385341991525,3.32663025770088,0.627279502667687,A,363,Correct
1,relearn,25,507,B,53.87902373028925,32.843560649267445,2.6939511865144623,0.5159054442673472,B,1215,Correct
1,relearn,25,508,B,45.86338740468886,27.328295871875138,2.293169370234443,0.42927186773105597,A,1001,Correct
1,relearn,25,509,B,41.928521106571225,19.255627135000527,2.0964260553285614,0.30246668373790964,B,238,Incorrect
1,relearn,25,510,B,55.94589321806137,47.220543300308115,2.7972946609030687,0.7417385596538335,A,291,Correct
1,relearn,25,511,B,64.95456987468074,41.44832606564467,3.2477284937340367,0.6510687833571183,B,556,Incorrect
1,relearn,25,512,A,40.39472886148656,71.69368331839573,2.019736443074328,1.1261617441093255,A,736,Correct
1,relearn,25,513,B,50.68351229360621,35.716422041497026,2.5341756146803105,0.5610322454903981,A,566,Incorrect
1,relearn,25,514,B,44.67517449015197,26.229703559823726,2.2337587245075983,0.41201522004690133,B,638,Incorrect
1,relearn,25,515,A,47.09538970383998,57.3834656101105,2.3547694851919987,0.9013773699912284,A,208,Correct
1,relearn,25,516,B,80.22595914190407,50.91824811202849,4.011297957095204,0.7998219710120553,A,506,Correct
1,relearn,25,517,A,65.15537812955554,82.58131642780154,3.257768906477777,1.297184285066777,A,761,Correct
1,relearn,25,518,B,73.26834758418033,57.92077357076276,3.6634173792090166,0.9098173837007307,B,1383,Correct
1,relearn,25,519,A,56.934710030990445,74.3916296774687,2.8467355015495226,1.1685409864165406,B,349,Incorrect
1,relearn,25,520,B,54.0599186451708,23.932831623494568,2.7029959322585397,0.37593604003986003,A,10315,Incorrect
1,relearn,25,521,B,70.1578283493575,42.47347901203517,3.507891417467875,0.6671718481830498,B,339,Incorrect
1,relearn,25,522,A,64.446007883095,76.65168540852638,3.222300394154751,1.204041858823512,B,454,Correct
1,relearn,25,523,A,17.028759565568137,45.56639475233122,0.8514379782784068,0.7157552550224813,A,615,Incorrect
1,relearn,25,524,B,42.09875129936214,24.29363488356517,2.104937564968107,0.3816035243960053,B,300,Correct
1,relearn,25,525,A,68.916312175158,87.23273618380234,3.4458156087578997,1.37024861573785,B,1236,Correct
1,relearn,25,526,B,55.94889985033943,44.16519910939673,2.7974449925169718,0.6937453253320561,A,619,Incorrect
1,relearn,25,527,B,66.82375377410084,40.07838882939168,3.341187688705042,0.6295498595706606,B,1138,Correct
1,relearn,25,528,A,32.70904641002255,47.50473533057329,1.6354523205011275,0.7462026376262828,A,1727,Incorrect
1,relearn,25,529,A,45.72078319384357,57.461048122865236,2.2860391596921787,0.902596033251815,B,30,Correct
1,relearn,25,530,B,32.856158235134316,10.434516058403226,1.642807911756716,0.16390499496422148,A,503,Incorrect
1,relearn,25,531,A,23.314889163638966,38.70251346483261,1.1657444581819483,0.607937659882891,B,198,Incorrect
1,relearn,25,532,A,44.60705864394004,68.65147948067573,2.230352932197002,1.0783749179728066,B,214,Incorrect
1,relearn,25,533,B,40.84778053710844,25.44398321527494,2.042389026855422,0.3996731537358488,B,79,Incorrect
1,relearn,25,534,B,65.19065860740736,38.982128305319186,3.259532930370368,0.6123298395264274,B,77,Correct
1,relearn,25,535,A,16.829215903287643,43.73055740464163,0.8414607951643822,0.6869179893990444,A,608,Incorrect
1,relearn,25,536,B,84.99416329629551,56.70430968530164,4.249708164814775,0.8907092136711209,B,818,Incorrect
1,relearn,25,537,A,44.96694138717288,76.75593956571576,2.248347069358644,1.205679479295174,B,530,Correct
1,relearn,25,538,B,72.87730721683182,40.548475542927356,3.643865360841591,0.6369339643996299,A,611,Incorrect
1,relearn,25,539,A,60.5356519031281,83.83635185858529,3.026782595156405,1.3168983355135027,B,406,Incorrect
1,relearn,25,540,B,74.93814205029652,43.87325700841487,3.7469071025148257,0.6891595095334653,B,155,Correct
1,relearn,25,541,A,33.556320539119454,51.58240783170777,1.6778160269559725,0.8102545674928288,A,37,Incorrect
1,relearn,25,542,A,57.43586241423651,73.37611351597155,2.8717931207118257,1.1525892958537347,B,114,Incorrect
1,relearn,25,543,A,36.178490368941,57.584661150815194,1.80892451844705,0.9045377421542928,B,169,Correct
1,relearn,25,544,A,21.155191843571913,46.05168582577341,1.0577595921785956,0.7233781893783747,A,610,Incorrect
1,relearn,25,545,A,56.06773191497419,80.7781746258988,2.803386595748709,1.2688605998755855,B,91,Correct
1,relearn,25,546,A,27.183550220656038,40.98364730106364,1.3591775110328017,0.6437696263916834,A,192,Correct
1,relearn,25,547,B,57.69303095131902,45.024545927277885,2.884651547565951,0.7072439135817622,B,855,Incorrect
1,relearn,25,548,A,45.20614900251853,69.9233820478578,2.260307450125927,1.0983539167785126,B,211,Correct
1,relearn,25,549,B,56.65719278516918,37.799225372273234,2.832859639258459,0.5937488437045926,A,464,Correct
1,relearn,25,550,A,56.0847101604485,76.7322806135248,2.8042355080224253,1.2053078453432,A,239,Correct
1,relearn,25,551,B,39.288484393885014,23.965866704850708,1.9644242196942507,0.37645495388435607,A,986,Incorrect
1,relearn,25,552,A,11.222586441143179,31.770074562914957,0.5611293220571589,0.499043164254268,A,740,Incorrect
1,relearn,25,553,A,16.06302751919168,39.56238124704659,0.8031513759595841,0.6214444314212008,B,1141,Incorrect
1,relearn,25,554,B,86.47109089281119,68.87063423095273,4.323554544640559,1.0818173927401542,B,854,Correct
1,relearn,25,555,A,46.69802877302038,62.73926667454659,2.334901438651019,0.9855060963818327,A,1020,Correct
1,relearn,25,556,A,32.811942550876495,49.62868672136315,1.6405971275438247,0.779565588055719,A,431,Incorrect
1,relearn,25,557,A,59.2986371046621,70.84712511722417,2.964931855233105,1.1128640389811417,B,226,Incorrect
1,relearn,25,558,A,51.00566673239091,61.27088954709378,2.5502833366195454,0.9624408824003073,A,569,Incorrect
1,relearn,25,559,B,55.80666209561401,42.710438841581585,2.7903331047807005,0.6708940044815443,B,547,Correct
1,relearn,25,560,B,73.28875070301933,61.46354111673769,3.6644375351509666,0.9654670461797865,B,708,Correct
1,relearn,25,561,B,57.45891285479766,45.02946578136366,2.8729456427398827,0.7073211944690253,B,1151,Correct
1,relearn,25,562,B,74.50088194182248,62.63149136945867,3.7250440970911245,0.9838131658483193,B,794,Incorrect
1,relearn,25,563,A,53.34807752054003,61.394652709327396,2.6674038760270014,0.9643849496065983,A,1137,Correct
1,relearn,25,564,B,59.366797497571355,38.1957280782387,2.968339874878568,0.5999770936455404,A,823,Correct
1,relearn,25,565,B,81.05985751396668,65.81785985782639,4.052992875698334,1.0338645250217497,A,6551,Incorrect
1,relearn,25,566,B,40.452806389958155,31.500020433215937,2.0226403194979077,0.49480116390459783,B,471,Correct
1,relearn,25,567,B,52.32752675273126,36.97882304297765,2.616376337636563,0.5808619940510777,B,503,Incorrect
1,relearn,25,568,A,41.87278058467458,73.93477809905326,2.0936390292337292,1.1613647786038863,A,509,Correct
1,relearn,25,569,A,21.489446088558974,41.538623107713036,1.0744723044279487,0.6524871659771325,B,521,Incorrect
1,relearn,25,570,A,19.919940435829098,35.29879668318968,0.9959970217914548,0.5544722017023423,A,248,Correct
1,relearn,25,571,B,79.45977491369999,52.759296340104626,3.9729887456849995,0.8287410889531979,B,525,Incorrect
1,relearn,25,572,A,63.01304591422088,72.99492802194904,3.150652295711044,1.146601648115354,B,239,Incorrect
1,relearn,25,573,A,32.92187897167913,65.56426462187551,1.6460939485839563,1.0298810603705064,B,573,Correct
1,relearn,25,574,B,54.04869373067721,46.99378651039157,2.7024346865338607,0.7381766723270663,B,2039,Incorrect
1,relearn,25,575,A,60.55661534352255,84.08678480745208,3.0278307671761273,1.3208321270753862,A,272,Correct
1,relearn,25,576,B,70.31837663903461,39.23475033815036,3.5159188319517307,0.6162980171388142,A,349,Incorrect
1,relearn,25,577,B,42.80250156264982,32.18908408655509,2.140125078132491,0.505624950460528,B,257,Correct
1,relearn,25,578,B,66.561009827426,44.17461329423669,3.3280504913713003,0.6938932030017201,A,439,Correct
1,relearn,25,579,B,65.30418569268913,50.233882937709126,3.265209284634457,0.7890719879919832,B,442,Correct
1,relearn,25,580,A,64.40628047367551,79.2267935252994,3.2203140236837755,1.24449156253278,A,245,Incorrect
1,relearn,25,581,A,44.113396478561775,58.755008628826616,2.2056698239280887,0.922921517349633,B,44,Incorrect
1,relearn,25,582,A,41.47471660265987,57.933578691411014,2.0737358301329936,0.910018526065515,A,4,Correct
1,relearn,25,583,B,62.961405375183475,42.88902908781903,3.1480702687591737,0.673699293509456,B,99,Correct
1,relearn,25,584,B,59.97732447977351,32.41245838222447,2.998866223988675,0.5091337056919065,A,26,Correct
1,relearn,25,585,B,77.16106412936472,54.694848607069254,3.858053206468236,0.8591446728658735,B,145,Correct
1,relearn,25,586,B,54.221730192026584,42.35681658990561,2.7110865096013295,0.6653393191414887,A,229,Correct
1,relearn,25,587,A,52.64557399207776,75.59440803947997,2.6322786996038876,1.1874341847464973,B,97,Correct
1,relearn,25,588,A,18.343937038623356,33.83679523156937,0.9171968519311677,0.5315071366026024,A,220,Correct
1,relearn,25,589,B,57.467209618072516,34.182636554675504,2.8733604809036257,0.5369395994024924,B,127,Correct
1,relearn,25,590,B,54.15690728147416,46.366815207510385,2.707845364073708,0.7283282301313505,A,47,Incorrect
1,relearn,25,591,B,55.26964674700869,38.2772003136507,2.7634823373504345,0.6012568565267499,B,33,Correct
1,relearn,25,592,A,45.18616702335207,56.497135859492595,2.2593083511676038,0.8874549348252321,A,141,Incorrect
1,relearn,25,593,B,38.70403633132023,22.564899134650204,1.9352018165660114,0.3544486067520588,B,27,Correct
1,relearn,25,594,B,38.17266839617213,24.746864587547527,1.9086334198086063,0.3887228399381035,A,222,Correct
1,relearn,25,595,A,66.44869780343492,80.7714839468374,3.3224348901717464,1.2687555029346513,B,45,Incorrect
1,relearn,25,596,A,15.194098430854698,38.76894666062047,0.7597049215427348,0.608981190082099,A,178,Incorrect
1,relearn,25,597,B,80.87737747586809,50.66838998559837,4.0438688737934045,0.7958972087398924,107,213,Incorrect
1,relearn,25,598,B,83.56702757183476,61.664159258996484,4.178351378591738,0.9686183485892719,A,86,Incorrect
1,relearn,25,599,B,56.81601352592826,37.21995445199392,2.840800676296413,0.5846496773666541,B,877,Correct
1,relearn,25,600,A,56.994455770664175,85.66756620210563,2.8497227885332084,1.3456629831572617,B,687,Incorrect
1,relearn,25,601,B,48.46376746282805,27.64928004061091,2.423188373141403,0.4343138752631507,B,1225,Correct
1,relearn,25,602,A,31.42560706008481,49.06114324343038,1.5712803530042405,0.7706506359513869,A,930,Correct
1,relearn,25,603,B,43.36660754798133,25.742797815213493,2.1683303773990668,0.40436692249561046,B,871,Correct
1,relearn,25,604,B,71.36056995567859,51.578861669943805,3.568028497783929,0.8101988645140981,B,671,Correct
1,relearn,25,605,B,62.85574230508642,55.3976550796696,3.1427871152543214,0.8701843311219564,B,585,Correct
1,relearn,25,606,A,67.55320447638118,82.33876763959071,3.3776602238190594,1.293374337610876,B,577,Incorrect
1,relearn,25,607,B,61.20199640967274,47.01888783384576,3.0600998204836367,0.7385709629938617,B,613,Correct
1,relearn,25,608,A,30.558630179649324,56.14020739081694,1.527931508982466,0.8818483155499895,A,798,Correct
1,relearn,25,609,B,84.05263973284943,60.128857632365865,4.202631986642472,0.9445018870329359,B,907,Correct
1,relearn,25,610,B,38.61645462821352,29.088920521089868,1.9308227314106758,0.45692769504956654,A,813,Incorrect
1,relearn,25,611,B,45.976975522794106,25.161736481494305,2.2988487761397054,0.395239632409124,B,1710,Correct
1,relearn,25,612,B,79.7854532855949,56.552094153515085,3.9892726642797447,0.8883182176890064,B,1176,Correct
1,relearn,25,613,B,32.85136142236138,14.276287960822458,1.642568071118069,0.22425140689126116,A,2496,Incorrect
1,relearn,25,614,A,30.825727454555945,62.0695214323199,1.5412863727277972,0.974985762718052,A,1519,Correct
1,relearn,25,615,A,46.04109502109261,54.71258704426175,2.3020547510546305,0.8594233075857242,A,956,Correct
1,relearn,25,616,B,83.55404859586103,56.43690895218259,4.177702429793052,0.8865088927774644,A,1308,Incorrect
1,relearn,25,617,A,48.879098482102,56.93605396939897,2.4439549241051,0.8943494443732789,A,726,Correct
1,relearn,25,618,B,59.2249929537871,47.056526336772734,2.961249647689355,0.7391621872152991,B,1024,Correct
1,relearn,25,619,B,87.77905314897151,65.69865873189599,4.388952657448575,1.0319921181141367,B,831,Correct
1,relearn,25,620,A,49.72395738924759,69.19668328285744,2.486197869462379,1.086938959271023,A,1265,Correct
1,relearn,25,621,B,40.70039654644377,18.656212414582814,2.0350198273221882,0.2930510993273203,B,3057,Correct
1,relearn,25,622,A,28.112579600893444,42.68875012729144,1.4056289800446722,0.6705533189541456,A,1012,Correct
1,relearn,25,623,B,50.385179424563624,26.52385673993644,2.519258971228181,0.4166357673952622,B,901,Correct
1,relearn,25,624,B,74.67187942274114,56.680508892645264,3.733593971137057,0.8903353516943265,B,1192,Correct
1,relearn,25,625,A,42.023738472271845,51.977883354787814,2.101186923613592,0.8164666824827429,B,1953,Incorrect
1,relearn,25,626,B,73.75676008718834,58.936065324721255,3.687838004359417,0.9257655492781621,B,417,Correct
1,relearn,25,627,A,43.64315145277483,67.62487430076808,2.1821575726387414,1.0622490415161312,A,581,Correct
1,relearn,25,628,A,53.12811974215025,69.2854006151166,2.6564059871075125,1.0883325278673803,B,796,Incorrect
1,relearn,25,629,B,41.54192327791631,31.178295730744622,2.0770961638958156,0.48974752409578665,B,1264,Correct
1,relearn,25,630,B,86.83461402533962,65.59506938573968,4.3417307012669815,1.0303649404697626,B,933,Correct
1,relearn,25,631,A,32.30410242406463,56.55649806250021,1.6152051212032317,0.8883873941295802,A,772,Correct
1,relearn,25,632,A,36.639620835992105,65.97850420889432,1.8319810417996052,1.0363879205875284,B,5950,Incorrect
1,relearn,25,633,A,19.85186739690773,46.57327303453943,0.9925933698453864,0.7315712620947036,A,729,Correct
1,relearn,25,634,A,39.41894741432156,61.345093409974574,1.970947370716078,0.9636064739527787,B,1359,Incorrect
1,relearn,25,635,A,36.43497278317338,46.87344069859388,1.821748639158669,0.7362862847358969,B,1290,Incorrect
1,relearn,25,636,B,78.19740219445362,57.617221639724505,3.909870109722681,0.9050492011180669,B,615,Correct
1,relearn,25,637,A,40.897861536216965,57.33905643810597,2.0448930768108484,0.9006797923486213,A,802,Correct
1,relearn,25,638,A,50.15524667541162,71.83591086255382,2.5077623337705806,1.1283958491486517,B,1978,Incorrect
1,relearn,25,639,B,49.127781213865816,38.62458782189429,2.456389060693291,0.6067136067459844,B,556,Correct
1,relearn,25,640,B,70.61812567678076,45.50072201130532,3.5309062838390384,0.7147236700187409,B,816,Correct
1,relearn,25,641,B,87.40686384419428,65.54320073835501,4.370343192209714,1.0295501896618862,B,764,Correct
1,relearn,25,642,A,57.732116406143646,86.41172771037427,2.886605820307182,1.3573522447945667,A,859,Correct
1,relearn,25,643,A,57.527002469634354,76.9375330681921,2.8763501234817177,1.2085319433617705,A,1128,Correct
1,relearn,25,644,A,27.033182405634832,38.197876296082256,1.3516591202817414,0.6000108377725186,A,3425,Correct
1,relearn,25,645,B,78.00103910357568,58.045890393740294,3.900051955178784,0.9117827141602641,B,886,Correct
1,relearn,25,646,A,40.30453767260003,57.43816787321767,2.0152268836300014,0.9022366311307894,A,9588,Correct
1,relearn,25,647,A,65.919269828077,84.35670511445866,3.2959634914038505,1.3250720253431194,B,701,Incorrect
1,relearn,25,648,B,64.73761491368805,33.24107845128416,3.2368807456844024,0.5221496392997815,B,719,Correct
1,relearn,25,649,B,66.72714794536763,46.127373226187,3.3363573972683813,0.7245670842839179,B,14461,Correct
1,relearn,25,650,B,62.62558347350907,49.945796619675846,3.1312791736754537,0.7845467386903179,B,1105,Correct
1,relearn,25,651,A,29.78213596889556,60.71335385368692,1.489106798444778,0.9536831322077018,A,2003,Correct
1,relearn,25,652,A,30.91880839829986,52.66252747627514,1.5459404199149929,0.827221047194683,A,1203,Correct
1,relearn,25,653,B,34.31031799363454,23.58316471805016,1.7155158996817272,0.3704434851331219,B,952,Correct
1,relearn,25,654,B,40.502259641487214,27.066033080670444,2.025112982074361,0.42515225344026286,B,2946,Correct
1,relearn,25,655,B,60.025801548142255,43.84641529966156,3.0012900774071123,0.6887378809583192,A,1704,Incorrect
1,relearn,25,656,B,49.17526708735375,32.797859869931386,2.4587633543676874,0.5151875781042197,B,387,Correct
1,relearn,25,657,B,33.65285822499473,19.158473884154983,1.6826429112497365,0.3009406040422661,B,1238,Correct
1,relearn,25,658,B,68.0070884781849,46.42684345471633,3.4003544239092447,0.7292711516335009,B,574,Correct
1,relearn,25,659,A,16.222384398214263,37.00217148121811,0.8111192199107131,0.5812287504613228,A,797,Correct
1,relearn,25,660,A,62.37216385665679,73.76038569440202,3.1186081928328395,1.1586254291174154,B,717,Incorrect
1,relearn,25,661,A,33.827267694468816,58.01413787764919,1.6913633847234408,0.9112839468038402,B,685,Incorrect
1,relearn,25,662,A,55.61426377637942,83.03438625391635,2.7807131888189707,1.3043010892532045,B,683,Incorrect
1,relearn,25,663,A,48.83698997618764,67.61003135388779,2.4418494988093817,1.0620158890517473,A,1401,Correct
1,relearn,25,664,A,35.59624609938075,51.39243892493692,1.7798123049690375,0.8072705428832199,A,749,Correct
1,relearn,25,665,B,32.92892573789485,10.771013411775641,1.6464462868947425,0.16919068303075743,A,1564,Incorrect
1,relearn,25,666,B,81.28649425426201,53.26724297851109,4.064324712713101,0.8367198960913645,B,780,Correct
1,relearn,25,667,A,49.044086080237555,55.99686272490368,2.4522043040118775,0.8795966628031676,B,2045,Incorrect
1,relearn,25,668,B,78.45577965186837,51.006401937568235,3.922788982593419,0.8012066880655627,B,1080,Correct
1,relearn,25,669,B,46.086018685260484,19.542324107751327,2.3043009342630243,0.30697010925491136,A,1012,Incorrect
1,relearn,25,670,A,66.58219875998243,78.0066313645417,3.3291099379991214,1.2253253001306568,B,530,Incorrect
1,relearn,25,671,B,42.44702616530741,19.36827537472739,2.1223513082653707,0.30423615814973837,B,938,Correct
1,relearn,25,672,B,45.61862024014545,35.128848718096734,2.2809310120072723,0.5518026653091996,A,678,Incorrect
1,relearn,25,673,B,61.625312146188776,43.173732714923794,3.081265607309439,0.6781714076262696,B,581,Correct
1,relearn,25,674,A,48.81025395953639,73.98672699661098,2.4405126979768195,1.1621807899785335,A,972,Correct
1,relearn,25,675,A,45.34869639690794,54.63872832341887,2.267434819845397,0.8582631375117061,A,885,Correct
1,relearn,25,676,A,21.385256087363118,34.350093612151475,1.0692628043681558,0.5395700087102837,B,1546,Incorrect
1,relearn,25,677,A,21.603040825567504,35.26412297290039,1.0801520412783752,0.5539275483347545,A,514,Correct
1,relearn,25,678,A,59.94606926981876,78.56848819396899,2.997303463490938,1.2341509265691468,B,619,Incorrect
1,relearn,25,679,A,11.545292126871221,37.79372047783566,0.577264606343561,0.5936623730249733,A,674,Correct
1,relearn,25,680,A,49.811258932358335,68.45692846869474,2.4905629466179167,1.075318917822867,B,6361,Incorrect
1,relearn,25,681,B,68.82827915972418,45.79845089186807,3.4414139579862084,0.7194003843384283,B,819,Correct
1,relearn,25,682,B,74.73685110310167,42.91296503543562,3.736842555155084,0.6740752784954009,B,749,Correct
1,relearn,25,683,A,55.31236005003767,72.20502205645461,2.7656180025018835,1.134193834224234,A,11325,Correct
1,relearn,25,684,A,22.70508040205094,49.149130222390006,1.135254020102547,0.7720327321849426,A,2491,Correct
1,relearn,25,685,A,14.227182260822016,30.694816598439733,0.7113591130411008,0.48215305164472155,A,1005,Correct
1,relearn,25,686,A,31.780542474007,62.298094866974445,1.5890271237003502,0.9785761858336346,A,3786,Correct
1,relearn,25,687,B,56.2020094640407,27.87655360700208,2.810100473202035,0.4378838800957989,A,9297,Incorrect
1,relearn,25,688,A,40.37763783288112,66.73729731302888,2.0188818916440563,1.0483070147952467,A,1883,Correct
1,relearn,25,689,A,30.887223798810258,43.267728955014356,1.544361189940513,0.6796478971129374,B,1270,Incorrect
1,relearn,25,690,A,26.238609357649224,39.42061478265432,1.3119304678824613,0.6192175690059001,A,480,Correct
1,relearn,25,691,B,43.152442280664374,35.00554366128934,2.157622114033219,0.5498657940061166,A,1498,Incorrect
1,relearn,25,692,B,63.71110528770619,38.3222120985989,3.185555264385309,0.6019638999913409,B,520,Correct
1,relearn,25,693,A,14.226635854925146,41.861028810260024,0.7113317927462574,0.6575515029101179,A,694,Correct
1,relearn,25,694,B,65.6163232270797,37.153139917981704,3.280816161353985,0.5836001571206251,B,849,Correct
1,relearn,25,695,A,19.00075649731035,33.15532259143119,0.9500378248655175,0.5208025894031996,A,719,Correct
1,relearn,25,696,A,62.24392404395176,78.12538864880985,3.112196202197588,1.227190735189742,A,3284,Correct
1,relearn,25,697,B,52.59218676078923,34.32015064503458,2.6296093380394616,0.5390996656826782,A,562,Incorrect
1,relearn,25,698,B,48.682294207017584,37.354726303589686,2.434114710350879,0.5867666686610739,B,389,Correct
1,relearn,25,699,B,80.81742106589329,53.441987145167516,4.040871053294665,0.839464771042492,B,567,Correct
1,relearn,25,700,B,61.93266397141779,52.748022765115735,3.0966331985708893,0.8285640040513738,B,516,Correct
1,relearn,25,701,A,13.874750023887508,34.64754123743699,0.6937375011943755,0.5442423050824073,A,1077,Correct
1,relearn,25,702,B,45.009642492974095,22.3979776406499,2.2504821246487046,0.3518266100556709,B,905,Correct
1,relearn,25,703,B,76.18902073830915,64.01420691391985,3.809451036915458,1.0055328108307378,B,1078,Correct
1,relearn,25,704,A,59.1691060235423,72.64822534212567,2.958455301177115,1.141155655155789,B,1051,Incorrect
1,relearn,25,705,B,51.67172871085913,31.16196938214641,2.5835864355429567,0.4894910704117061,A,637,Incorrect
1,relearn,25,706,A,40.4267402964341,67.9588522418418,2.021337014821705,1.0674951547468223,B,633,Incorrect
1,relearn,25,707,B,37.43885678208006,26.712333183761686,1.871942839104003,0.4195963484517429,B,709,Correct
1,relearn,25,708,B,72.40449817654586,50.98036236546592,3.620224908827293,0.8007976594234666,B,896,Correct
1,relearn,25,709,B,62.10813429591837,51.959940608575856,3.1054067147959183,0.8161848384843193,B,439,Correct
1,relearn,25,710,B,79.39441675019567,56.081173138852904,3.9697208375097834,0.8809210076885877,B,955,Correct
1,relearn,25,711,A,56.08842230699071,79.02282645454275,2.8044211153495353,1.2412876552774632,B,931,Incorrect
1,relearn,25,712,A,43.37227277809357,63.5995412968777,2.168613638904678,0.9990192585497583,B,862,Incorrect
1,relearn,25,713,B,37.122872554195176,26.780895070857582,1.8561436277097587,0.4206733160558264,B,1419,Correct
1,relearn,25,714,B,38.40383622193578,18.127927932496906,1.9201918110967886,0.28475282608768737,A,1021,Incorrect
1,relearn,25,715,A,56.938455556473414,71.6478873287772,2.8469227778236705,1.1254423823865782,B,530,Incorrect
1,relearn,25,716,B,46.87427244454183,35.53564262308025,2.3437136222270913,0.5581925690263062,B,685,Correct
1,relearn,25,717,B,76.84827560899608,59.782113107498155,3.8424137804498035,0.9390552367729513,B,983,Correct
1,relearn,25,718,B,30.974136092305926,15.896434180533284,1.548706804615296,0.24970060419918522,A,896,Incorrect
1,relearn,25,719,A,50.24715538239654,73.30096184109833,2.512357769119827,1.1514088161053013,B,537,Incorrect
1,relearn,25,720,A,36.20492648077243,63.60393162826992,1.8102463240386215,0.9990882217140014,B,519,Incorrect
1,relearn,25,721,A,50.987004657651056,68.23978941427302,2.549350232882553,1.0719081055319732,B,517,Incorrect
1,relearn,25,722,A,42.25781494354214,62.0657197203756,2.112890747177107,0.9749260455664757,B,719,Incorrect
1,relearn,25,723,B,33.22594370639938,10.60278544610414,1.661297185319969,0.16654816432534772,A,944,Incorrect
1,relearn,25,724,B,31.725128147750286,12.976437042228572,1.5862564073875143,0.20383339640817874,A,631,Incorrect
1,relearn,25,725,B,81.52247189343817,60.86188781916888,4.076123594671908,0.9560162982815353,B,939,Correct
1,relearn,25,726,A,60.26000188546173,71.21159181242857,3.013000094273087,1.1185890684418032,B,849,Incorrect
1,relearn,25,727,A,37.873119011826276,64.39628427591646,1.8936559505913138,1.0115344679984952,A,690,Correct
1,relearn,25,728,A,20.562862269363677,38.88569907867118,1.0281431134681838,0.6108151327762839,A,1090,Correct
1,relearn,25,729,A,52.558761392091974,82.56256826334142,2.6279380696045984,1.296889789588096,B,984,Incorrect
1,relearn,25,730,B,45.871321141588375,32.550696057878,2.2935660570794187,0.5113051380233189,A,746,Incorrect
1,relearn,25,731,B,54.133871859686,38.38664812693067,2.7066935929843003,0.6029760587575089,B,439,Correct
1,relearn,25,732,B,58.251153090829376,29.893613497046033,2.9125576545414686,0.46956778275786254,B,407,Correct
1,relearn,25,733,B,87.90656436780507,69.84983567662384,4.395328218390254,1.0971986530806785,B,1074,Correct
1,relearn,25,734,B,73.99280946064911,60.150529336842524,3.699640473032456,0.9448423053708089,B,537,Correct
1,relearn,25,735,A,65.75531159367355,80.36507634625428,3.2877655796836778,1.2623716672728766,B,528,Incorrect
1,relearn,25,736,B,56.3868427683354,35.154895839649775,2.81934213841677,0.5522118125377905,A,450,Incorrect
1,relearn,25,737,A,27.488577003191374,41.84859373269212,1.3744288501595687,0.6573561731684472,B,250,Incorrect
1,relearn,25,738,B,47.30267218238682,35.59946047323084,2.3651336091193413,0.5591950174723112,A,255,Incorrect
1,relearn,25,739,B,43.25949465555178,28.44240714712315,2.162974732777589,0.4467722867190596,B,200,Correct
1,relearn,25,740,A,52.07277341246561,59.86340305468439,2.6036386706232806,0.9403321362774062,B,545,Incorrect
1,relearn,25,741,A,15.679741310685543,36.38501164329682,0.7839870655342771,0.571534426396802,A,284,Correct
1,relearn,25,742,A,65.75750657913558,82.19078146244478,3.287875328956779,1.2910497761761035,B,612,Incorrect
1,relearn,25,743,B,45.94945650589593,17.6898596347109,2.2974728252947965,0.2778716653572119,B,506,Correct
1,relearn,25,744,A,31.729477395177817,53.93779361629584,1.5864738697588907,0.8472528808789872,A,539,Correct
1,relearn,25,745,B,40.45790672400275,21.99715079661948,2.0228953362001376,0.3455304367128332,B,617,Correct
1,relearn,25,746,B,58.70870065621182,45.064326361485286,2.9354350328105907,0.707868783181075,B,881,Correct
1,relearn,25,747,B,50.388220456812135,28.114130499636598,2.5194110228406066,0.44161572919861536,A,848,Incorrect
1,relearn,25,748,A,26.373586280208144,36.41884009516284,1.3186793140104072,0.572065802476125,B,303,Incorrect
1,relearn,25,749,B,79.90550818603123,54.01164448152405,3.9952754093015614,0.8484129275572984,B,467,Correct
1,relearn,25,750,A,54.17187788597879,62.37359965622208,2.7085938942989394,0.9797622122896907,B,746,Incorrect
1,relearn,25,751,A,50.78574693816383,79.74170478989537,2.539287346908192,1.2525797697633065,A,1163,Correct
1,relearn,25,752,A,19.41916436215854,40.76335993315248,0.970958218107927,0.6403093605081418,A,462,Correct
1,relearn,25,753,A,59.59556024605594,72.48501473723418,2.9797780123027966,1.138591948969214,B,758,Incorrect
1,relearn,25,754,A,45.61586319013606,53.548292752615154,2.280793159506803,0.8411346156194566,B,1405,Incorrect
1,relearn,25,755,A,67.61817250769441,87.4972150371677,3.3809086253847203,1.3744030398516622,B,757,Incorrect
1,relearn,25,756,A,49.275380168118105,75.94906245566335,2.463769008405905,1.1930050832887218,B,1207,Incorrect
1,relearn,25,757,A,52.62509473897522,68.59765993516311,2.6312547369487613,1.0775295225287966,B,2192,Incorrect
1,relearn,25,758,A,33.87348471926006,59.6232997265428,1.693674235963003,0.9365606020184459,A,1372,Correct
1,relearn,25,759,A,20.103627025534287,34.54793093104063,1.0051813512767143,0.5426776300484242,A,606,Correct
1,relearn,25,760,B,54.395808625042164,33.50123298565967,2.719790431252108,0.5262361371697424,B,1410,Correct
1,relearn,25,761,A,34.824362826478755,59.004861724400385,1.7412181413239378,0.9268462005972892,A,774,Correct
1,relearn,25,762,A,45.8749028598777,54.76697653304166,2.293745142993885,0.8602776556776413,A,941,Correct
1,relearn,25,763,B,85.34157878741712,68.53039845400745,4.267078939370856,1.0764729816534557,B,667,Correct
1,relearn,25,764,B,59.309652403339356,48.71941810210696,2.9654826201669677,0.7652828299837441,B,1026,Correct
1,relearn,25,765,A,13.176325585806637,33.26697937035738,0.6588162792903318,0.5225564899851898,A,646,Correct
1,relearn,25,766,A,46.11212541862467,69.5023576575749,2.3056062709312335,1.091740481121038,B,653,Incorrect
1,relearn,25,767,A,31.939710019851923,59.550094501544706,1.5969855009925962,0.9354106970331539,B,592,Incorrect
1,relearn,25,768,A,18.310120497424034,39.040700622352304,0.9155060248712017,0.6132498913309024,A,628,Correct
1,relearn,25,769,A,60.216158348286385,80.99587321213676,3.0108079174143194,1.2722802012716958,B,548,Incorrect
1,relearn,25,770,A,67.2854226496342,83.82950697482832,3.36427113248171,1.3167908163308748,B,374,Incorrect
1,relearn,25,771,B,55.11133795173618,35.08560405467632,2.7555668975868093,0.5511233797246569,B,612,Correct
1,relearn,25,772,B,50.87634422506843,29.667413300626492,2.5438172112534216,0.4660146383813016,A,543,Incorrect
1,relearn,25,773,A,15.044769995755729,37.178782971956984,0.7522384997877865,0.5840029572705469,B,31,Incorrect
1,relearn,25,774,A,37.6616760662542,53.42279371655606,1.88308380331271,0.8391632813708774,B,577,Incorrect
1,relearn,25,775,B,59.4931896186653,30.913621613417966,2.9746594809332647,0.48559003278284263,B,620,Correct
1,relearn,25,776,B,86.64329996429643,62.426428304647665,4.332164998214822,0.9805920427586551,B,597,Correct
1,relearn,25,777,A,33.5633347681247,45.89651418429306,1.6781667384062349,0.7209407589337741,B,1380,Incorrect
1,relearn,25,778,A,38.51133516054223,58.6988092382583,1.9255667580271114,0.9220387393869048,A,1131,Correct
1,relearn,25,779,B,87.4211007270204,61.91625586844472,4.37105503635102,0.9725782728704592,A,723,Incorrect
1,relearn,25,780,A,65.19946382602353,84.1305061089354,3.2599731913011767,1.3215188996731133,B,452,Incorrect
1,relearn,25,781,B,52.64743772144597,26.753565222478418,2.632371886072298,0.4202440198013679,A,725,Incorrect
1,relearn,25,782,A,42.304487842886644,62.765257874086636,2.1152243921443326,0.9859143651894974,B,199,Incorrect
1,relearn,25,783,B,65.1648219391583,43.19352934102097,3.258241096957915,0.6784823723018333,B,411,Correct
1,relearn,25,784,B,84.56488808996164,68.67294021446227,4.228244404498082,1.0787120223908286,B,512,Correct
1,relearn,25,785,B,52.848959437110345,21.884236729913116,2.642447971855517,0.3437567867005748,B,642,Correct
1,relearn,25,786,A,52.0468463433687,81.0662695412915,2.6023423171684352,1.273385984224257,A,642,Correct
1,relearn,25,787,A,48.360932233860225,71.73601454753272,2.4180466116930113,1.1268266815016963,A,332,Correct
1,relearn,25,788,B,84.7371076751073,66.1944477209902,4.236855383755365,1.0397799533434822,B,664,Correct
1,relearn,25,789,A,35.97365853644608,52.50548530251137,1.798682926822304,0.8247542344976829,A,752,Correct
1,relearn,25,790,A,28.699844909206988,59.510259000056145,1.4349922454603494,0.9347849624390114,A,794,Correct
1,relearn,25,791,B,82.87731360674148,61.82190984859735,4.143865680337075,0.9710962890562196,B,1059,Correct
1,relearn,25,792,A,11.154291620474538,34.9055076249877,0.557714581023727,0.5482944316224193,A,780,Correct
1,relearn,25,793,A,46.97376440463588,62.53861949620324,2.3486882202317942,0.9823543378745975,B,1201,Incorrect
1,relearn,25,794,B,38.783641766168316,18.35152395484454,1.9391820883084159,0.28826506419358355,A,771,Incorrect
1,relearn,25,795,B,63.39223432748224,30.905492338171896,3.169611716374112,0.4854623384258824,B,677,Correct
1,relearn,25,796,A,44.1797593238014,60.28855755092399,2.2089879661900698,0.9470104474875413,B,619,Incorrect
1,relearn,25,797,B,38.30777453385605,26.75406338781615,1.9153887266928025,0.4202518449641944,A,650,Incorrect
1,relearn,25,798,B,72.58079015604199,55.40432431752124,3.629039507802099,0.8702890912651553,B,271,Correct
1,relearn,25,799,A,50.43918415213155,80.01903448302204,2.5219592076065775,1.256936054396052,B,488,Incorrect
1,relearn,25,800,A,54.542590784526105,78.52102682501811,2.727129539226305,1.23340540512902,B,350,Incorrect
1,relearn,25,801,A,49.24803194839157,65.20414867302692,2.4624015974195785,1.02422437227379,A,419,Correct
1,relearn,25,802,B,33.635769619626785,16.308182253638254,1.6817884809813393,0.25616832780716686,A,657,Incorrect
1,relearn,25,803,A,64.95968394272285,85.08249252074621,3.2479841971361423,1.3364726672614242,B,439,Incorrect
1,relearn,25,804,B,37.23807043620383,27.616973232346297,1.8619035218101914,0.4338064011056254,B,268,Correct
1,relearn,25,805,A,46.42875444480586,76.1518153400026,2.321437722240293,1.1961899181483935,B,484,Incorrect
1,relearn,25,806,B,44.21228641346491,14.82808317135094,2.2106143206732454,0.23291898578967277,A,212,Incorrect
1,relearn,25,807,B,66.56808360830077,45.69449600673762,3.3284041804150384,0.7177674648212753,B,445,Correct
1,relearn,25,808,A,17.37002587246482,32.998187265564255,0.868501293623241,0.5183343134763847,A,609,Correct
1,relearn,25,809,A,62.70976919151322,84.34854265678041,3.1354884595756607,1.324943809757733,B,511,Incorrect
1,relearn,25,810,B,50.76695260094236,30.652012441653923,2.5383476300471184,0.4814806855222145,B,534,Correct
1,relearn,25,811,A,60.902291501744045,84.62307050874395,3.0451145750872026,1.3292560831724052,B,850,Incorrect
1,relearn,25,812,B,31.70660511790731,11.489364648808014,1.5853302558953655,0.18047451787554764,B,539,Correct
1,relearn,25,813,A,47.70676345858188,54.71858109827712,2.385338172929094,0.8595174619660236,B,1958,Incorrect
1,relearn,25,814,A,35.1570369199572,44.77625714036911,1.7578518459978598,0.7033438024371556,A,766,Correct
1,relearn,25,815,A,48.33539416544674,64.3496772267914,2.416769708272337,1.0108023661828114,A,607,Correct
1,relearn,25,816,B,47.789505219649016,34.46279881980732,2.3894752609824508,0.5413403779722483,B,739,Correct
1,relearn,25,817,B,87.02601808481202,60.89952092456782,4.351300904240601,0.9566074377188006,A,518,Incorrect
1,relearn,25,818,A,51.537808166179964,80.14104248016815,2.5768904083089983,1.2588525515336189,B,411,Incorrect
1,relearn,25,819,B,46.84812600523206,28.15633825608504,2.342406300261603,0.44227872708653004,B,484,Correct
1,relearn,25,820,B,32.66236850060595,13.352715298447876,1.6331184250302977,0.20974396143539945,A,638,Incorrect
1,relearn,25,821,A,27.691723982835093,52.810670180242944,1.3845861991417547,0.8295480673470239,B,42,Incorrect
1,relearn,25,822,A,16.727509094330742,36.269519225336715,0.8363754547165371,0.569720275737758,B,244,Incorrect
1,relearn,25,823,A,49.0263133465308,61.43517015416772,2.45131566732654,0.9650213961418612,B,488,Incorrect
1,relearn,25,824,A,35.81582232581143,53.70727452335109,1.7907911162905716,0.8436318954344502,B,554,Incorrect
1,relearn,25,825,A,19.276437141731538,40.03410748972682,0.9638218570865769,0.6288542899137495,A,587,Correct
1,relearn,25,826,B,62.406096809514366,48.86812595345367,3.120304840475718,0.7676187274503538,B,479,Correct
1,relearn,25,827,B,69.22524103426198,56.48810603857629,3.4612620517130996,0.8873130947299624,B,759,Correct
1,relearn,25,828,A,39.64197067455272,71.28975235127642,1.9820985337276358,1.1198168113150284,A,663,Correct
1,relearn,25,829,A,15.543791367959102,39.11366362153624,0.777189568397955,0.614395991442003,A,661,Correct
1,relearn,25,830,B,53.10160076960455,32.475700423551494,2.6550800384802278,0.5101271093540615,B,1267,Correct
1,relearn,25,831,A,49.49594101106599,64.99120557105022,2.4747970505532995,1.0208794698497772,B,627,Incorrect
1,relearn,25,832,B,57.272063758309486,49.17952340037255,2.8636031879154746,0.7725101471082888,B,317,Correct
1,relearn,25,833,A,31.08760029767238,58.02694380610679,1.554380014883619,0.9114851018576643,A,463,Correct
1,relearn,25,834,B,51.639256345887645,43.80835474882154,2.5819628172943823,0.6881400272237664,B,484,Correct
1,relearn,25,835,A,44.274478394722564,60.61135073373265,2.213723919736128,0.952080870946244,B,410,Incorrect
1,relearn,25,836,B,49.90861942318266,19.83319682464375,2.4954309711591325,0.3115391272075061,B,859,Correct
1,relearn,25,837,B,36.54747077446888,21.777323840722573,1.8273735387234438,0.34207740296429945,B,721,Correct
1,relearn,25,838,A,36.86446685066521,49.10891853297411,1.8432233425332607,0.7714010884446555,B,618,Incorrect
1,relearn,25,839,B,64.78654544220387,49.088830479523,3.239327272110194,0.7710855460389209,B,451,Correct
1,relearn,25,840,A,55.33443681277892,78.07313861513518,2.7667218406389456,1.2263699935800314,B,465,Incorrect
1,relearn,25,841,B,83.53181017850355,55.686311369857975,4.176590508925177,0.874718533525298,B,586,Correct
1,relearn,25,842,A,50.29063683325039,75.89050713257438,2.5145318416625195,1.1920852984244976,A,642,Correct
1,relearn,25,843,B,47.80567071847003,36.314639020226295,2.3902835359235017,0.5704290158185408,A,621,Incorrect
1,relearn,25,844,A,18.53415371883707,47.84586040731037,0.9267076859418536,0.7515610178014449,B,272,Incorrect
1,relearn,25,845,B,59.4227362625513,42.60513930251536,2.9711368131275653,0.6692399631897602,B,448,Correct
1,relearn,25,846,B,72.73174869762546,44.60113771581973,3.636587434881273,0.7005930329488296,B,489,Correct
1,relearn,25,847,A,39.50299939091532,69.3464066401555,1.975149969545766,1.0892908082678148,A,689,Correct
1,relearn,25,848,B,61.61971084120403,48.66856070857375,3.0809855420602013,0.7644839639142208,B,592,Correct
1,relearn,25,849,B,65.72012553219452,56.41066962900585,3.2860062766097258,0.8860967264528281,B,559,Correct
1,relearn,25,850,A,50.23178117330369,79.79195831724172,2.5115890586651846,1.253369150324948,A,508,Correct
1,relearn,25,851,A,60.63159145944144,70.31583082583629,3.031579572972072,1.1045184877675498,B,418,Incorrect
1,relearn,25,852,B,62.84722572160993,46.603649778408375,3.1423612860804964,0.7320484188715966,B,216,Correct
1,relearn,25,853,B,71.31226106102429,41.94698927918008,3.5656130530512145,0.6589017667984098,B,640,Correct
1,relearn,25,854,A,55.77784730226908,80.43522426783929,2.7888923651134543,1.2634735482484567,A,630,Correct
1,relearn,25,855,B,51.92206510372449,31.146331813790255,2.5961032551862244,0.48924543606236764,B,470,Correct
1,relearn,25,856,B,57.64290262474718,50.75089990897306,2.882145131237359,0.7971932715855035,B,511,Correct
1,relearn,25,857,A,27.791783267424186,60.643424530445756,1.3895891633712094,0.9525846849668772,A,476,Correct
1,relearn,25,858,B,75.14915932499038,47.15381448117569,3.7574579662495187,0.7406903858139876,B,486,Correct
1,relearn,25,859,A,23.233275741511633,40.80857723405077,1.1616637870755817,0.641019632209728,A,859,Correct
1,relearn,25,860,A,16.39231684867357,44.52379302471249,0.8196158424336786,0.6993781053819461,A,621,Correct
1,relearn,25,861,A,37.83692711279514,54.393516377893626,1.891846355639757,0.8544113572785335,B,497,Incorrect
1,relearn,25,862,A,33.0516613659135,57.31073902466493,1.6525830682956753,0.9002349834584461,B,418,Incorrect
1,relearn,25,863,A,26.014415199269415,56.053396961775675,1.300720759963471,0.8804847005193344,A,459,Correct
1,relearn,25,864,A,52.551567468154865,82.71926471850448,2.627578373407743,1.2993511717500152,A,880,Correct
1,relearn,25,865,A,54.499584601857265,75.13635211069078,2.724979230092863,1.1802390590424106,B,577,Incorrect
1,relearn,25,866,A,51.417863292152525,59.95362079716219,2.5708931646076265,0.9417492732623649,A,2122,Correct
1,relearn,25,867,A,17.31726985171936,34.73150069038888,0.865863492585968,0.5455611370853727,A,825,Correct
1,relearn,25,868,B,35.639242250012806,21.182684369862514,1.7819621125006404,0.332736827998357,A,631,Incorrect
1,relearn,25,869,A,48.38151002085587,68.57799226485464,2.4190755010427933,1.0772205834860251,B,295,Incorrect
1,relearn,25,870,B,59.229506040018265,34.753481134283916,2.961475302000913,0.5459064050906891,B,945,Correct
1,relearn,25,871,A,42.74920760397275,74.31144791957033,2.137460380198638,1.1672814943087135,A,614,Correct
1,relearn,25,872,B,37.9955268968428,11.947878831322235,1.8997763448421399,0.18767684181231467,A,636,Incorrect
1,relearn,25,873,A,18.307355503658542,36.122342299220165,0.9153677751829271,0.5674084259884296,B,296,Incorrect
1,relearn,25,874,B,50.4707673594745,20.112285958970197,2.523538367973725,0.3159230490779896,A,426,Incorrect
1,relearn,25,875,A,56.709550008219814,76.87582936687713,2.8354775004109904,1.2075627038880181,B,475,Incorrect
1,relearn,25,876,B,70.9792437405136,52.09968993347252,3.54896218702568,0.8183800157465169,B,585,Correct
1,relearn,25,877,A,36.46494432652511,64.41833402538674,1.8232472163262554,1.011880824653242,A,606,Correct
1,relearn,25,878,A,48.28890731564644,78.52743970675203,2.414445365782322,1.2335061384397379,A,553,Correct
1,relearn,25,879,A,47.54952170544346,57.14493436359024,2.377476085272173,0.89763052993263,A,473,Correct
1,relearn,25,880,B,77.9763817977602,62.19951587736422,3.89881908988801,0.9770277106858457,B,478,Correct
1,relearn,25,881,A,47.72147251202037,77.921471143719,2.3860736256010187,1.2239876065100834,A,604,Correct
1,relearn,25,882,B,31.049388484930063,15.90936262511947,1.5524694242465031,0.24990368373185678,A,668,Incorrect
1,relearn,25,883,A,32.681591962672485,65.08281831677088,1.6340795981336242,1.0223185194944333,A,537,Correct
1,relearn,25,884,A,40.38391325143344,71.27152553177837,2.019195662571672,1.1195305051038615,A,555,Correct
1,relearn,25,885,A,34.632991076214026,57.09545385930566,1.731649553810701,0.8968532919888484,B,523,Incorrect
1,relearn,25,886,A,51.73543037678732,58.83662781867308,2.5867715188393663,0.924203588585701,A,379,Correct
1,relearn,25,887,A,31.24736742952131,52.189523394153454,1.5623683714760657,0.8197911164471257,A,573,Correct
1,relearn,25,888,A,29.995193728732794,46.52996650621942,1.4997596864366398,0.7308910047385903,A,497,Correct
1,relearn,25,889,A,20.28873825678743,48.72447788867048,1.0144369128393713,0.7653623089252275,A,506,Correct
1,relearn,25,890,B,63.640050963697185,54.14974803021538,3.182002548184859,0.8505822530273148,B,530,Correct
1,relearn,25,891,B,77.34856453559934,65.30125603155658,3.8674282267799667,1.0257497310946215,B,597,Correct
1,relearn,25,892,A,37.145536695560665,60.00333782589971,1.8572768347780333,0.9425302265235653,A,485,Correct
1,relearn,25,893,B,66.57746268694379,50.17469461009937,3.3288731343471896,0.7881422599159978,A,452,Incorrect
1,relearn,25,894,A,36.54419547967024,62.6155175323076,1.827209773983512,0.9835622494011023,A,876,Correct
1,relearn,25,895,B,36.458169342959536,25.531172786054757,1.8229084671479767,0.4010427243110064,A,1011,Incorrect
1,relearn,25,896,B,88.32973265600712,67.51680474883847,4.416486632800356,1.060551488964037,B,472,Correct
1,relearn,25,897,A,17.60960578116842,34.76651314456209,0.880480289058421,0.5461111114294462,B,529,Incorrect
1,relearn,25,898,A,13.065004817538686,39.905039636719096,0.6532502408769344,0.6268268968196311,A,464,Correct
