experiment,condition,subject,trial,cat,x,y,xt,yt,resp,rt,fb
1,new_learn,8,0,B,70.42520661293823,56.08308319151945,3.521260330646911,0.8809510107257135,B,716,Correct
1,new_learn,8,1,A,58.97118558486642,85.99643700532602,2.948559279243321,1.350828873654148,B,651,Incorrect
1,new_learn,8,2,B,78.50697872984216,62.52322715600638,3.925348936492108,0.9821125555601774,B,664,Correct
1,new_learn,8,3,A,62.26658737593169,73.7531391756613,3.1133293687965846,1.1585116010672156,A,1023,Correct
1,new_learn,8,4,B,63.39367617703606,48.53417665185897,3.169683808851803,0.7623730640875469,B,907,Correct
1,new_learn,8,5,B,65.11562253184782,45.78291307263863,3.2557811265923906,0.7191563168447082,A,1656,Incorrect
1,new_learn,8,6,B,61.882199844405505,31.074249276586034,3.094109992220275,0.4881131662157031,A,968,Incorrect
1,new_learn,8,7,A,31.788914020349146,57.51022809140652,1.5894457010174574,0.9033685503911804,A,1060,Correct
1,new_learn,8,8,A,25.89548416156009,40.33116956840028,1.2947742080780045,0.6335205301338528,A,630,Correct
1,new_learn,8,9,A,12.252563094313093,39.479290568178456,0.6126281547156546,0.6201392460896312,A,604,Correct
1,new_learn,8,10,A,52.2838252460931,75.03296271989544,2.6141912623046553,1.1786150222895018,B,461,Incorrect
1,new_learn,8,11,B,64.0965179324831,51.3105576553436,3.204825896624155,0.8059843549081149,B,748,Correct
1,new_learn,8,12,B,59.23785669798845,40.863875503967186,2.9618928348994222,0.6418882554023561,B,564,Correct
1,new_learn,8,13,B,50.7350794636621,29.216876924985193,2.536753973183105,0.45893762954185313,B,1053,Correct
1,new_learn,8,14,A,13.305133516732507,30.520171250803127,0.6652566758366254,0.47940972893912753,A,531,Correct
1,new_learn,8,15,B,71.99073771452669,41.86940291148646,3.5995368857263346,0.6576830429845848,B,546,Correct
1,new_learn,8,16,A,26.0771619863266,52.93809898047786,1.30385809931633,0.8315497142603929,A,549,Correct
1,new_learn,8,17,B,66.82492263563691,45.777581160412964,3.3412461317818454,0.7190725633633194,B,546,Correct
1,new_learn,8,18,A,53.8902606425148,84.01069287156608,2.6945130321257396,1.319636877741502,B,521,Incorrect
1,new_learn,8,19,A,33.32463657794848,62.79787231975346,1.666231828897424,0.9864266717040365,A,561,Correct
1,new_learn,8,20,B,48.93176056477839,35.92643006085836,2.4465880282389194,0.5643310437445006,B,839,Correct
1,new_learn,8,21,B,68.92087589875926,45.868670500719084,3.4460437949379634,0.7205033913749497,B,557,Correct
1,new_learn,8,22,A,43.2651980628615,72.22717934102458,2.163259903143075,1.1345418800363765,A,572,Correct
1,new_learn,8,23,A,47.756505188666765,76.47707918697654,2.3878252594333382,1.2012991507090516,B,528,Incorrect
1,new_learn,8,24,A,66.06917017657621,80.46321143479781,3.3034585088288106,1.2639131696390151,B,581,Incorrect
1,new_learn,8,25,A,34.95072172287235,53.33192874078271,1.7475360861436176,0.8377359776690865,B,392,Incorrect
1,new_learn,8,26,B,68.04201471150031,38.75036162181427,3.402100735575016,0.6086892569751979,B,395,Correct
1,new_learn,8,27,A,47.70815229907559,78.39414713890501,2.3854076149537797,1.2314123836801063,A,458,Correct
1,new_learn,8,28,B,46.976483767344234,34.32123270861641,2.3488241883672116,0.5391166626976751,A,490,Incorrect
1,new_learn,8,29,B,81.53569212310204,58.62607658411656,4.076784606155102,0.9208962575272659,B,661,Correct
1,new_learn,8,30,B,66.5279036467525,36.58805734362002,3.3263951823376257,0.5747238607991938,B,722,Correct
1,new_learn,8,31,A,53.06197409957115,64.11397469407004,2.6530987049785573,1.0070999594566616,A,518,Correct
1,new_learn,8,32,A,66.21419534045421,87.66024829389218,3.310709767022711,1.3769639602597445,B,618,Incorrect
1,new_learn,8,33,B,80.74250732395043,65.07768830401437,4.037125366197522,1.0222379374424897,B,643,Correct
1,new_learn,8,34,A,48.00310971081891,58.919741115393805,2.4001554855409455,0.9255091291976683,A,822,Correct
1,new_learn,8,35,A,29.0685744429899,41.05011802000291,1.453428722149495,0.6448137460031756,A,716,Correct
1,new_learn,8,36,B,57.22695160624177,38.31561111590785,2.8613475803120885,0.6018602119976976,B,548,Correct
1,new_learn,8,37,B,78.87524291515989,49.84251844360002,3.9437621457579946,0.7829244488941378,B,605,Correct
1,new_learn,8,38,A,39.85939215308137,60.782712738373924,1.9929696076540688,0.9547726190206712,A,548,Correct
1,new_learn,8,39,B,63.10782127538353,51.44436639620195,3.1553910637691764,0.8080862176944481,B,581,Correct
1,new_learn,8,40,B,46.08170157866094,33.93678379250145,2.3040850789330474,0.5330777532449386,A,1314,Incorrect
1,new_learn,8,41,B,62.38654861944824,30.126206385979582,3.119327430972412,0.4732213433136169,B,575,Correct
1,new_learn,8,42,B,59.049741375258115,26.50549507381921,2.9524870687629057,0.41634734301835435,B,604,Correct
1,new_learn,8,43,A,18.854438550201404,48.30293514749353,0.9427219275100702,0.7587407310309493,A,624,Correct
1,new_learn,8,44,A,35.611558921370566,64.90534077035215,1.7805779460685285,1.019530708714402,A,809,Correct
1,new_learn,8,45,A,32.370006020747496,40.56229335925356,1.6185003010373749,0.6371510141509252,A,599,Correct
1,new_learn,8,46,B,59.10202533358703,36.96147286740212,2.9551012666793515,0.5805894581304448,B,571,Correct
1,new_learn,8,47,A,18.5540336852628,44.63589336308511,0.92770168426314,0.7011389733794279,A,659,Correct
1,new_learn,8,48,B,55.225649955561636,40.98723854004637,2.7612824977780814,0.6438260374417105,B,597,Correct
1,new_learn,8,49,B,59.32413731168875,39.34978258618609,2.9662068655844376,0.618104939465589,B,487,Correct
1,new_learn,8,50,B,73.40498721442856,52.50413173827734,3.670249360721428,0.8247329727604138,B,436,Correct
1,new_learn,8,51,B,67.47944399016338,46.622247253073546,3.3739721995081684,0.732340547320514,B,371,Correct
1,new_learn,8,52,A,29.40593397636736,41.08824252706936,1.470296698818368,0.6454126043597841,A,1111,Correct
1,new_learn,8,53,B,61.137230692974114,50.33047817173071,3.056861534648706,0.7905893023798531,B,660,Correct
1,new_learn,8,54,B,89.74824035616727,67.47859569917324,4.487412017808364,1.0599513026153922,B,502,Correct
1,new_learn,8,55,A,52.81595141666031,82.28331913431273,2.6407975708330156,1.2925033545267066,A,573,Correct
1,new_learn,8,56,A,56.47074117262042,78.84493464731838,2.823537058631021,1.238493337303914,A,794,Correct
1,new_learn,8,57,A,45.032396610214256,58.40437154891525,2.251619830510713,0.9174137229780044,B,613,Incorrect
1,new_learn,8,58,B,54.37424146306865,42.898054590251874,2.7187120731534327,0.6738410657701459,A,672,Incorrect
1,new_learn,8,59,B,78.51774987714192,49.361657985766655,3.925887493857096,0.7753711104854825,B,609,Correct
1,new_learn,8,60,B,80.26390974294367,57.72783696152033,4.0131954871471835,0.906786742529708,B,567,Correct
1,new_learn,8,61,B,55.60780269816426,40.237092408011435,2.7803901349082127,0.6320427695541118,B,556,Correct
1,new_learn,8,62,B,35.88086868348079,12.756340218143592,1.7940434341740397,0.20037612358005966,A,734,Incorrect
1,new_learn,8,63,B,47.9127636629568,30.422344238533586,2.39563818314784,0.47787306582378447,B,699,Correct
1,new_learn,8,64,B,42.894208460467596,23.12961221934836,2.1447104230233798,0.3633190991434276,B,582,Correct
1,new_learn,8,65,B,48.34531082416558,33.92173189444003,2.417265541208279,0.5328413185830768,B,890,Correct
1,new_learn,8,66,A,40.97457987377205,55.21236392557385,2.0487289936886026,0.8672737844795446,B,494,Incorrect
1,new_learn,8,67,A,16.603488280362736,32.782975760670126,0.8301744140181369,0.5149537790626676,A,565,Correct
1,new_learn,8,68,B,60.85033995271579,31.01646775530118,3.04251699763579,0.4872055362017944,B,806,Correct
1,new_learn,8,69,A,56.958573616331485,67.86070437271002,2.8479286808165742,1.0659534516236728,B,653,Incorrect
1,new_learn,8,70,B,34.453017319780756,11.328310354023902,1.7226508659890378,0.17794468292893342,A,860,Incorrect
1,new_learn,8,71,B,71.54634526310228,58.09243532489157,3.5773172631551144,0.9125138402290977,B,649,Correct
1,new_learn,8,72,A,35.49192645429956,52.041769013307466,1.7745963227149781,0.8174701960601183,B,998,Incorrect
1,new_learn,8,73,A,15.649769396499067,38.736407786231254,0.7824884698249533,0.6084700706384129,A,655,Correct
1,new_learn,8,74,B,75.05994481683655,63.68792004395176,3.7529972408418275,1.0004075086624649,B,623,Correct
1,new_learn,8,75,B,36.70404989713789,18.588916695751983,1.8352024948568948,0.2919940206478354,A,514,Incorrect
1,new_learn,8,76,A,40.73352617143427,58.303843514211955,2.0366763085717134,0.915834632301486,B,580,Incorrect
1,new_learn,8,77,A,68.84897424941298,89.40188298988488,3.442448712470649,1.4043214940905833,B,520,Incorrect
1,new_learn,8,78,B,42.9150415837767,26.32693964761205,2.145752079188835,0.4135426009421994,B,740,Correct
1,new_learn,8,79,A,42.25512618821989,51.81555640181577,2.1127563094109947,0.81391685666806,B,805,Incorrect
1,new_learn,8,80,A,49.078603039470494,58.31058416887214,2.4539301519735246,0.9159405142572902,B,854,Incorrect
1,new_learn,8,81,A,24.25012391421555,37.05437671491795,1.2125061957107774,0.5820487883546746,A,1077,Correct
1,new_learn,8,82,B,45.78622141799285,36.428137980551,2.2893110708996427,0.5722118533182716,B,1131,Correct
1,new_learn,8,83,B,60.51472151743894,27.885959025042656,3.025736075871947,0.4380316200569,B,583,Correct
1,new_learn,8,84,A,66.69720993977606,85.62971806254767,3.3348604969888025,1.3450684659713248,A,731,Correct
1,new_learn,8,85,A,14.583942599633438,36.84037957359172,0.729197129981672,0.5786873291192761,A,723,Correct
1,new_learn,8,86,A,32.96261684395351,49.244456245846806,1.6481308421976757,0.7735301098598817,A,690,Correct
1,new_learn,8,87,A,64.4243426631671,78.92767921132089,3.2212171331583543,1.2397930858758877,A,552,Correct
1,new_learn,8,88,A,16.731633066991236,39.68148944616591,0.8365816533495618,0.6233153786378787,A,627,Correct
1,new_learn,8,89,B,83.23105030058497,62.40059443987208,4.161552515029248,0.9801862453596911,A,878,Incorrect
1,new_learn,8,90,B,68.48529897204786,36.814230670208936,3.424264948602393,0.5782765831054422,B,599,Correct
1,new_learn,8,91,A,34.128344896803476,60.07764036725876,1.7064172448401738,0.9436973681139486,A,439,Correct
1,new_learn,8,92,B,42.280715218892446,33.86222145222125,2.1140357609446223,0.5319065307426449,A,656,Incorrect
1,new_learn,8,93,A,43.8258986603696,66.9556057339333,2.1912949330184803,1.0517361954518973,B,818,Incorrect
1,new_learn,8,94,A,59.53866599763845,79.79984490552947,2.9769332998819222,1.2534930325640812,B,538,Incorrect
1,new_learn,8,95,B,73.14919173184234,55.909996826525315,3.657459586592117,0.8782321764622029,B,526,Correct
1,new_learn,8,96,A,22.270806123447844,42.68735499044374,1.113540306172392,0.6705314041957882,A,588,Correct
1,new_learn,8,97,A,67.20065386849325,87.18785244398778,3.3600326934246625,1.3695435836015146,B,564,Incorrect
1,new_learn,8,98,A,42.391297130961966,59.227912596849585,2.1195648565480982,0.9303498755086052,B,544,Incorrect
1,new_learn,8,99,B,70.26115012117572,48.83404425331449,3.513057506058786,0.7670833733564583,B,590,Correct
1,new_learn,8,100,B,39.36644655284802,20.798521312683498,1.9683223276424007,0.32670240880728607,A,393,Incorrect
1,new_learn,8,101,B,69.98894802483423,53.76553938899281,3.499447401241712,0.8445471178037625,B,1170,Correct
1,new_learn,8,102,A,17.490235116149012,38.656232841587254,0.8745117558074506,0.6072106855529351,A,638,Correct
1,new_learn,8,103,B,42.398911920179415,21.914709736165864,2.1199455960089706,0.34423545556345697,A,821,Incorrect
1,new_learn,8,104,A,45.70147304948858,76.66850296385888,2.285073652474429,1.2043060283649316,A,406,Correct
1,new_learn,8,105,A,54.12160295185852,77.95876874180706,2.706080147592926,1.2245734758108333,A,614,Correct
1,new_learn,8,106,A,52.29793075383745,65.46959453781994,2.6148965376918727,1.028393986167588,A,1071,Correct
1,new_learn,8,107,B,72.09148188619321,49.15947566615969,3.6045740943096605,0.7721952380356677,B,687,Correct
1,new_learn,8,108,A,31.14115411236496,43.877651896380534,1.557057705618248,0.6892285442721967,A,1210,Correct
1,new_learn,8,109,A,66.1586241438617,80.1198350565268,3.307931207193085,1.2585194261020527,B,495,Incorrect
1,new_learn,8,110,B,81.96659804173743,54.04819767874723,4.0983299020868715,0.848987103836606,B,644,Correct
1,new_learn,8,111,A,49.660155378041395,65.14875616413251,2.4830077689020698,1.0233542687787571,A,952,Correct
1,new_learn,8,112,B,57.878780719221346,34.3501404048688,2.893939035961067,0.5395707437285687,B,881,Correct
1,new_learn,8,113,B,45.01519000950561,20.266907827519745,2.2507595004752803,0.3183518437095876,B,881,Correct
1,new_learn,8,114,B,59.73412257135888,47.69985392292628,2.9867061285679437,0.7492675533078573,B,750,Correct
1,new_learn,8,115,B,54.68840394657596,38.575306124209206,2.734420197328798,0.6059394916489651,B,553,Correct
1,new_learn,8,116,A,44.91615912210677,68.37320769632322,2.2458079561053386,1.0740038350056906,A,475,Correct
1,new_learn,8,117,B,54.45058019218263,44.41570539813351,2.7225290096091315,0.6976802689139237,B,725,Correct
1,new_learn,8,118,A,26.701827074005447,52.05518699939179,1.3350913537002722,0.8176809652926609,A,1200,Correct
1,new_learn,8,119,A,59.60861406253427,76.84069379242419,2.980430703126714,1.2070107955751133,A,854,Correct
1,new_learn,8,120,B,46.99478010869179,21.62304987915705,2.3497390054345897,0.33965407324282726,B,691,Correct
1,new_learn,8,121,A,36.40515368527047,45.379784205555666,1.8202576842635236,0.7128239834083191,B,1126,Incorrect
1,new_learn,8,122,B,54.20154314250945,34.22708220088818,2.7100771571254723,0.5376377499806213,B,673,Correct
1,new_learn,8,123,B,84.96796912792783,60.33581890535358,4.248398456396392,0.9477528271069147,A,927,Incorrect
1,new_learn,8,124,A,39.497171036804865,65.38184398992776,1.9748585518402433,1.027015603784555,A,1208,Correct
1,new_learn,8,125,A,40.131049170730726,58.581530948923024,2.0065524585365364,0.9201965363258984,A,1266,Correct
1,new_learn,8,126,B,52.791176952914114,33.26761066742604,2.6395588476457057,0.5225664063763554,B,808,Correct
1,new_learn,8,127,B,45.77373061376856,36.37315838672804,2.2886865306884276,0.571348235878014,B,628,Correct
1,new_learn,8,128,B,38.95550191321935,11.932833256999391,1.9477750956609674,0.18744050648350627,B,882,Correct
1,new_learn,8,129,A,47.91295983041129,62.54934863235356,2.3956479915205646,0.9825228707511436,A,1196,Correct
1,new_learn,8,130,B,79.59592091510329,56.01964399502491,3.979796045755165,0.8799545101574291,B,622,Correct
1,new_learn,8,131,B,37.59791638300205,11.253176066767857,1.8798958191501027,0.1767644763045519,A,871,Incorrect
1,new_learn,8,132,B,45.06644669670585,18.975704028804085,2.2533223348352927,0.2980696618679258,B,548,Correct
1,new_learn,8,133,B,89.83692095634538,67.25337415801602,4.491846047817269,1.0564135309197438,A,800,Incorrect
1,new_learn,8,134,A,22.002962769278508,37.630751630369815,1.1001481384639253,0.5911024643551598,A,913,Correct
1,new_learn,8,135,B,68.14483988942774,46.98937835609304,3.4072419944713874,0.7381074292012656,B,726,Correct
1,new_learn,8,136,B,49.5339130253777,27.23822400384448,2.476695651268885,0.4278570221365549,B,1036,Correct
1,new_learn,8,137,A,34.85756221449081,52.13258426347361,1.7428781107245408,0.8188967186738978,B,1312,Incorrect
1,new_learn,8,138,B,49.316665148928635,18.185707266112797,2.4658332574464317,0.2856604217377724,B,636,Correct
1,new_learn,8,139,B,79.34114791821744,65.21093232429365,3.967057395910872,1.0243309296187104,A,850,Incorrect
1,new_learn,8,140,A,49.041858871805324,70.53135033085081,2.4520929435902663,1.1079038602358446,A,1073,Correct
1,new_learn,8,141,A,39.818726881485844,59.623817836313115,1.9909363440742922,0.9365687404676867,A,737,Correct
1,new_learn,8,142,A,47.789299394850005,77.81878612229008,2.3894649697425,1.2223746339653092,A,594,Correct
1,new_learn,8,143,B,58.41158623294017,40.063109783408144,2.9205793116470087,0.629309856877582,B,680,Correct
1,new_learn,8,144,B,88.33503127798153,68.92939180408608,4.416751563899076,1.0827403545406467,B,790,Correct
1,new_learn,8,145,A,19.851928411960593,44.8389799292405,0.9925964205980295,0.7043290497008108,A,722,Correct
1,new_learn,8,146,B,74.79824443915885,59.299841482721924,3.7399122219579426,0.9314797318057924,A,1094,Incorrect
1,new_learn,8,147,A,34.389428882004786,55.456023426546665,1.7194714441002392,0.8711011789707123,A,653,Correct
1,new_learn,8,148,B,56.49620907541379,29.163297549851226,2.8248104537706893,0.4580960066853291,B,643,Correct
1,new_learn,8,149,B,43.28267061073004,18.867307161920625,2.164133530536502,0.2963669678645596,B,567,Correct
1,new_learn,8,150,A,38.14932121948025,59.81886472523011,1.9074660609740124,0.9396325298343227,A,644,Correct
1,new_learn,8,151,B,68.63248429087628,43.813197258634844,3.431624214543814,0.6882160931900384,B,631,Correct
1,new_learn,8,152,A,60.62641715690913,87.18509871120996,3.0313208578454565,1.3695003280681908,A,673,Correct
1,new_learn,8,153,A,66.6825838943308,78.24802210655622,3.3341291947165406,1.2291170570394436,A,640,Correct
1,new_learn,8,154,A,54.14767289877267,81.72228015059373,2.7073836449386333,1.2836905747785612,A,888,Correct
1,new_learn,8,155,B,59.09397336990914,37.46470914024755,2.9546986684954573,0.5884942750194004,B,536,Correct
1,new_learn,8,156,A,50.72860029576394,62.659122867646815,2.536430014788197,0.9842472004068973,A,833,Correct
1,new_learn,8,157,B,58.49318076402469,31.8906447291089,2.9246590382012347,0.5009370759960529,B,590,Correct
1,new_learn,8,158,B,50.813654906891855,40.48247899167333,2.5406827453445926,0.6358972929967203,B,687,Correct
1,new_learn,8,159,A,16.781840869489017,35.82882464030524,0.8390920434744509,0.5627978613836997,A,508,Correct
1,new_learn,8,160,A,22.839634934929748,44.57143261396514,1.1419817467464874,0.7001264263000271,A,614,Correct
1,new_learn,8,161,A,57.833007753082995,75.00996541259842,2.89165038765415,1.1782537814312184,B,598,Incorrect
1,new_learn,8,162,B,72.49075559482105,43.998666373231636,3.6245377797410527,0.6911294352294639,B,603,Correct
1,new_learn,8,163,A,30.969628918537847,55.57856396436571,1.5484814459268923,0.8730260412376086,A,476,Correct
1,new_learn,8,164,B,57.2754036249418,46.26227990966991,2.8637701812470904,0.7266861935126683,B,1201,Correct
1,new_learn,8,165,A,27.313070928318282,40.09585180604368,1.365653546415914,0.6298241673664594,A,468,Correct
1,new_learn,8,166,A,37.239645668454905,67.44702843355043,1.861982283422745,1.0594554451665195,A,1304,Correct
1,new_learn,8,167,B,65.58948928519206,39.076812832729864,3.2794744642596028,0.6138171406050374,B,762,Correct
1,new_learn,8,168,B,56.610254492934516,40.8205727808537,2.830512724646726,0.6412080578182873,B,551,Correct
1,new_learn,8,169,B,41.63406734786337,18.04085099283961,2.081703367393169,0.28338502471806526,B,830,Correct
1,new_learn,8,170,B,75.66951844653066,57.35495041023124,3.783475922326533,0.9009294542789468,B,497,Correct
1,new_learn,8,171,B,45.56161258736813,30.875561114624556,2.2780806293684064,0.484992179865836,B,975,Correct
1,new_learn,8,172,A,56.9091466191237,75.41962320290699,2.8454573309561852,1.1846886709538147,A,927,Correct
1,new_learn,8,173,A,32.483028492840056,55.79065279067961,1.6241514246420028,0.8763575247308899,A,607,Correct
1,new_learn,8,174,B,72.65409304303245,52.84524807152282,3.6327046521516224,0.8300912155931313,B,596,Correct
1,new_learn,8,175,A,28.14367163783418,52.5865470623597,1.4071835818917091,0.8260275496438156,B,596,Incorrect
1,new_learn,8,176,B,71.83656289578441,62.55932701627896,3.5918281447892206,0.9826796108393171,B,553,Correct
1,new_learn,8,177,A,27.714019643454836,58.55241556480751,1.385700982172742,0.9197391929416796,A,547,Correct
1,new_learn,8,178,B,46.951114676988766,35.015404984413124,2.3475557338494384,0.5500206953075184,B,614,Correct
1,new_learn,8,179,B,61.81918776924547,32.354727563497576,3.0909593884622732,0.5082268721119159,B,548,Correct
1,new_learn,8,180,B,44.56387453627127,23.59897972562169,2.2281937268135636,0.37069190669113783,B,620,Correct
1,new_learn,8,181,B,83.67410839646607,56.53926970826538,4.183705419823303,0.8881167717740922,B,555,Correct
1,new_learn,8,182,A,41.89360744626706,61.95604106204655,2.094680372313353,0.9732032172301651,A,583,Correct
1,new_learn,8,183,A,20.895793270289094,34.40861293082938,1.0447896635144547,0.5404892280185417,A,546,Correct
1,new_learn,8,184,A,46.56414094886591,58.85178728285188,2.3282070474432954,0.9244417128921835,A,931,Correct
1,new_learn,8,185,B,55.17463971866641,26.162213915447303,2.758731985933321,0.41095509519206946,B,823,Correct
1,new_learn,8,186,B,56.29712193471838,44.50425527226497,2.814856096735919,0.6990712070841623,B,513,Correct
1,new_learn,8,187,B,44.486009379943205,34.06204749646011,2.22430046899716,0.5350453909055285,A,702,Incorrect
1,new_learn,8,188,A,30.832251626679856,52.41468882776812,1.541612581333993,0.8233280068075566,A,753,Correct
1,new_learn,8,189,B,61.92319957991992,37.790819845242765,3.0961599789959955,0.5936168099947502,B,708,Correct
1,new_learn,8,190,A,57.04230254680158,72.609130302694,2.852115127340079,1.1405415517124375,A,749,Correct
1,new_learn,8,191,B,48.36929810955928,38.39017432198505,2.418464905477964,0.6030314480998986,B,658,Correct
1,new_learn,8,192,B,53.95219586265491,43.174206778908584,2.6976097931327456,0.6781788542059293,B,624,Correct
1,new_learn,8,193,B,76.31821298598956,47.538431430512674,3.8159106492994783,0.7467319347264038,B,642,Correct
1,new_learn,8,194,B,78.66460476737137,54.40159790195756,3.9332302383685684,0.8545383015616788,B,738,Correct
1,new_learn,8,195,A,50.464287151547296,69.38743815120841,2.523214357577365,1.0899353297362624,A,713,Correct
1,new_learn,8,196,B,55.27193462286278,33.703083601305345,2.763596731143139,0.5294067992259174,A,947,Incorrect
1,new_learn,8,197,A,43.015919995295675,51.43913886547212,2.150795999764784,0.8080041038337621,A,857,Correct
1,new_learn,8,198,B,64.88094422701215,56.193096032643055,3.2440472113506074,0.8826790883930857,B,775,Correct
1,new_learn,8,199,B,53.2961766888748,38.51063264646818,2.66480883444374,0.6049236030361984,B,671,Correct
1,new_learn,8,200,A,64.6918482890706,76.44114591273272,3.2345924144535303,1.200734712157133,A,594,Correct
1,new_learn,8,201,B,58.21227172965197,42.2673766601828,2.9106135864825986,0.6639344000107148,B,617,Correct
1,new_learn,8,202,B,61.404771402506924,48.861638167984026,3.0702385701253463,0.7675168175545063,B,590,Correct
1,new_learn,8,203,B,61.102533468810826,49.416659080331804,3.0551266734405416,0.7762350656586088,B,455,Correct
1,new_learn,8,204,B,80.1354404955946,51.888734914900596,4.00677202477973,0.8150663420635996,A,441,Incorrect
1,new_learn,8,205,B,47.262148238502874,17.136581060253047,2.3631074119251436,0.2691807858326848,B,767,Correct
1,new_learn,8,206,B,79.69736956574724,62.30962468532256,3.984868478287362,0.9787572957967329,A,911,Incorrect
1,new_learn,8,207,B,36.397219100386835,25.0705296394447,1.8198609550193419,0.39380695868442317,A,903,Incorrect
1,new_learn,8,208,B,81.67598150070279,54.002910516625896,4.08379907503514,0.8482757347574946,B,608,Correct
1,new_learn,8,209,B,75.97169281020949,63.45106459874049,3.798584640510475,0.9966869920292725,B,962,Correct
1,new_learn,8,210,B,56.19650985646707,47.01289513244099,2.8098254928233537,0.7384768298603197,B,772,Correct
1,new_learn,8,211,A,30.544732771889173,59.87199072645673,1.5272366385944587,0.9404670311101634,A,561,Correct
1,new_learn,8,212,B,68.53592064246094,51.366391237645566,3.426796032123047,0.8068613867680322,B,436,Correct
1,new_learn,8,213,B,54.713042169032946,25.695224581557426,2.7356521084516476,0.4036196438888034,B,600,Correct
1,new_learn,8,214,A,11.967327847254658,32.19951112767121,0.5983663923627329,0.5057887380393733,B,1001,Incorrect
1,new_learn,8,215,A,37.38619910758908,49.83471064449182,1.8693099553794539,0.7828018042725428,A,788,Correct
1,new_learn,8,216,B,56.70772823265207,24.654273919162172,2.8353864116326037,0.38726842912015164,B,708,Correct
1,new_learn,8,217,B,84.95339764945425,69.671426401479,4.247669882472712,1.094396206740042,A,961,Incorrect
1,new_learn,8,218,B,61.41572391471457,46.69617787795387,3.0707861957357285,0.7335018468605105,B,656,Correct
1,new_learn,8,219,B,36.56679394306839,19.37370907965514,1.8283396971534194,0.30432151058715223,B,575,Correct
1,new_learn,8,220,A,64.66469488486628,79.17660488612049,3.2332347442433136,1.2437032012320894,B,928,Incorrect
1,new_learn,8,221,A,41.0845131008634,54.60858178725748,2.05422565504317,0.8577895968290274,B,2633,Incorrect
1,new_learn,8,222,B,86.64857017052535,65.90334275995225,4.332428508526267,1.0352072873083804,B,581,Correct
1,new_learn,8,223,B,64.13686915938679,43.71167193755427,3.2068434579693395,0.686621337175738,B,614,Correct
1,new_learn,8,224,B,35.335846892254104,14.781844640856342,1.7667923446127052,0.2321926726510997,B,677,Correct
1,new_learn,8,225,B,41.70090799103744,18.914474093228662,2.085045399551872,0.2971078642890082,B,676,Correct
1,new_learn,8,226,A,60.33222796656197,80.4135470222826,3.0166113983280987,1.263133042871502,A,590,Correct
1,new_learn,8,227,A,31.390241576836097,63.87405805923069,1.5695120788418049,1.0033313577692353,A,587,Correct
1,new_learn,8,228,B,84.58222504183153,68.00152975854023,4.229111252091577,1.0681655316114882,B,635,Correct
1,new_learn,8,229,A,30.3580419110173,46.98969978363364,1.517902095550865,0.7381124781732666,B,674,Incorrect
1,new_learn,8,230,A,66.45714533452758,80.00717086440196,3.322857266726379,1.2567497011105428,A,886,Correct
1,new_learn,8,231,B,57.70056161118637,44.10864256360397,2.8850280805593185,0.6928569371881814,A,631,Incorrect
1,new_learn,8,232,A,59.76614692352037,78.34979894064196,2.9883073461760183,1.2307157638107908,A,539,Correct
1,new_learn,8,233,A,59.697828400758354,70.61096843654977,2.9848914200379175,1.1091544985156276,A,725,Correct
1,new_learn,8,234,B,76.63889872890893,44.22609998126124,3.8319449364454465,0.69470195399029,B,761,Correct
1,new_learn,8,235,A,55.96714294037124,70.0767897746144,2.798357147018562,1.1007636397154246,B,562,Incorrect
1,new_learn,8,236,A,56.57540151468376,83.61395544628765,2.8287700757341883,1.3134049408382078,A,634,Correct
1,new_learn,8,237,A,19.114595105242355,38.76395835011118,0.9557297552621178,0.60890283388385,A,743,Correct
1,new_learn,8,238,A,58.8239300407911,79.58982016336678,2.9411965020395545,1.2501939716288295,A,759,Correct
1,new_learn,8,239,A,41.28574797953898,58.64154612987486,2.0642873989769495,0.9211392525838091,A,1039,Correct
1,new_learn,8,240,A,30.519675921683458,50.74453257304009,1.5259837960841731,0.7970932537065536,A,848,Correct
1,new_learn,8,241,A,44.53914278926541,59.13317494142408,2.226957139463271,0.9288617398970898,B,881,Incorrect
1,new_learn,8,242,A,27.062024183923235,53.79302938707586,1.3531012091961616,0.844978929683887,A,670,Correct
1,new_learn,8,243,B,75.95551343776616,53.143403915551225,3.7977756718883082,0.8347746366392538,B,613,Correct
1,new_learn,8,244,A,26.77895666192272,48.42387446652929,1.3389478330961362,0.7606404414120138,A,799,Correct
1,new_learn,8,245,B,41.3734116470501,13.433696807016503,2.068670582352505,0.21101601599737857,B,772,Correct
1,new_learn,8,246,A,27.77027206620756,52.449967871312666,1.388513603310378,0.8238821687276827,A,602,Correct
1,new_learn,8,247,A,24.67949682680191,57.29944248128322,1.2339748413400955,0.9000575377699515,A,587,Correct
1,new_learn,8,248,B,45.04305892969702,24.623857212391044,2.252152946484851,0.3867906446074588,B,618,Correct
1,new_learn,8,249,B,77.87801420275923,63.73847362573302,3.8939007101379617,1.001201602468148,B,579,Correct
1,new_learn,8,250,B,61.338142793981305,45.149954688064966,3.0669071396990653,0.7092138297896847,B,486,Correct
1,new_learn,8,251,B,40.455344484707354,24.268752736107494,2.0227672242353676,0.3812126765377125,B,661,Correct
1,new_learn,8,252,A,17.93554452477922,35.86380860021096,0.8967772262389611,0.5633473881408659,A,598,Correct
1,new_learn,8,253,A,48.79216108044945,58.946253207447675,2.439608054022473,0.925925580165807,A,1238,Correct
1,new_learn,8,254,A,21.700066989559392,34.14090066392106,1.0850033494779696,0.5362840135635665,A,638,Correct
1,new_learn,8,255,B,67.52378911625836,57.3399467427775,3.3761894558129177,0.9006937772216987,B,632,Correct
1,new_learn,8,256,A,32.3742773188811,49.540860551374436,1.618713865944055,0.7781860178035716,A,644,Correct
1,new_learn,8,257,A,36.50877946511186,67.95492266147043,1.8254389732555927,1.0674334290426903,A,604,Correct
1,new_learn,8,258,B,31.486436878896434,16.294847470119535,1.5743218439448217,0.2559588655174688,B,651,Correct
1,new_learn,8,259,A,22.62003907426953,36.877447936369904,1.1310019537134766,0.5792695976001988,B,955,Incorrect
1,new_learn,8,260,A,55.50791839866347,68.37173559475575,2.7753959199331732,1.073980711288342,A,1055,Correct
1,new_learn,8,261,A,43.65938055618328,65.57051728596345,2.1829690278091642,1.0299792769883265,A,1236,Correct
1,new_learn,8,262,A,59.123371006418836,82.43364253856954,2.9561685503209416,1.2948646290390857,B,846,Incorrect
1,new_learn,8,263,B,38.02370794134576,25.041922373607644,1.9011853970672883,0.3933575968034582,B,460,Correct
1,new_learn,8,264,B,41.39545178359336,25.762802951175342,2.069772589179668,0.40468116243646957,B,496,Correct
1,new_learn,8,265,A,34.50954284432654,63.44788402978682,1.725477142216327,0.996637031768977,B,553,Incorrect
1,new_learn,8,266,A,63.96114305136038,74.69079192911367,3.1980571525680195,1.1732402160765367,B,642,Incorrect
1,new_learn,8,267,B,65.70475396711367,46.022368914520605,3.285237698355684,0.7229176804132861,B,429,Correct
1,new_learn,8,268,A,11.820861940969696,32.89455307079386,0.5910430970484848,0.5167064313516279,A,541,Correct
1,new_learn,8,269,A,41.429013477389645,68.18310691597692,2.0714506738694825,1.0710177389308027,A,532,Correct
1,new_learn,8,270,B,61.45908778637189,40.86362353194238,3.0729543893185944,0.6418842974350459,B,678,Correct
1,new_learn,8,271,B,66.54651331355755,43.490709642976334,3.327325665677878,0.6831504695689061,B,627,Correct
1,new_learn,8,272,A,51.232725556127775,77.8711279220068,2.5616362778063886,1.2231968170326382,A,572,Correct
1,new_learn,8,273,B,55.597625362151234,39.620462554449176,2.7798812681075615,0.6223567704644352,B,592,Correct
1,new_learn,8,274,B,58.12005706771127,35.333842109136185,2.906002853385564,0.5550226939658196,B,508,Correct
1,new_learn,8,275,B,71.99819316735807,59.044131508208,3.5999096583679036,0.9274630489188794,B,518,Correct
1,new_learn,8,276,A,60.12163972931177,86.82041581355418,3.0060819864655883,1.3637719025073645,A,770,Correct
1,new_learn,8,277,B,75.02813550395571,62.030431068371705,3.7514067751977853,0.974371732717023,B,791,Correct
1,new_learn,8,278,B,49.87681444039488,42.70243454906163,2.493840722019744,0.6707682733486549,B,473,Correct
1,new_learn,8,279,A,49.1622347955962,72.28507663256556,2.45811173977981,1.1354513285652161,B,1274,Incorrect
1,new_learn,8,280,A,19.424538291608783,42.943427273513485,0.9712269145804392,0.6745537782121875,A,676,Correct
1,new_learn,8,281,A,51.927052308594114,81.80577943794088,2.596352615429706,1.2850021785171102,A,895,Correct
1,new_learn,8,282,B,62.138495800077344,44.58074026460879,3.106924790003867,0.7002726305344483,B,523,Correct
1,new_learn,8,283,A,46.90150363992092,75.95188003761496,2.345075181996046,1.193049341762522,A,611,Correct
1,new_learn,8,284,A,19.615192404740917,50.02270011661866,0.9807596202370459,0.7857547359954724,A,640,Correct
1,new_learn,8,285,A,31.643790223459003,61.81688953534015,1.58218951117295,0.971017430159982,A,611,Correct
1,new_learn,8,286,A,21.009834474340703,45.522797020238016,1.0504917237170353,0.7150704234481954,A,497,Correct
1,new_learn,8,287,B,66.67122254323472,50.92172801300124,3.333561127161736,0.7998766331687114,B,641,Correct
1,new_learn,8,288,B,75.30065479147113,46.835225975978354,3.7650327395735563,0.7356860092767573,B,948,Correct
1,new_learn,8,289,B,67.07268099524654,46.07520338151662,3.3536340497623267,0.723747602280141,B,483,Correct
1,new_learn,8,290,B,43.24167570739668,27.264904672217824,2.162083785369834,0.42827612109532776,B,681,Correct
1,new_learn,8,291,B,48.5188247231804,31.222227382753488,2.42594123615902,0.4904376008718422,B,492,Correct
1,new_learn,8,292,B,66.94848027711369,36.986525844789654,3.3474240138556843,0.580982989379001,B,478,Correct
1,new_learn,8,293,A,47.34134018854215,71.60688048057828,2.3670670094271076,1.1247982483213355,A,597,Correct
1,new_learn,8,294,A,49.96864924680632,74.8644482148878,2.498432462340316,1.1759680026347252,A,589,Correct
1,new_learn,8,295,A,45.99896803781498,64.20943240530876,2.2999484018907492,1.008599405678442,A,550,Correct
1,new_learn,8,296,A,39.50438313600016,50.625557846060254,1.975219156800008,0.79522440306534,A,830,Correct
1,new_learn,8,297,A,49.68643527647883,76.85087478972426,2.484321763823942,1.2071707183067337,A,543,Correct
1,new_learn,8,298,B,71.76675487219987,46.434377920034606,3.5883377436099932,0.7293895027379642,B,567,Correct
1,new_learn,8,299,B,41.09854274039316,27.133085660611634,2.054927137019658,0.42620551290300035,A,774,Incorrect
1,new_learn,8,300,B,48.110476307172085,29.751178286945553,2.4055238153586043,0.4673304157095416,B,603,Incorrect
1,new_learn,8,301,A,29.675093358423815,62.05622927851149,1.4837546679211908,0.9747769700542775,A,566,Correct
1,new_learn,8,302,A,36.748794750021624,53.031518630426355,1.8374397375010814,0.8330171466902886,A,582,Correct
1,new_learn,8,303,A,30.94429725446235,58.76372891637385,1.5472148627231175,0.9230584953061108,A,1009,Correct
1,new_learn,8,304,B,53.75278707723499,35.4961028761787,2.6876393538617496,0.5575714801343526,B,509,Incorrect
1,new_learn,8,305,A,53.56872342655744,72.8269857277847,2.678436171327872,1.1439636167274858,A,560,Correct
1,new_learn,8,306,B,73.18130401460158,60.854263045605215,3.659065200730079,0.955896528618471,B,774,Correct
1,new_learn,8,307,A,46.51148441693262,66.02931851392904,2.325574220846631,1.0371861098244999,B,803,Correct
1,new_learn,8,308,A,19.75564109092064,43.36373456324577,0.9877820545460321,0.6811559496805535,A,599,Incorrect
1,new_learn,8,309,B,31.788279532409096,17.905098202898305,1.589413976620455,0.28125262488014563,A,513,Correct
1,new_learn,8,310,B,70.14365921789573,39.39319943279523,3.5071829608947866,0.6187869296973355,B,705,Incorrect
1,new_learn,8,311,A,35.33656646592519,48.607750440926495,1.7668283232962594,0.7635287584637035,B,709,Correct
1,new_learn,8,312,A,15.4578498075626,37.889642156538045,0.7728924903781299,0.5951691072306302,A,648,Incorrect
1,new_learn,8,313,B,58.258812516837565,50.90455495300099,2.912940625841878,0.799606879373029,B,479,Correct
1,new_learn,8,314,B,77.56632870261431,52.47468948063645,3.878316435130716,0.8242704948588653,B,461,Correct
1,new_learn,8,315,B,48.190333850390545,39.129908719639445,2.409516692519527,0.6146511688462922,B,512,Correct
1,new_learn,8,316,A,41.41944112757927,55.1094626528374,2.0709720563789635,0.8656574150671754,B,422,Incorrect
1,new_learn,8,317,A,47.09606841068184,67.40309809575758,2.3548034205340915,1.058765389034121,B,636,Correct
1,new_learn,8,318,A,21.678943427455632,43.138012770438635,1.0839471713727817,0.6776103200503634,A,592,Incorrect
1,new_learn,8,319,A,36.28850835657295,44.50285988527046,1.8144254178286474,0.6990492883965079,B,577,Incorrect
1,new_learn,8,320,B,43.06883307521041,29.871487553081327,2.1534416537605203,0.4692202292427962,B,901,Correct
1,new_learn,8,321,B,37.14969904787523,12.38038506686394,1.8574849523937615,0.19447063387336266,A,648,Correct
1,new_learn,8,322,B,82.4572509733137,58.942622992184205,4.122862548665685,0.9258685568777937,B,702,Correct
1,new_learn,8,323,A,46.24789535480578,63.631366696631765,2.312394767740289,0.9995191707600829,B,533,Correct
1,new_learn,8,324,A,27.672003908036956,60.62906320518991,1.383600195401848,0.9523590977972792,B,445,Correct
1,new_learn,8,325,A,58.26378169838693,76.71535384491085,2.9131890849193463,1.2050419602835671,B,556,Incorrect
1,new_learn,8,326,B,75.45504139531667,58.41881168705178,3.7727520697658337,0.9176405481374371,A,704,Correct
1,new_learn,8,327,B,52.68879386645021,24.998061360871958,2.634439693322511,0.39266862962651106,A,446,Incorrect
1,new_learn,8,328,B,55.77376685032682,30.905245218300955,2.788688342516341,0.4854584566760268,A,784,Correct
1,new_learn,8,329,B,42.04123922912576,18.23793732388976,2.102061961456288,0.28648084956681574,A,627,Incorrect
1,new_learn,8,330,B,72.81384786701857,48.98195416624647,3.6406923933509283,0.7694067368357593,A,520,Incorrect
1,new_learn,8,331,A,57.84122723319752,73.43655015069592,2.8920613616598763,1.1535386322920236,B,678,Incorrect
1,new_learn,8,332,B,66.96471250016492,50.04520155803395,3.348235625008246,0.7861081878106996,B,666,Incorrect
1,new_learn,8,333,A,24.247669181366142,38.73406157088706,1.2123834590683071,0.6084332163739674,A,751,Incorrect
1,new_learn,8,334,B,42.41726325112509,17.915732766712026,2.1208631625562546,0.28141967221790215,A,1316,Correct
1,new_learn,8,335,B,73.32879478192983,59.40786588428958,3.6664397390964916,0.9331765751376592,B,428,Incorrect
1,new_learn,8,336,A,69.45535741768458,87.54575182802515,3.472767870884229,1.375165453979595,B,663,Incorrect
1,new_learn,8,337,A,25.985749974667414,55.43179997877845,1.2992874987333707,0.870720677942946,A,662,Correct
1,new_learn,8,338,A,32.07072141158699,40.77957782638529,1.6035360705793493,0.6405641105793264,A,403,Incorrect
1,new_learn,8,339,A,33.51049236916584,59.92570633109804,1.675524618458292,0.9413107938547848,B,757,Incorrect
1,new_learn,8,340,A,23.347015872418215,37.00273321887691,1.1673507936209107,0.5812375742158336,B,956,Incorrect
1,new_learn,8,341,A,38.845378371898,51.338156040767785,1.9422689185949,0.8064178693326127,B,561,Correct
1,new_learn,8,342,A,31.033571637819183,48.38715874769852,1.551678581890959,0.760063712249264,B,889,Correct
1,new_learn,8,343,A,61.93857290441025,86.77201705720246,3.0969286452205127,1.3630116566203772,A,675,Incorrect
1,new_learn,8,344,B,64.50825449919148,33.221644669521076,3.225412724959574,0.5218443741696897,B,372,Incorrect
1,new_learn,8,345,A,16.202883653724168,36.08788820360019,0.8101441826862085,0.5668672223200005,B,686,Incorrect
1,new_learn,8,346,A,34.18954553616882,51.29346611511198,1.7094772768084412,0.8057158816219641,B,581,Incorrect
1,new_learn,8,347,A,33.966814563896534,67.2330310227319,1.6983407281948268,1.0560939816979458,B,510,Incorrect
1,new_learn,8,348,B,76.4939105549391,46.119248076369665,3.8246955277469556,0.7244394547290407,B,530,Incorrect
1,new_learn,8,349,A,24.726285240016995,46.290651978660755,1.2363142620008498,0.7271318609302122,A,558,Correct
1,new_learn,8,350,B,83.68765093466241,57.42341548991229,4.184382546733121,0.9020049012357139,A,273,Incorrect
1,new_learn,8,351,B,49.80319853764196,24.410564839478504,2.490159926882098,0.3834402558484149,A,511,Incorrect
1,new_learn,8,352,B,66.64838074513257,39.21764154739401,3.3324190372566282,0.6160292728820543,B,681,Incorrect
1,new_learn,8,353,A,35.54420212377641,65.87189853598483,1.7772101061888206,1.034713362593311,A,461,Incorrect
1,new_learn,8,354,B,44.36898744641154,35.06588136192908,2.218449372320577,0.5508135763914382,B,867,Incorrect
1,new_learn,8,355,A,33.90084271934752,56.43263045176531,1.695042135967376,0.8864416862500677,B,622,Incorrect
1,new_learn,8,356,A,34.23529491876315,45.711309784058685,1.7117647459381575,0.71803157501783,B,667,Correct
1,new_learn,8,357,A,69.18996155021273,86.93114628811364,3.4594980775106365,1.3655112527343871,B,605,Correct
1,new_learn,8,358,B,37.69302233972386,24.87275634738866,1.884651116986193,0.39070034307742546,B,975,Correct
1,new_learn,8,359,B,64.86570127583185,37.91338435535678,3.2432850637915926,0.5955420488175753,B,648,Correct
1,new_learn,8,360,B,64.30936520880414,44.88745414988401,3.2154682604402067,0.7050904809781213,B,587,Incorrect
1,new_learn,8,361,A,56.37459931771244,79.21239883999763,2.8187299658856215,1.244265451344806,B,685,Correct
1,new_learn,8,362,B,76.48784706101439,60.674419507873786,3.82439235305072,0.9530715529338077,B,750,Incorrect
1,new_learn,8,363,B,39.97771884298711,30.180990977978066,1.9988859421493554,0.47408189767237857,B,536,Correct
1,new_learn,8,364,B,38.6905560308504,12.16439901970449,1.9345278015425202,0.19107793297819253,B,1509,Correct
1,new_learn,8,365,A,45.08047642790112,62.45417939251879,2.254023821395056,0.9810279558275804,A,1107,Correct
1,new_learn,8,366,B,59.134411466228194,38.5070727179444,2.9567205733114097,0.6048676838097103,A,620,Incorrect
1,new_learn,8,367,A,23.01872327297149,41.72353866353123,1.1509361636485744,0.6553918127355971,B,1041,Correct
1,new_learn,8,368,B,56.644421892967934,41.06330732844737,2.8322210946483968,0.645020923175751,A,453,Correct
1,new_learn,8,369,A,47.93640289194945,55.93958026234876,2.3968201445974726,0.8786968719854572,A,588,Incorrect
1,new_learn,8,370,B,50.69208308664944,37.09672313135148,2.534604154332472,0.5827139643085419,A,777,Incorrect
1,new_learn,8,371,A,13.887525695864113,39.33069936005985,0.6943762847932057,0.617805180850564,B,725,Correct
1,new_learn,8,372,B,40.27095358558022,20.877562961779162,2.0135476792790112,0.32794399212791886,B,829,Correct
1,new_learn,8,373,A,28.060685351298858,38.312925221900215,1.4030342675649428,0.6018180220732842,B,754,Incorrect
1,new_learn,8,374,A,64.8058282363029,83.58250533934333,3.2402914118151447,1.3129109237135532,A,1090,Incorrect
1,new_learn,8,375,B,50.945561634371366,37.78358306625323,2.5472780817185683,0.5935031349362043,B,824,Correct
1,new_learn,8,376,A,34.03263966882993,61.965100193966336,1.7016319834414964,0.9733455177416005,B,900,Correct
1,new_learn,8,377,A,28.63695968629706,45.8881495137758,1.4318479843148533,0.7208093669965404,B,491,Correct
1,new_learn,8,378,A,16.512927842501462,36.505350402992654,0.8256463921250731,0.5734247032138146,B,436,Correct
1,new_learn,8,379,B,81.13163545097257,52.004656687033275,4.056581772548628,0.8168872370022152,A,770,Incorrect
1,new_learn,8,380,A,49.825020124135015,66.90147932047778,2.4912510062067508,1.050885979737512,B,575,Correct
1,new_learn,8,381,A,41.87288516417512,67.24172665324097,2.0936442582087564,1.0562305723425742,B,498,Incorrect
1,new_learn,8,382,B,57.076807360889134,36.657030191645354,2.8538403680444566,0.5758072837624616,A,689,Correct
1,new_learn,8,383,B,47.34421387552901,38.97537498146138,2.3672106937764505,0.6122237585633323,A,653,Correct
1,new_learn,8,384,A,28.392522363336212,44.83371078686288,1.4196261181668106,0.7042462822058895,B,350,Incorrect
1,new_learn,8,385,A,46.12535882855968,71.74995488653722,2.306267941427984,1.1270456558347222,B,730,Correct
1,new_learn,8,386,A,49.29487031349068,79.1320791300261,2.4647435156745336,1.243003792290881,B,519,Correct
1,new_learn,8,387,B,74.09775813790525,56.93944082876172,3.7048879068952623,0.8944026450357427,B,501,Incorrect
1,new_learn,8,388,A,40.845904309472864,67.8199309278796,2.042295215473643,1.0653129838499686,B,441,Incorrect
1,new_learn,8,389,A,67.95956880206987,80.58539790808851,3.397978440103493,1.2658324702733057,A,836,Correct
1,new_learn,8,390,B,64.85519226114151,51.57933936753337,3.2427596130570753,0.8102063681702882,B,735,Incorrect
1,new_learn,8,391,A,45.38297001069307,77.49866468562703,2.2691485005346537,1.217346178196923,B,674,Incorrect
1,new_learn,8,392,B,71.9364720912923,52.207258143715066,3.5968236045646154,0.8200696932418058,B,587,Correct
1,new_learn,8,393,A,25.53606171756615,41.33258204121698,1.2768030858783075,0.6492506804729233,B,1081,Correct
1,new_learn,8,394,A,42.14588018993409,50.359752942925745,2.1072940094967043,0.7910491494104623,A,548,Incorrect
1,new_learn,8,395,B,48.29227233604688,40.44037367888542,2.414613616802344,0.6352359042900624,B,650,Correct
1,new_learn,8,396,B,54.45652217029312,42.21227087404004,2.7228261085146563,0.6630688003461329,B,568,Incorrect
1,new_learn,8,397,A,34.98004136169475,53.44799280915092,1.7490020680847378,0.839559107791743,A,880,Correct
1,new_learn,8,398,A,65.00112875801447,85.36330823002342,3.250056437900724,1.3408837101078135,B,511,Incorrect
1,new_learn,8,399,B,77.46810268958481,56.641232947144786,3.8734051344792406,0.8897184065850909,B,675,Incorrect
1,new_learn,8,400,A,25.23279176983843,49.78089493417464,1.2616395884919214,0.7819564690716421,A,594,Correct
1,new_learn,8,401,B,45.82802442191259,26.120043245003487,2.2914012210956294,0.41029267984975326,B,873,Correct
1,new_learn,8,402,B,77.62055325658228,63.7289716163668,3.8810276628291143,1.0010523452540516,B,565,Correct
1,new_learn,8,403,B,48.115995239928274,24.85501643230593,2.405799761996414,0.3904216851429295,A,658,Correct
1,new_learn,8,404,B,69.70182216656286,48.44297230603947,3.485091108328143,0.760940429573537,B,625,Incorrect
1,new_learn,8,405,A,28.484523563289397,57.269232770052966,1.4242261781644698,0.8995830047356111,B,1053,Incorrect
1,new_learn,8,406,A,43.98923535333652,61.21027599667601,2.199461767666826,0.9614887669768049,A,613,Incorrect
1,new_learn,8,407,A,21.41434472217601,51.55731402968078,1.0707172361088007,0.8098603949723356,A,639,Incorrect
1,new_learn,8,408,B,63.70745468499353,43.66047429238,3.1853727342496763,0.6858171264459352,B,461,Incorrect
1,new_learn,8,409,B,62.181445630195064,51.208048835108464,3.109072281509753,0.8043741501252206,A,530,Correct
1,new_learn,8,410,B,84.57418655756891,66.4056283622507,4.228709327878446,1.043097171099304,B,965,Correct
1,new_learn,8,411,B,81.01297920429138,67.336981406969,4.050648960214569,1.0577268305152314,B,582,Incorrect
1,new_learn,8,412,A,35.65879515159331,47.38607825404951,1.7829397575796657,0.7443387766267648,A,469,Correct
1,new_learn,8,413,A,56.56523103208122,74.94554262062654,2.8282615516040615,1.177241830581305,A,666,Correct
1,new_learn,8,414,A,68.85320196732184,85.60955104144871,3.442660098366092,1.3447516831446786,A,480,Correct
1,new_learn,8,415,B,46.50442675755296,22.41920350048453,2.325221337877648,0.3521600250822839,B,513,Correct
1,new_learn,8,416,B,57.53226753059612,33.742172926912765,2.876613376529806,0.5300208129167278,B,665,Correct
1,new_learn,8,417,B,51.94232883429613,39.406786089434135,2.5971164417148067,0.6190003484007537,B,443,Correct
1,new_learn,8,418,A,18.133523653726957,44.76988940835791,0.9066761826863479,0.7032437783366235,B,516,Incorrect
1,new_learn,8,419,B,59.21819421811726,37.094396731835275,2.960909710905863,0.5826774213103947,A,433,Correct
1,new_learn,8,420,A,44.68102011950567,59.377656019177905,2.2340510059752834,0.9327020396861553,A,522,Correct
1,new_learn,8,421,A,17.063559675347086,31.22791623361816,0.8531779837673542,0.49052696113226124,B,490,Correct
1,new_learn,8,422,A,56.966222729264835,70.00062144971199,2.848311136463242,1.0995671904656765,B,613,Correct
1,new_learn,8,423,A,23.420983299111523,41.919607851075,1.171049164955576,0.658471660331511,B,605,Incorrect
1,new_learn,8,424,B,65.8652437070245,42.27225747416673,3.293262185351225,0.6640110676574922,B,460,Correct
1,new_learn,8,425,A,49.33690423706205,77.95640694873781,2.4668452118531023,1.224536376852055,A,508,Incorrect
1,new_learn,8,426,A,25.985062709574308,48.04625289775831,1.2992531354787156,0.7547087756805739,B,751,Correct
1,new_learn,8,427,B,78.02868247248949,52.639047642381406,3.9014341236244747,0.8268522268263427,B,147,Incorrect
1,new_learn,8,428,B,60.25594588250039,45.813486232658306,3.01279729412502,0.7196365589192822,B,262,Incorrect
1,new_learn,8,429,B,61.76717725389107,52.787732202626316,3.0883588626945535,0.8291877584371808,B,463,Correct
1,new_learn,8,430,B,71.59058138260528,62.33351420802393,3.5795290691302637,0.9791325515418148,B,406,Incorrect
1,new_learn,8,431,A,66.7340270771137,79.11806336858929,3.336701353855685,1.242783633225059,B,642,Incorrect
1,new_learn,8,432,B,41.6622180763415,21.817918596426342,2.083110903817075,0.34271506389576567,A,511,Incorrect
1,new_learn,8,433,A,31.076057682466733,47.57868047748963,1.5538028841233367,0.7473641652778876,B,817,Incorrect
1,new_learn,8,434,A,58.27513217722715,71.63304516634658,2.913756608861357,1.1252092422443014,A,369,Incorrect
1,new_learn,8,435,B,71.82530551845024,60.82802078517989,3.591265275922512,0.955484316155642,B,282,Incorrect
1,new_learn,8,436,A,22.913692094407693,53.790357111791785,1.1456846047203846,0.8449369536818827,A,538,Incorrect
1,new_learn,8,437,A,64.87536168929854,75.22786674285075,3.243768084464927,1.181676567522859,A,620,Incorrect
1,new_learn,8,438,A,53.50967959142971,74.0830660344582,2.6754839795714855,1.1636940800463071,A,403,Incorrect
1,new_learn,8,439,B,69.03481588212352,51.35034413835436,3.4517407941061764,0.8066093195218086,A,390,Correct
1,new_learn,8,440,A,60.44802700941207,81.28609629251456,3.0224013504706035,1.2768390147577813,A,335,Incorrect
1,new_learn,8,441,A,39.27414686466166,66.35248442695257,1.963707343233083,1.0422623881157267,B,409,Correct
1,new_learn,8,442,B,81.86847495974627,52.90229125108918,4.0934237479873135,0.8309872477624468,B,408,Incorrect
1,new_learn,8,443,A,32.39834039581398,55.92636222210338,1.6199170197906991,0.8784892434948086,B,428,Correct
1,new_learn,8,444,B,61.1104849603786,41.399483867637436,3.05552424801893,0.6503015719048946,A,553,Incorrect
1,new_learn,8,445,B,63.43865202409888,39.160282600288,3.171932601204944,0.6151282806478249,A,377,Correct
1,new_learn,8,446,A,55.00743050508523,73.08386997023467,2.7503715252542618,1.1479987449720046,B,544,Incorrect
1,new_learn,8,447,B,69.8711322969525,58.27377980446887,3.493556614847625,0.9153623926531433,B,612,Incorrect
1,new_learn,8,448,B,41.02552751812294,28.049491075268165,2.051276375906147,0.44060037549497466,B,634,Incorrect
1,new_learn,8,449,B,52.38763135620758,31.90390940028082,2.619381567810379,0.5011454369635828,B,406,Correct
1,new_learn,8,450,A,57.826416377443266,67.36521869444209,2.8913208188721633,1.0581703807896454,B,482,Correct
1,new_learn,8,451,A,55.37133125174192,80.97349876767464,2.7685665625870963,1.271928744319944,B,388,Correct
1,new_learn,8,452,A,65.16208133198188,87.93575037100793,3.258104066599094,1.3812915367673222,B,323,Correct
1,new_learn,8,453,A,60.5560731417759,84.50380650976096,3.0278036570887945,1.3273826886571918,B,537,Correct
1,new_learn,8,454,B,34.17749910465484,13.055855939541612,1.708874955232742,0.20508090552995298,A,825,Incorrect
1,new_learn,8,455,B,77.04641727961523,50.66760067114207,3.8523208639807613,0.7958848102174061,A,347,Correct
1,new_learn,8,456,A,59.18549733957292,67.43009949649625,2.959274866978646,1.0591895260451072,A,483,Correct
1,new_learn,8,457,B,78.32866671770034,52.620568952167275,3.916433335885017,0.8265619642392193,A,287,Correct
1,new_learn,8,458,B,34.02045354141356,21.143871146983425,1.701022677070678,0.3321271513190616,B,398,Correct
1,new_learn,8,459,B,38.644739231218935,25.085985673262684,1.9322369615609467,0.39404974149590416,B,264,Correct
1,new_learn,8,460,A,48.23055119777479,59.00736173744376,2.4115275598887393,0.9268854707103438,A,567,Correct
1,new_learn,8,461,A,20.212327734511305,33.57353104784503,1.0106163867255653,0.5273717924748939,B,705,Incorrect
1,new_learn,8,462,A,31.314441879440572,47.67327031469334,1.5657220939720287,0.7488499789662048,A,671,Correct
1,new_learn,8,463,A,26.473903322278147,56.422851149665625,1.3236951661139074,0.8862880733318996,A,394,Incorrect
1,new_learn,8,464,A,19.226675276248052,39.209876872960606,0.9613337638124025,0.6159073056612668,B,465,Correct
1,new_learn,8,465,A,22.04998117754173,33.67477762935556,1.1024990588770864,0.5289621700582666,B,312,Incorrect
1,new_learn,8,466,A,46.495185202921355,77.40916942287245,2.324759260146068,1.2159403898969188,B,397,Incorrect
1,new_learn,8,467,A,60.41575395892022,75.53507891908512,3.020787697946011,1.1865022451026155,B,291,Incorrect
1,new_learn,8,468,A,26.687491008968685,42.4914251157923,1.3343745504484343,0.6674537449216696,A,647,Correct
1,new_learn,8,469,A,34.661941664994174,52.581156938974566,1.7330970832497088,0.8259428817836724,B,394,Incorrect
1,new_learn,8,470,B,58.203457522565294,40.53177506714939,2.910172876128265,0.6366716339395524,B,337,Incorrect
1,new_learn,8,471,A,36.0470719995059,64.90394608604156,1.802353599975295,1.0195088010644808,A,270,Incorrect
1,new_learn,8,472,A,67.82162599961609,89.28352778051183,3.391081299980805,1.4024623748091807,A,436,Incorrect
1,new_learn,8,473,A,38.149643338571764,66.73983803497023,1.9074821669285882,1.0483469243621757,B,309,Incorrect
1,new_learn,8,474,B,61.88436245460439,45.35300317978703,3.0942181227302195,0.7124033080392673,B,236,Incorrect
1,new_learn,8,475,A,24.983824947769577,41.21531608565665,1.2491912473884788,0.6474086711504009,B,456,Correct
1,new_learn,8,476,B,78.97702515777162,63.94201654416104,3.948851257888581,1.0043988471542669,B,529,Correct
1,new_learn,8,477,B,47.65702674057492,23.24816735929534,2.382851337028746,0.3651813589269413,A,686,Correct
1,new_learn,8,478,A,20.646588638372158,38.46716537344575,1.0323294319186078,0.6042408207082042,A,262,Correct
1,new_learn,8,479,A,54.898422585897585,69.91915427413123,2.744921129294879,1.0982875070641103,B,208,Incorrect
1,new_learn,8,480,B,49.98002594584072,41.26207154619589,2.499001297292036,0.6481431042071272,B,410,Correct
1,new_learn,8,481,A,59.655174960984425,78.17439345909084,2.9827587480492213,1.2279605009495889,B,570,Correct
1,new_learn,8,482,A,28.374588846868242,47.019840197882694,1.4187294423434123,0.7385859226931716,A,476,Correct
1,new_learn,8,483,A,27.267919121499055,54.625035198199626,1.363395956074953,0.8580480464037391,A,517,Correct
1,new_learn,8,484,B,73.32677010225845,59.93296821598952,3.6663385051129227,0.9414248632759163,B,515,Correct
1,new_learn,8,485,B,68.94082925801712,58.995316163586736,3.447041462900856,0.9266962592786562,B,409,Correct
1,new_learn,8,486,A,29.880827061460987,44.698985897283556,1.4940413530730492,0.702130028589099,A,370,Incorrect
1,new_learn,8,487,A,46.81148485433222,57.2963805276217,2.340574242716611,0.9000094407143081,B,433,Correct
1,new_learn,8,488,B,79.70839387607259,62.853994471981586,3.9854196938036295,0.9873082364097542,B,359,Incorrect
1,new_learn,8,489,A,13.994713808178496,40.72090754641761,0.6997356904089247,0.6396425199766735,B,639,Incorrect
1,new_learn,8,490,B,46.42605068541323,34.46139750736508,2.3213025342706617,0.5413183662078788,B,628,Incorrect
1,new_learn,8,491,A,22.09536238083921,36.20417867342162,1.1047681190419605,0.5686939087483682,B,234,Correct
1,new_learn,8,492,A,40.01960889383041,47.13719416743785,2.0009804446915207,0.7404293145362918,B,398,Incorrect
1,new_learn,8,493,B,67.95819468591185,45.69979123880743,3.3979097342955926,0.7178506421321232,B,353,Correct
1,new_learn,8,494,B,36.52774180244572,16.22710198442078,1.8263870901222858,0.2548947219165434,A,301,Incorrect
1,new_learn,8,495,B,67.01182121228432,55.493746332435734,3.3505910606142155,0.8716937289907782,A,359,Incorrect
1,new_learn,8,496,A,24.263476949932013,50.82542607412665,1.2131738474966007,0.7983639258502371,B,636,Correct
1,new_learn,8,497,B,57.03771292982325,45.921986827713525,2.8518856464911626,0.7213408822809604,B,435,Incorrect
1,new_learn,8,498,B,56.81888848287832,24.976629353369447,2.840944424143916,0.39233197643990314,A,329,Incorrect
1,new_learn,8,499,B,83.23345150492551,59.87371920904941,4.161672575246275,0.9404941820512385,A,392,Incorrect
1,new_learn,8,500,B,83.97509443127556,59.68136998616343,4.198754721563779,0.9374727675235269,B,675,Correct
1,new_learn,8,501,A,56.10074709941239,78.39431865983346,2.8050373549706196,1.2314150779245503,B,408,Incorrect
1,new_learn,8,502,B,39.352655152621615,24.220236026680467,1.9676327576310808,0.38045057784815106,B,587,Incorrect
1,new_learn,8,503,B,78.43537067418487,50.24637045980863,3.921768533709243,0.78926814153043,B,625,Correct
1,new_learn,8,504,B,53.71889096211658,27.477618691829562,2.6859445481058293,0.43161742510196666,A,686,Incorrect
1,new_learn,8,505,B,45.05899276635269,24.935507412968313,2.2529496383176344,0.39168603451057543,A,373,Incorrect
1,new_learn,8,506,B,72.70613514700979,51.7339818494499,3.6353067573504894,0.8126354865958975,B,529,Correct
1,new_learn,8,507,B,39.51059646651417,19.44310941697747,1.9755298233257088,0.30541164853659475,A,561,Correct
1,new_learn,8,508,A,36.92174163305263,52.08715310511159,1.8460870816526318,0.8181830877071268,A,470,Incorrect
1,new_learn,8,509,B,42.97089299310593,26.561730864450702,2.1485446496552965,0.4172306927519379,A,660,Incorrect
1,new_learn,8,510,A,46.997792137608215,76.27404224037844,2.3498896068804105,1.1981098538098522,B,478,Correct
1,new_learn,8,511,A,52.73977952562997,70.48136514918357,2.6369889762814984,1.1071186948382739,B,383,Correct
1,new_learn,8,512,B,65.43842951266672,44.51070717439251,3.271921475633336,0.69917255332579,B,386,Correct
1,new_learn,8,513,A,39.08112303067849,66.13816709348708,1.9540561515339245,1.0388958993139663,B,482,Correct
1,new_learn,8,514,A,55.90125378947328,63.8702473744948,2.7950626894736637,1.003271499673378,B,322,Correct
1,new_learn,8,515,B,39.38639658906595,19.672394527705727,1.9693198294532976,0.30901325063380175,B,356,Correct
1,new_learn,8,516,B,46.94660681621267,32.43093708193941,2.3473303408106334,0.5094239684282683,B,419,Incorrect
1,new_learn,8,517,B,64.16047990656267,42.3916430816138,3.2080239953281335,0.6658863723939925,B,433,Incorrect
1,new_learn,8,518,A,61.98154522842078,86.26301662866916,3.099077261421039,1.3550162965856059,A,431,Incorrect
1,new_learn,8,519,B,66.66450924235303,37.691355519331964,3.3332254621176514,0.592054428016872,A,287,Correct
1,new_learn,8,520,A,38.23614958392148,69.14889935092259,1.911807479196074,1.0861883710233922,A,477,Incorrect
1,new_learn,8,521,B,82.16557202273894,61.404490391165155,4.108278601136948,0.9645394795515475,A,379,Incorrect
1,new_learn,8,522,B,66.95111749554019,36.521525075066535,3.3475558747770093,0.5736787743686221,A,379,Correct
1,new_learn,8,523,B,35.09691081164324,21.30679671824714,1.754845540582162,0.33468638020788166,A,654,Correct
1,new_learn,8,524,B,50.312966860958596,32.44845010290839,2.5156483430479297,0.5096990623183598,A,556,Incorrect
1,new_learn,8,525,A,43.24718286908343,67.22308635115675,2.1623591434541716,1.0559377711621316,B,926,Incorrect
1,new_learn,8,526,B,73.15400516056236,42.304367347519964,3.657700258028118,0.6645154483686632,A,858,Correct
1,new_learn,8,527,B,43.03332327106057,16.13248626731811,2.1516661635530285,0.253408501707724,B,469,Correct
1,new_learn,8,528,A,43.812792583052804,61.626054788775086,2.19063962915264,0.9680198049706894,A,430,Correct
1,new_learn,8,529,A,43.98197491577425,53.41153549299345,2.199098745788713,0.8389864376086936,A,517,Correct
1,new_learn,8,530,A,22.850945142826827,42.799958985882114,1.1425472571413413,0.6723001836199585,B,434,Incorrect
1,new_learn,8,531,A,22.426471065527725,53.622621048678475,1.121323553276386,0.8423021617637885,A,292,Incorrect
1,new_learn,8,532,B,83.89706554019395,60.69777469649753,4.194853277009697,0.9534384153788255,A,560,Correct
1,new_learn,8,533,A,27.020937577466025,42.63289292274493,1.3510468788733012,0.6696759160368787,A,511,Correct
1,new_learn,8,534,B,67.64757318128221,56.680904097484124,3.3823786590641105,0.8903415595574187,A,459,Incorrect
1,new_learn,8,535,A,29.652222790048754,59.711900988307235,1.4826111395024377,0.9379523473837356,A,432,Correct
1,new_learn,8,536,A,20.023776802240832,47.75329018952495,1.0011888401120417,0.7501069282207656,A,511,Correct
1,new_learn,8,537,A,32.47373893005934,47.946399737579185,1.623686946502967,0.7531402859082919,B,451,Correct
1,new_learn,8,538,B,50.296925179470776,26.14180707933572,2.514846258973539,0.41063454536001376,B,945,Incorrect
1,new_learn,8,539,A,30.80864338969573,40.223801188453365,1.5404321694847867,0.6318339915655073,A,694,Correct
1,new_learn,8,540,B,68.23988858273496,43.894583373583764,3.4119944291367483,0.6894945032941772,B,660,Incorrect
1,new_learn,8,541,B,85.85415933754373,58.063507616022335,4.292707966877186,0.9120594448407539,A,433,Incorrect
1,new_learn,8,542,A,31.80419129865492,50.99482177745363,1.5902095649327461,0.8010247873358455,A,543,Correct
1,new_learn,8,543,B,67.24244879632806,34.88670001269413,3.362122439816403,0.5479990023393542,B,541,Correct
1,new_learn,8,544,A,30.41774412628428,60.07344948371728,1.520887206314214,0.9436315378692188,A,470,Correct
1,new_learn,8,545,B,43.76722167314607,22.621428621251223,2.1883610836573038,0.35533656985114365,B,752,Incorrect
1,new_learn,8,546,A,22.540857263313413,47.95813070231293,1.1270428631656706,0.753324555471427,A,449,Incorrect
1,new_learn,8,547,B,80.09806685036115,58.27563927672411,4.004903342518057,0.9153916011750264,B,531,Correct
1,new_learn,8,548,B,61.99209126384453,45.286392160470314,3.0996045631922264,0.7113569845945997,B,599,Correct
1,new_learn,8,549,A,39.38475895266836,50.68602492183574,1.969237947633418,0.7961742176705415,A,399,Correct
1,new_learn,8,550,B,58.589257878614134,44.48254260009275,2.929462893930707,0.6987301452272321,B,588,Correct
1,new_learn,8,551,B,46.862335751216975,19.43088752077107,2.3431167875608487,0.30521966743991996,A,467,Correct
1,new_learn,8,552,A,47.82617960591886,58.215056398646716,2.391308980295943,0.9144399675515201,B,432,Incorrect
1,new_learn,8,553,A,18.315427589892433,43.38878520912107,0.9157713794946217,0.6815494443058011,A,615,Incorrect
1,new_learn,8,554,B,50.588142793697614,43.55163512397573,2.5294071396848805,0.6841074847865267,B,567,Incorrect
1,new_learn,8,555,A,25.034760925300898,41.91993577373081,1.251738046265045,0.6584768113285434,B,334,Correct
1,new_learn,8,556,A,24.32405589250814,43.82919238864132,1.216202794625407,0.6884673441046462,A,278,Correct
1,new_learn,8,557,B,80.09096519771506,56.27993597400311,4.004548259885753,0.8840431670021605,A,271,Incorrect
1,new_learn,8,558,A,39.41678759356796,68.00217045630754,1.970839379678398,1.0681755956684833,A,198,Incorrect
1,new_learn,8,559,A,64.00936875656552,76.15383110423237,3.200468437828276,1.1962215816988715,B,666,Incorrect
1,new_learn,8,560,B,68.467827677978,58.08095505117575,3.4233913838989,0.9123335085112635,B,251,Incorrect
1,new_learn,8,561,B,65.34253976634177,49.30370809875095,3.2671269883170884,0.7744608357888577,B,347,Correct
1,new_learn,8,562,A,63.86921664817047,80.20070440365765,3.1934608324085234,1.259789718836287,B,669,Correct
1,new_learn,8,563,B,88.99557930952919,64.74034733385426,4.44977896547646,1.0169389978744405,B,365,Correct
1,new_learn,8,564,B,86.45508131349496,63.82186514220457,4.322754065674747,1.0025115133457418,B,405,Correct
1,new_learn,8,565,A,53.601391665941584,68.36480555512124,2.680069583297079,1.0738718544803176,B,419,Incorrect
1,new_learn,8,566,B,35.686602121253934,18.31936725230765,1.7843301060626968,0.2877599478913157,B,453,Correct
1,new_learn,8,567,B,57.27165023477901,42.65340355319827,2.8635825117389504,0.6699980962666422,B,395,Correct
1,new_learn,8,568,A,30.276680936007804,39.536904976800386,1.5138340468003901,0.6210442511039691,B,349,Correct
1,new_learn,8,569,B,41.47532059909311,21.76817315995498,2.073766029954655,0.34193366440692535,B,231,Correct
1,new_learn,8,570,A,59.39188624638335,82.61461293583801,2.9695943123191677,1.2977073053919648,B,259,Correct
1,new_learn,8,571,B,55.524345794073476,23.70132480223547,2.776217289703674,0.37229953939524246,A,267,Correct
1,new_learn,8,572,A,38.07670258648673,46.101100574719034,1.9038351293243365,0.7241543944397075,A,103,Correct
1,new_learn,8,573,A,30.66790302654028,47.689481269558705,1.5333951513270139,0.7491046200497684,B,33,Incorrect
1,new_learn,8,574,A,21.811106373593635,36.82221484000718,1.0905553186796817,0.5784019981513582,A,480,Correct
1,new_learn,8,575,B,74.57298763296846,44.80019821918025,3.7286493816484234,0.703719868023716,A,193,Incorrect
1,new_learn,8,576,A,26.951554536418293,56.39528575547084,1.3475777268209146,0.8858550771324215,A,378,Incorrect
1,new_learn,8,577,A,38.83820350621894,53.0263885377341,1.9419101753109471,0.8329365633827173,A,306,Correct
1,new_learn,8,578,A,62.8648827295729,74.23243144185038,3.143244136478645,1.1660403063791256,B,39,Incorrect
1,new_learn,8,579,A,50.171579312155984,69.91771477359964,2.508578965607799,1.098264895442636,B,295,Incorrect
1,new_learn,8,580,B,43.93717887132084,21.01187997054446,2.196858943566042,0.330053838767865,B,368,Incorrect
1,new_learn,8,581,B,77.83390296117616,49.218387852568156,3.891695148058808,0.7731206284958063,B,435,Correct
1,new_learn,8,582,A,40.99833409303303,66.10187277700894,2.0499167046516518,1.038325789523892,A,525,Incorrect
1,new_learn,8,583,A,61.24328928109814,81.10415560813516,3.0621644640549075,1.273981097170604,A,264,Correct
1,new_learn,8,584,B,76.85416515007896,52.069579580713715,3.842708257503948,0.8179070434313966,B,372,Correct
1,new_learn,8,585,B,39.36215305516017,23.911554281217192,1.9681076527580086,0.3756018163289275,B,414,Correct
1,new_learn,8,586,A,51.577281808793764,68.06119287578663,2.578864090439688,1.0691027176656462,B,594,Incorrect
1,new_learn,8,587,A,54.93842358463121,81.55466171543834,2.7469211792315607,1.2810576305561092,A,567,Incorrect
1,new_learn,8,588,A,62.85052722852515,81.09801439569628,3.1425263614262575,1.2738846312311938,A,542,Incorrect
1,new_learn,8,589,B,58.841778545777395,28.83174138158131,2.9420889272888697,0.45288793457288334,B,607,Incorrect
1,new_learn,8,590,B,74.8369310759665,55.14952300436029,3.741846553798325,0.866286681597398,B,1051,Correct
1,new_learn,8,591,A,67.58385324411587,82.38727570621418,3.3791926622057935,1.2941363005395965,B,491,Correct
1,new_learn,8,592,A,32.040671808825486,52.88644752402166,1.6020335904412744,0.8307383750796428,A,516,Incorrect
1,new_learn,8,593,B,51.301889148147396,40.76857610540836,2.5650944574073695,0.6403912959503364,B,530,Correct
1,new_learn,8,594,A,36.47005139500002,53.31008917328338,1.823502569750001,0.8373929225450192,B,581,Incorrect
1,new_learn,8,595,B,80.06526829928939,52.716871752042614,4.0032634149644695,0.8280746850822619,B,557,Correct
1,new_learn,8,596,B,45.977731284732,23.097678779719768,2.2988865642366,0.3628174898467224,A,721,Correct
1,new_learn,8,597,A,58.055891233926864,77.7275074617262,2.9027945616963433,1.2209408321180244,B,614,Correct
1,new_learn,8,598,A,63.805390895527374,85.97001575236433,3.1902695447763687,1.3504138495831328,B,503,Correct
1,new_learn,8,599,B,41.08118987426103,19.57095067471144,2.0540594937130514,0.3074197743172083,A,409,Incorrect
1,new_learn,8,600,A,55.525620993920896,71.85911542942104,2.7762810496960446,1.1287603456326503,A,346,Correct
1,new_learn,8,601,A,47.75329018952495,79.97622319775917,2.387664509476247,1.256263576299689,B,1122,Incorrect
1,new_learn,8,602,B,44.50425527226497,43.70287806528162,2.2252127636132486,0.6864832033530962,B,410,Correct
1,new_learn,8,603,A,59.92570633109804,66.48950763083417,2.9962853165549017,1.0444147435691555,B,596,Incorrect
1,new_learn,8,604,B,24.87275634738866,62.30697766027614,1.243637817369433,0.9787157164245345,B,428,Correct
1,new_learn,8,605,B,51.92144010583255,36.730649992467924,2.5960720052916275,0.576963700889576,B,385,Correct
1,new_learn,8,606,A,61.626054788775086,56.187207416947196,3.081302739438754,0.8825865902340363,A,425,Correct
1,new_learn,8,607,A,47.57868047748963,68.92394231753326,2.378934023874481,1.0826547542060456,A,886,Correct
1,new_learn,8,608,A,80.20070440365765,36.13078335182953,4.010035220182883,0.5675410177327602,B,627,Incorrect
1,new_learn,8,609,B,30.875561114624556,54.43838741263187,1.5437780557312277,0.8551161898439967,B,505,Correct
1,new_learn,8,610,A,45.379784205555666,63.59484631472953,2.268989210277783,0.9989455099426312,A,456,Correct
1,new_learn,8,611,B,58.9136934123903,18.767064172390363,2.9456846706195154,0.29479235466714887,B,571,Correct
1,new_learn,8,612,B,40.53177506714939,41.796542477434706,2.0265887533574696,0.656538553962813,B,574,Correct
1,new_learn,8,613,A,82.95190241462646,37.68041427250906,4.1475951207313235,0.5918825633136723,B,448,Incorrect
1,new_learn,8,614,A,40.76507138937589,86.62204425487889,2.0382535694687944,1.3606558893502874,B,563,Incorrect
1,new_learn,8,615,B,26.162213915447303,44.82536028133359,1.3081106957723652,0.7041151127717664,B,903,Correct
1,new_learn,8,616,B,46.07520338151662,32.92731900475346,2.303760169075831,0.5172211174387052,B,517,Correct
1,new_learn,8,617,A,58.266727536470334,51.16316757580889,2.9133363768235165,0.8036691569527236,B,620,Incorrect
1,new_learn,8,618,A,54.174454458770526,69.05490286292317,2.7087227229385262,1.084711877642581,A,656,Correct
1,new_learn,8,619,B,62.52322715600638,21.49302127015784,3.126161357800319,0.3376115886288852,B,800,Correct
1,new_learn,8,620,A,65.38184398992776,60.502828963195135,3.269092199496388,0.9503762149608679,A,680,Correct
1,new_learn,8,621,B,21.76817315995498,58.52467940090689,1.088408657997749,0.9193035142979349,A,756,Incorrect
1,new_learn,8,622,B,24.623857212391044,54.95694107030298,1.2311928606195521,0.8632616116511552,A,670,Incorrect
1,new_learn,8,623,B,23.429165500328704,50.21013550021083,1.1714582750164353,0.7886989641160521,B,582,Correct
1,new_learn,8,624,B,24.04188735452967,62.14794192663902,1.2020943677264837,0.9762175889622712,B,996,Correct
1,new_learn,8,625,A,72.63204949714245,52.038732276110856,3.6316024748571225,0.8174224951037797,B,574,Incorrect
1,new_learn,8,626,B,30.126206385979582,37.61345138055176,1.506310319298979,0.5908307126664913,B,627,Correct
1,new_learn,8,627,B,59.044131508208,28.001806832641932,2.9522065754104,0.4398513531633418,A,446,Incorrect
1,new_learn,8,628,A,67.24172665324097,58.12711483582488,3.3620863326620487,0.9130585847129885,A,530,Correct
1,new_learn,8,629,A,72.53654840548153,56.14905854581419,3.6268274202740765,0.8819873491675654,A,608,Correct
1,new_learn,8,630,A,69.14889935092259,61.76385041607852,3.4574449675461296,0.9701842936228559,A,518,Correct
1,new_learn,8,631,B,46.11245682347472,27.700555423477255,2.305622841173736,0.4351193070937653,B,764,Correct
1,new_learn,8,632,A,53.41153549299345,56.01802508422575,2.6705767746496725,0.8799290803660619,A,688,Correct
1,new_learn,8,633,A,50.74453257304009,69.48032407831654,2.5372266286520047,1.0913943784673865,A,513,Correct
1,new_learn,8,634,B,62.853994471981586,20.29160612392741,3.1426997235990792,0.31873980364234,B,386,Correct
1,new_learn,8,635,B,44.10864256360397,42.29943838881363,2.2054321281801985,0.6644380244663548,A,549,Incorrect
1,new_learn,8,636,A,63.44788402978682,65.49045715567345,3.172394201489341,1.0287216954025042,A,766,Correct
1,new_learn,8,637,A,75.22786674285075,35.12463831070146,3.761393337142538,0.5517365283844916,B,449,Incorrect
1,new_learn,8,638,A,54.40911908049913,74.8135221167586,2.7204559540249567,1.1751680573559318,B,521,Incorrect
1,new_learn,8,639,A,39.33069936005985,86.11247430413589,1.9665349680029924,1.3526515832815658,B,666,Incorrect
1,new_learn,8,640,A,85.62971806254767,33.30279006022394,4.2814859031273835,0.5231190029862136,B,571,Incorrect
1,new_learn,8,641,B,63.82186514220457,13.544918686505042,3.1910932571102286,0.21276308519497675,B,699,Correct
1,new_learn,8,642,A,51.81555640181577,57.74487381178011,2.5907778200907887,0.9070543567477903,B,713,Incorrect
1,new_learn,8,643,B,44.51070717439251,34.561570487333285,2.2255353587196254,0.5428918796976603,B,453,Correct
1,new_learn,8,644,B,42.3916430816138,35.83952009343733,2.1195821540806903,0.5629658651686325,B,556,Correct
1,new_learn,8,645,A,75.95188003761496,53.09849636007908,3.7975940018807477,0.8340692304074442,A,628,Correct
1,new_learn,8,646,A,60.782712738373924,60.14060784691863,3.0391356369186964,0.944686458971521,A,490,Correct
1,new_learn,8,647,B,55.925830685692134,34.31209920620468,2.7962915342846064,0.5389731939772839,B,595,Correct
1,new_learn,8,648,B,22.41920350048453,53.49557324244704,1.1209601750242266,0.8403064994902315,A,813,Incorrect
1,new_learn,8,649,B,43.66047429238,36.29254531500647,2.183023714619,0.5700819687084949,A,424,Incorrect
1,new_learn,8,650,A,76.44114591273272,35.308151710929394,3.822057295636636,0.5546191501344483,A,647,Correct
1,new_learn,8,651,B,55.14952300436029,25.163068924033496,2.7574761502180145,0.3952605623675863,A,642,Incorrect
1,new_learn,8,652,A,67.8199309278796,59.154095690527136,3.3909965463939797,0.9291903622555384,B,523,Incorrect
1,new_learn,8,653,A,58.226374567568186,53.309858094199,2.9113187283784097,0.8373892927632498,A,615,Correct
1,new_learn,8,654,B,36.91926629236557,32.11831307583823,1.8459633146182783,0.5045132820237519,B,436,Correct
1,new_learn,8,655,A,52.5865470623597,71.85632836216581,2.629327353117985,1.12871656648258,A,750,Correct
1,new_learn,8,656,A,73.7531391756613,37.73341262406831,3.6876569587830654,0.5927150594732268,B,524,Incorrect
1,new_learn,8,657,A,55.43179997877845,74.01425002533259,2.7715899989389228,1.162613120702715,A,671,Correct
1,new_learn,8,658,B,54.19344743422807,27.564743874493914,2.7096723717114037,0.4329859842709717,B,535,Correct
1,new_learn,8,659,B,48.44297230603947,30.298177833437137,2.422148615301974,0.4759226644934161,B,586,Correct
1,new_learn,8,660,B,59.93296821598952,26.67322989774155,2.9966484107994757,0.4189821154712824,B,834,Correct
1,new_learn,8,661,B,20.63326720883036,50.34740318025188,1.031663360441518,0.7908551597920135,A,701,Incorrect
1,new_learn,8,662,B,27.50903552223013,57.43211680131875,1.3754517761115066,0.9021415811156696,B,792,Correct
1,new_learn,8,663,A,57.51022809140652,68.21108597965085,2.875511404570326,1.071457233035264,A,727,Correct
1,new_learn,8,664,A,55.900861498208286,68.51626327345059,2.7950430749104145,1.0762509467564825,A,506,Correct
1,new_learn,8,665,B,61.03924939813379,28.326764420225047,3.0519624699066896,0.44495577501273875,B,639,Correct
1,new_learn,8,666,A,41.008910959459214,85.49232896778285,2.050445547972961,1.3429103631173422,A,627,Correct
1,new_learn,8,667,A,40.33116956840028,74.10451583843991,2.0165584784200137,1.1640310127793565,A,798,Correct
1,new_learn,8,668,B,27.133085660611634,58.90145725960684,1.3566542830305819,0.9252219270625701,A,687,Incorrect
1,new_learn,8,669,A,77.17772094498144,35.22713891222415,3.8588860472490722,0.5533466040681526,B,510,Incorrect
1,new_learn,8,670,B,52.787732202626316,38.23282274610893,2.639386610131316,0.6005597753258828,B,417,Correct
1,new_learn,8,671,B,62.40059443987208,16.76894969941503,3.1200297219936037,0.26340604592049516,B,735,Correct
1,new_learn,8,672,B,19.43088752077107,53.137664248783025,0.9715443760385534,0.8346844781644889,B,2177,Correct
1,new_learn,8,673,A,84.63182572724058,42.89771952347297,4.231591286362029,0.6738358025534906,B,850,Incorrect
1,new_learn,8,674,B,53.76553938899281,30.01105197516577,2.6882769694496407,0.4714125020584112,B,651,Correct
1,new_learn,8,675,A,77.18475486858975,42.25708592445298,3.859237743429487,0.6637727535118706,B,518,Incorrect
1,new_learn,8,676,B,50.90455495300099,41.741187483162435,2.5452277476500496,0.6556690397460866,B,447,Correct
1,new_learn,8,677,B,42.2673766601828,41.78772827034803,2.11336883300914,0.6564001007216594,A,467,Incorrect
1,new_learn,8,678,A,66.13816709348708,60.91887696932151,3.3069083546743543,0.9569114817588045,A,749,Correct
1,new_learn,8,679,B,42.27225747416673,34.134756292975496,2.1136128737083366,0.5361874980104488,B,844,Correct
1,new_learn,8,680,B,35.06588136192908,55.63101255358846,1.7532940680964542,0.8738499017505753,A,625,Incorrect
1,new_learn,8,681,B,46.26227990966991,42.7245963750582,2.313113995483495,0.6711163904973597,B,569,Correct
1,new_learn,8,682,B,45.78291307263863,34.88437746815218,2.2891456536319312,0.547962519895001,B,544,Correct
1,new_learn,8,683,B,27.885959025042656,39.48527848256106,1.3942979512521327,0.6202333040288047,B,552,Correct
1,new_learn,8,684,B,17.13658106025305,52.737851761497126,0.8568290530126526,0.8284042383001344,A,752,Incorrect
1,new_learn,8,685,B,37.094396731835275,40.78180578188274,1.8547198365917636,0.6405991072224428,B,722,Correct
1,new_learn,8,686,B,28.049491075268165,58.97447248187706,1.4024745537634085,0.926368847491992,B,397,Correct
1,new_learn,8,687,A,86.93114628811364,30.81003844978727,4.346557314405682,0.48396295225335373,B,602,Incorrect
1,new_learn,8,688,B,52.639047642381406,21.971317527510507,2.6319523821190707,0.3451246486705784,A,377,Incorrect
1,new_learn,8,689,B,15.059487680789594,65.36799393192936,0.7529743840394798,1.0267980475822573,A,832,Incorrect
1,new_learn,8,690,B,38.707624359042946,42.926786400274956,1.9353812179521472,0.6742923839866102,A,473,Incorrect
1,new_learn,8,691,B,29.163297549851226,43.50379092458621,1.4581648774925613,0.6833559498599318,A,496,Incorrect
1,new_learn,8,692,A,86.82041581355418,39.87836027068823,4.3410207906777085,0.6264078183180062,A,579,Correct
1,new_learn,8,693,B,18.914474093228662,58.29909200896256,0.9457237046614331,0.915759995831561,B,692,Correct
1,new_learn,8,694,B,45.921986827713525,42.96228707017675,2.296099341385676,0.6748500272054152,B,441,Correct
1,new_learn,8,695,A,42.4914251157923,73.31250899103131,2.1245712557896153,1.1515901983122978,B,439,Incorrect
1,new_learn,8,696,A,42.943427273513485,80.57546170839122,2.147171363675674,1.2656763928134376,A,726,Correct
1,new_learn,8,697,A,67.86070437271002,43.041426383668515,3.393035218635501,0.6760931446347945,B,464,Incorrect
1,new_learn,8,698,A,58.31058416887214,50.921396960529506,2.915529208443607,0.7998714330086456,A,530,Correct
1,new_learn,8,699,B,39.620462554449176,44.402374637848766,1.9810231277224588,0.6974708698210372,A,497,Incorrect
1,new_learn,8,700,A,58.946253207447675,51.20783891955055,2.9473126603723836,0.8043708527793475,B,456,Incorrect
1,new_learn,8,701,B,35.5884458131816,42.005551606662706,1.7794222906590802,0.6598216616873924,B,332,Correct
1,new_learn,8,702,A,63.631366696631765,53.75210464519422,3.181568334831588,0.8443360853416597,A,319,Correct
1,new_learn,8,703,B,60.01720352584326,21.268413563350066,3.0008601762921625,0.3340834590206504,A,502,Incorrect
1,new_learn,8,704,A,58.581530948923024,59.868950829269274,2.9290765474461513,0.9404192805168046,A,810,Correct
1,new_learn,8,705,B,65.20522856750877,14.682854314836106,3.260261428375438,0.23063773624609152,B,515,Correct
1,new_learn,8,706,B,33.93678379250145,53.91829842133906,1.6968391896250725,0.8469466510727047,B,455,Correct
1,new_learn,8,707,B,31.90390940028082,47.61236864379242,1.5951954700140412,0.7478933377567365,B,533,Correct
1,new_learn,8,708,A,57.102203350706674,75.53415236630153,2.8551101675353334,1.1864876908455246,B,377,Incorrect
1,new_learn,8,709,A,68.18310691597692,58.570986522610355,3.4091553457988457,0.9200309048646973,B,726,Incorrect
1,new_learn,8,710,A,60.10812282332171,66.40328706808354,3.0054061411660853,1.0430603941365268,A,319,Correct
1,new_learn,8,711,B,42.433522089598775,32.836664127364884,2.121676104479939,0.515797113954625,A,360,Incorrect
1,new_learn,8,712,B,36.258370908234596,39.24568440813013,1.81291854541173,0.6164697691084255,B,769,Correct
1,new_learn,8,713,B,21.62304987915705,53.00521989130821,1.0811524939578525,0.8326040470622271,A,472,Incorrect
1,new_learn,8,714,B,45.813486232658306,39.74405411749961,2.290674311632915,0.6242981421970597,A,894,Incorrect
1,new_learn,8,715,A,76.15383110423237,35.99063124343448,3.8076915552116186,0.5653395135621652,B,344,Incorrect
1,new_learn,8,716,A,81.10415560813516,38.75671071890186,4.055207780406758,0.6087889883590343,B,354,Incorrect
1,new_learn,8,717,B,54.04819767874723,18.033401958262573,2.7024098839373614,0.28326801555654746,B,640,Correct
1,new_learn,8,718,A,55.28456011857618,54.11171182870619,2.7642280059288087,0.8499847817711564,A,575,Correct
1,new_learn,8,719,B,40.98723854004637,44.774350044438364,2.0493619270023187,0.703313845844327,B,583,Correct
1,new_learn,8,720,B,49.361657985766655,21.482250122858076,2.468082899288333,0.33744239584274677,A,728,Incorrect
1,new_learn,8,721,B,20.798521312683498,60.63355344715198,1.039926065634175,0.9524296303530835,B,324,Correct
1,new_learn,8,722,B,19.8234024105848,66.42796144822874,0.9911701205292401,1.043447978393507,A,354,Incorrect
1,new_learn,8,723,A,65.87189853598483,64.45579787622358,3.2935949267992415,1.012469305446063,B,583,Incorrect
1,new_learn,8,724,B,50.44852766022481,39.6864327676086,2.522426383011241,0.6233930281495221,B,433,Correct
1,new_learn,8,725,A,64.90394608604156,63.9529280004941,3.245197304302078,1.004570243909546,A,449,Correct
1,new_learn,8,726,A,44.286255414267536,84.68926572033011,2.2143127707133767,1.3302958751245149,A,386,Correct
1,new_learn,8,727,A,52.47736298456083,78.87853099420441,2.6238681492280413,1.239021067486737,B,410,Incorrect
1,new_learn,8,728,A,55.04030635208549,65.36848367552287,2.752015317604274,1.0268057404566346,B,142,Incorrect
1,new_learn,8,729,A,50.382798029851,71.51321508966356,2.5191399014925504,1.1233269558013688,B,309,Incorrect
1,new_learn,8,730,B,34.918598161977044,53.030164443584084,1.7459299080988524,0.832995875173112,A,324,Incorrect
1,new_learn,8,731,B,27.23822400384448,50.4660869746223,1.361911200192224,0.7927194404744848,A,362,Incorrect
1,new_learn,8,732,B,18.670436217594943,61.85936828609826,0.9335218108797472,0.9716846848165587,B,797,Correct
1,new_learn,8,733,A,37.630751630369815,77.99703723072149,1.8815375815184907,1.2251745958290208,A,480,Correct
1,new_learn,8,734,A,50.48438247268372,79.80629369767075,2.524219123634186,1.2535943299541592,A,313,Correct
1,new_learn,8,735,A,36.20417867342162,77.9046376191608,1.810208933671081,1.2237231861246527,B,323,Incorrect
1,new_learn,8,736,A,50.625557846060254,60.49561686399984,2.5312778923030126,0.9502629275716235,B,282,Incorrect
1,new_learn,8,737,A,44.8389799292405,80.14807158803941,2.241948996462025,1.2589629645018672,B,352,Incorrect
1,new_learn,8,738,A,69.08522145846712,53.05002954459268,3.454261072923356,0.8333079154500693,B,576,Incorrect
1,new_learn,8,739,A,46.290651978660755,75.27371475998301,2.3145325989330376,1.182396746491881,B,380,Incorrect
1,new_learn,8,740,A,33.57353104784503,79.7876722654887,1.6786765523922513,1.2533018251814467,A,369,Correct
1,new_learn,8,741,B,51.44436639620195,36.89217872461647,2.5722183198100974,0.5795009882808838,A,490,Incorrect
1,new_learn,8,742,B,37.41203017763419,39.7165574957983,1.8706015088817096,0.6238662262733828,A,630,Incorrect
1,new_learn,8,743,A,52.13258426347361,65.14243778550919,2.6066292131736803,1.023255019919429,B,347,Incorrect
1,new_learn,8,744,B,24.998061360871958,47.31120613354979,1.2499030680435979,0.7431626881081619,B,359,Correct
1,new_learn,8,745,A,54.24279906512002,53.525080461334696,2.712139953256001,0.8407699978006584,B,341,Incorrect
1,new_learn,8,746,A,68.37173559475575,44.49208160133653,3.4185867797377876,0.6988799835083822,A,396,Correct
1,new_learn,8,747,B,48.98195416624647,27.186152132981434,2.449097708312323,0.42703907910174477,A,517,Incorrect
1,new_learn,8,748,A,75.35748480069556,42.25850506816518,3.7678742400347778,0.6637950453691738,A,270,Correct
1,new_learn,8,749,A,48.04625289775831,74.01493729042569,2.4023126448879153,1.162623916237553,B,97,Incorrect
1,new_learn,8,750,B,24.220236026680467,60.647344847378385,1.2110118013340234,0.9526462651612536,B,295,Correct
1,new_learn,8,751,A,46.22525488533386,72.16927936175257,2.3112627442666933,1.1336323892887568,B,418,Incorrect
1,new_learn,8,752,B,39.34978258618609,40.67586268831125,1.9674891293093042,0.638934957000129,B,321,Correct
1,new_learn,8,753,B,63.68792004395176,24.94005518316345,3.184396002197588,0.39175747071775174,A,212,Incorrect
1,new_learn,8,754,B,38.575306124209206,45.31159605342404,1.9287653062104602,0.7117528864193261,B,505,Correct
1,new_learn,8,755,A,55.1094626528374,58.58055887242073,2.7554731326418698,0.9201812669839069,B,606,Incorrect
1,new_learn,8,756,B,52.069579580713715,23.145834849921044,2.603478979035686,0.3635739236285728,A,286,Incorrect
1,new_learn,8,757,B,45.69979123880743,32.04180531408815,2.2849895619403715,0.5033115009124687,A,273,Incorrect
1,new_learn,8,758,B,48.83404425331449,29.738849878824283,2.4417022126657244,0.4671367615276204,A,219,Incorrect
1,new_learn,8,759,B,31.67274673404781,45.68302709239175,1.5836373367023904,0.717587311536007,B,511,Correct
1,new_learn,8,760,B,37.09672313135148,49.30791691335056,1.8548361565675742,0.7745269476939901,B,355,Correct
1,new_learn,8,761,B,62.30962468532256,20.302630434252762,3.1154812342661278,0.3189129731039851,B,299,Correct
1,new_learn,8,762,B,18.975704028804085,54.93355330329415,0.9487852014402043,0.8628942374660611,A,454,Incorrect
1,new_learn,8,763,A,43.877651896380534,68.85884588763504,2.193882594819027,1.08163222187633,B,382,Incorrect
1,new_learn,8,764,B,24.445690502127952,42.95653472588941,1.2222845251063976,0.6747596695926451,B,292,Correct
1,new_learn,8,765,B,60.69573214234535,13.750138936175034,3.0347866071172676,0.2159866773386323,A,289,Incorrect
1,new_learn,8,766,A,87.18509871120996,39.37358284309087,4.3592549355604975,0.6184787930268171,A,659,Correct
1,new_learn,8,767,A,53.031518630426355,63.251205249978376,2.6515759315213177,0.9935476087201612,B,538,Incorrect
1,new_learn,8,768,B,23.097678779719768,54.022268715268,1.1548839389859884,0.8485798126306983,A,418,Incorrect
1,new_learn,8,769,A,72.86166880410855,40.661820898458664,3.6430834402054275,0.6387143890809083,A,427,Correct
1,new_learn,8,770,B,49.15947566615969,27.908518113806792,2.4579737833079847,0.4383859773945655,B,387,Correct
1,new_learn,8,771,B,61.524286095889465,16.365341877863912,3.0762143047944734,0.2570661890849133,B,1022,Correct
1,new_learn,8,772,A,43.874309993116526,75.90567520300624,2.193715499655826,1.1923235579176865,A,462,Correct
1,new_learn,8,773,A,36.877447936369904,77.37996092573047,1.8438723968184951,1.2154815838967006,A,830,Correct
1,new_learn,8,774,B,37.91338435535678,35.13429872416815,1.8956692177678391,0.5518882738043794,B,565,Correct
1,new_learn,8,775,B,55.94692395531294,27.79508675435865,2.797346197765647,0.43660420176692055,B,499,Correct
1,new_learn,8,776,B,41.399483867637436,38.8895150396214,2.0699741933818716,0.6108750737507218,A,781,Incorrect
1,new_learn,8,777,B,30.982023512418934,41.911640806885465,1.5491011756209467,0.6583465142940278,A,423,Incorrect
1,new_learn,8,778,A,77.40916942287245,53.504814797078645,3.8704584711436225,0.8404516654909238,A,234,Correct
1,new_learn,8,779,A,43.896932086061774,79.90525521271113,2.194846604303089,1.255148813797354,B,627,Incorrect
1,new_learn,8,780,A,65.4054996356236,43.181057078533854,3.2702749817811796,0.6782864584608174,A,342,Correct
1,new_learn,8,781,B,37.691355519331964,33.335490757646966,1.8845677759665984,0.5236326643401708,A,283,Incorrect
1,new_learn,8,782,A,78.93897073425053,40.96704154398083,3.9469485367125263,0.6435087837693901,A,237,Correct
1,new_learn,8,783,A,50.89219110245704,58.23433782312045,2.544609555122852,0.914742839458907,B,422,Incorrect
1,new_learn,8,784,B,41.56272637021184,45.59024799733278,2.078136318510592,0.7161299409187871,B,430,Correct
1,new_learn,8,785,A,50.99482177745363,68.19580870134507,2.5497410888726817,1.0712172581088029,A,583,Correct
1,new_learn,8,786,B,52.84524807152282,27.345906956967553,2.6422624035761406,0.42954850200879646,A,603,Incorrect
1,new_learn,8,787,A,57.627386768929966,57.75926758165272,2.8813693384464982,0.9072804535562364,A,54,Correct
1,new_learn,8,788,A,67.95492266147043,63.49122053488814,3.3977461330735217,0.99731775999927,B,300,Incorrect
1,new_learn,8,789,B,55.909996826525315,26.850808268157664,2.795499841326266,0.42177150999096097,B,386,Correct
1,new_learn,8,790,B,33.0687914695798,41.051384313877946,1.65343957347899,0.6448336369008512,B,644,Correct
1,new_learn,8,791,A,47.13719416743785,59.98039110616959,2.3568597083718923,0.9421697802929248,A,690,Correct
1,new_learn,8,792,B,26.14180707933572,49.703074820529224,1.307090353966786,0.7807340735849922,A,607,Incorrect
1,new_learn,8,793,A,52.88644752402166,67.9593281911745,2.644322376201083,1.067502630941458,A,375,Correct
1,new_learn,8,794,A,53.33192874078271,65.04927827712766,2.6665964370391357,1.0217916737837116,A,424,Correct
1,new_learn,8,795,A,59.81886472523011,61.85067878051975,2.990943236261505,0.9715481903821147,A,490,Correct
1,new_learn,8,796,B,40.05608019985287,50.58643707415517,2.002804009992644,0.7946098954172411,A,334,Incorrect
1,new_learn,8,797,A,80.00717086440196,33.54285466547242,4.000358543220098,0.5268899289873914,B,488,Incorrect
1,new_learn,8,798,A,46.73373212859074,60.934371979594694,2.3366866064295366,0.9571548768110123,B,323,Incorrect
1,new_learn,8,799,A,31.33950539738289,82.16272964533754,1.5669752698691446,1.2906091392633836,A,602,Correct
1,new_learn,8,800,B,26.12541378757969,46.74275121880638,1.3062706893789846,0.7342334191878873,B,1059,Correct
1,new_learn,8,801,A,47.5095595908181,70.41328369907758,2.375477979540905,1.1060492739207803,A,782,Correct
1,new_learn,8,802,B,45.868670500719084,31.079124101240737,2.293433525035954,0.4881897397823169,B,574,Correct
1,new_learn,8,803,B,36.37315838672804,54.22626938623144,1.8186579193364023,0.8517842476768289,B,429,Correct
1,new_learn,8,804,B,56.077134852980834,23.83199597972586,2.803856742649042,0.3743521174514412,A,510,Incorrect
1,new_learn,8,805,A,76.27404224037844,53.002207862391785,3.813702112018922,0.8325567342226462,A,783,Correct
1,new_learn,8,806,A,65.67050079437855,46.46348822346337,3.2835250397189277,0.729846766314942,A,313,Correct
1,new_learn,8,807,A,77.7275074617262,41.944108766073136,3.88637537308631,0.658856519804333,A,416,Correct
1,new_learn,8,808,A,81.28609629251456,39.55197299058793,4.064304814625728,0.6212809389110647,B,364,Incorrect
1,new_learn,8,809,A,52.041769013307466,64.50807354570044,2.602088450665373,1.0132904497420128,B,407,Incorrect
1,new_learn,8,810,A,74.76305827413174,46.94750335670538,3.7381529137065868,0.7374496582490389,B,445,Incorrect
1,new_learn,8,811,A,77.19939228374214,39.83589813373737,3.8599696141871074,0.6257408246305034,B,686,Incorrect
1,new_learn,8,812,A,65.57051728596345,56.34061944381672,3.2785258642981723,0.8849963807169644,A,496,Correct
1,new_learn,8,813,B,26.50549507381921,40.950258624741885,1.3252747536909604,0.6432451582904558,A,278,Incorrect
1,new_learn,8,814,A,55.93958026234876,52.06359710805055,2.796979013117438,0.8178130709705521,A,536,Correct
1,new_learn,8,815,B,26.228172181636687,46.79332325395096,1.3114086090818344,0.7350278028583238,B,890,Correct
1,new_learn,8,816,B,19.632341922043192,57.282843690560895,0.9816170961021596,0.8997968045749927,B,793,Correct
1,new_learn,8,817,A,47.019840197882694,71.62541115313175,2.3509920098941346,1.1250893274451357,A,386,Correct
1,new_learn,8,818,B,49.416659080331804,38.897466531189174,2.4708329540165903,0.6109999754881937,B,505,Correct
1,new_learn,8,819,A,48.63074807505164,67.90020812873678,2.431537403752582,1.0665739751722871,A,401,Correct
1,new_learn,8,820,A,45.711309784058685,65.76470508123685,2.2855654892029342,1.0330295717435654,A,618,Correct
1,new_learn,8,821,A,68.04307750038255,44.782201969693915,3.4021538750191276,0.7034371835978239,B,804,Incorrect
1,new_learn,8,822,B,58.09243532489157,28.453654736897718,2.904621766244578,0.4469489634460914,B,659,Correct
1,new_learn,8,823,A,62.54934863235356,52.08704016958871,3.1274674316176783,0.8181813137200816,A,707,Correct
1,new_learn,8,824,A,82.28331913431273,47.18404858333969,4.114165956715636,0.7411653019802192,B,560,Incorrect
1,new_learn,8,825,B,53.02218730863584,21.577420516167408,2.651109365431792,0.338937328885046,B,611,Correct
1,new_learn,8,826,B,55.08343446669712,20.722709415001944,2.754171723334856,0.32551155830323075,B,455,Correct
1,new_learn,8,827,B,51.99440421718237,26.972857219380828,2.5997202108591186,0.4236886504336661,B,363,Correct
1,new_learn,8,828,A,85.36330823002342,34.998871241985526,4.268165411501172,0.549760983888784,A,1389,Correct
1,new_learn,8,829,B,23.59897972562169,55.43612546372873,1.1799489862810844,0.8707886225016611,A,625,Incorrect
1,new_learn,8,830,A,66.10187277700894,59.00166590696697,3.3050936388504466,0.9267960008144339,A,744,Correct
1,new_learn,8,831,B,52.30039896981808,22.785355858700882,2.6150199484909042,0.35791153287561916,B,725,Correct
1,new_learn,8,832,B,37.890518053786685,33.623965645153945,1.8945259026893342,0.5281640172768561,B,388,Correct
1,new_learn,8,833,A,47.95813070231293,77.45914273668659,2.3979065351156463,1.2167253688746889,B,415,Incorrect
1,new_learn,8,834,B,49.13345879149378,39.035498257429445,2.456672939574689,0.6131681727737875,B,438,Correct
1,new_learn,8,835,A,71.63304516634658,41.72486782277285,3.5816522583173285,0.6554126911201418,B,440,Incorrect
1,new_learn,8,836,A,84.18343075095305,40.85329927163118,4.209171537547652,0.6417221243333089,A,385,Correct
1,new_learn,8,837,B,25.041922373607644,61.97629205865424,1.2520961186803823,0.9735213191410179,A,597,Incorrect
1,new_learn,8,838,A,51.65582605933549,63.73166450307416,2.5827913029667746,1.001094645019536,A,344,Correct
1,new_learn,8,839,A,43.138012770438635,78.32105657254436,2.156900638521932,1.2302642797484797,B,651,Incorrect
1,new_learn,8,840,B,38.31561111590785,42.77304839375823,1.9157805557953924,0.6718774730273578,B,475,Correct
1,new_learn,8,841,A,67.71532799953717,59.913058241919,3.3857663999768586,0.9411121181345508,A,587,Correct
1,new_learn,8,842,B,37.790819845242765,38.07680042008008,1.8895409922621382,0.5981089823596417,B,862,Correct
1,new_learn,8,843,A,64.17612907476364,52.13336115916991,3.208806453738182,0.8189089221229583,A,1006,Correct
1,new_learn,8,844,B,46.119248076369665,23.506089445060894,2.305962403818483,0.3692327895761395,B,572,Correct
1,new_learn,8,845,B,59.40786588428958,26.67120521807017,2.9703932942144786,0.418950311877375,B,706,Correct
1,new_learn,8,846,A,74.94554262062654,43.43476896791878,3.747277131031327,0.6822717554999177,A,371,Correct
1,new_learn,8,847,A,54.74255712356264,65.06822599978892,2.737127856178132,1.0220893039152863,A,470,Correct
1,new_learn,8,848,A,84.86696327564786,44.545408985119316,4.243348163782393,0.699717648094018,A,751,Correct
1,new_learn,8,849,B,50.65079410174345,41.33433925388556,2.5325397050871725,0.6492782827049753,A,722,Incorrect
1,new_learn,8,850,A,52.581156938974566,65.33805833500583,2.629057846948728,1.0263278203253783,A,577,Correct
1,new_learn,8,851,A,77.49866468562703,54.61702998930693,3.8749332342813516,0.8579223008765003,A,667,Correct
1,new_learn,8,852,A,55.01490191527001,53.388531807461575,2.7507450957635005,0.8386250965613314,A,483,Correct
1,new_learn,8,853,A,36.99328646449465,82.42753795576107,1.8496643232247325,1.294768738476564,A,799,Correct
1,new_learn,8,854,B,50.778854179192706,40.10962973939338,2.5389427089596355,0.6300405906374246,B,742,Correct
1,new_learn,8,855,A,55.456023426546665,65.61057111799522,2.772801171327333,1.0306084411106222,A,551,Correct
1,new_learn,8,856,B,59.87371920904941,16.76654849507449,2.9936859604524706,0.2633683278909151,B,469,Correct
1,new_learn,8,857,B,63.94201654416104,21.02297484222838,3.197100827208052,0.3302281166047386,B,611,Correct
1,new_learn,8,858,B,43.55163512397573,49.411857206302386,2.1775817561987862,0.7761596379977374,A,842,Incorrect
1,new_learn,8,859,B,51.208048835108464,37.818554369804936,2.560402441755423,0.5940524628878268,A,518,Incorrect
1,new_learn,8,860,B,56.08308319151945,29.574793387061774,2.8041541595759725,0.4645597681811463,A,453,Incorrect
1,new_learn,8,861,B,47.60174042464585,41.92562604911073,2.3800870212322924,0.6585661939651957,A,425,Incorrect
1,new_learn,8,862,A,85.97001575236433,36.194609104472626,4.298500787618217,0.5685435903108272,A,411,Correct
1,new_learn,8,863,B,45.0510344165145,31.242435153609364,2.252551720825725,0.49075502379417335,B,481,Correct
1,new_learn,8,864,B,68.2498837946419,15.545487590442178,3.412494189732095,0.24418794805302224,B,367,Correct
1,new_learn,8,865,A,64.20943240530876,54.00103196218502,3.2104716202654378,0.8482462264933405,A,709,Correct
1,new_learn,8,866,A,39.209876872960606,80.77332472375195,1.9604938436480301,1.2687844177908096,A,804,Correct
1,new_learn,8,867,B,37.24455787548881,39.24611750366653,1.8622278937744403,0.6164765721572029,B,682,Correct
1,new_learn,8,868,A,87.18785244398778,32.79934613150675,4.359392622199389,0.5152109242464521,A,613,Correct
1,new_learn,8,869,A,75.98906276336837,51.26374058523407,3.7994531381684182,0.8052489540905213,A,479,Correct
1,new_learn,8,870,B,42.65340355319827,42.72834976522099,2.1326701776599135,0.6711753486121671,B,313,Correct
1,new_learn,8,871,A,61.965100193966336,65.96736033117007,3.098255009698317,1.036212872965573,A,630,Correct
1,new_learn,8,872,B,33.742172926912765,42.46773246940388,1.6871086463456382,0.6670815817024798,B,504,Correct
1,new_learn,8,873,B,63.85687813906662,15.281439137685425,3.192843906953331,0.24004028465616037,B,901,Correct
1,new_learn,8,874,A,40.77957782638529,67.92927858841301,2.038978891319265,1.067030612885064,A,583,Correct
1,new_learn,8,875,A,80.46321143479781,33.93082982342379,4.023160571739891,0.5329842285173682,A,822,Correct
1,new_learn,8,876,A,46.101100574719034,61.92329741351327,2.3050550287359517,0.9726888812017456,B,612,Incorrect
1,new_learn,8,877,A,40.32591139258135,70.93221050481293,2.0162955696290674,1.1142005571240254,A,544,Correct
1,new_learn,8,878,B,22.164778652467636,47.03274725309002,1.1082389326233817,0.7387886662422656,A,696,Incorrect
1,new_learn,8,879,B,63.7289716163668,22.379446743417716,3.18644858081834,0.3515355274026256,B,907,Correct
1,new_learn,8,880,A,50.02270011661866,80.38480759525908,2.501135005830933,1.2626816050074745,A,575,Correct
1,new_learn,8,881,B,68.79130720096455,16.241823058355706,3.439565360048227,0.25512596000517795,B,630,Correct
1,new_learn,8,882,A,53.44799280915092,65.01995863830524,2.672399640457546,1.0213311219740597,A,717,Correct
1,new_learn,8,883,B,49.218387852568156,22.166097038823835,2.4609193926284076,0.3481842380796371,B,562,Correct
1,new_learn,8,884,B,35.92643006085836,51.06823943522161,1.796321503042918,0.8021780292072838,A,521,Incorrect
1,new_learn,8,885,B,38.75036162181427,31.957985288499685,1.9375180810907136,0.5019948590294064,A,589,Incorrect
1,new_learn,8,886,A,55.1184238678472,61.94266976939837,2.7559211933923597,0.9729931814564025,A,885,Correct
1,new_learn,8,887,B,67.25337415801602,10.16307904365462,3.362668707900801,0.15964127230698866,B,765,Correct
1,new_learn,8,888,A,59.711900988307235,70.34777720995125,2.9855950494153616,1.1050203003957717,A,656,Correct
1,new_learn,8,889,A,73.43655015069592,42.15877276680248,3.671827507534796,0.6622284540427406,B,530,Incorrect
1,new_learn,8,890,A,79.11806336858929,33.265972922886306,3.9559031684294643,0.5225406807452829,A,611,Correct
1,new_learn,8,891,A,76.85087478972426,50.31356472352117,3.8425437394862128,0.7903236265566435,A,570,Correct
1,new_learn,8,892,B,61.78527825139513,19.983975155956273,3.0892639125697565,0.31390754769736584,A,864,Incorrect
1,new_learn,8,893,B,32.353063407607074,43.51724368712044,1.6176531703803536,0.6835672653596719,A,739,Incorrect
1,new_learn,8,894,B,62.16502970001562,24.759197086760096,3.108251485000781,0.38891655838273664,A,420,Incorrect
1,new_learn,8,895,A,81.23324779120315,44.069541123658034,4.061662389560158,0.6922427332057868,A,383,Correct
1,new_learn,8,896,B,31.222227382753488,51.4811752768196,1.5611113691376743,0.8086644102391247,B,675,Correct
1,new_learn,8,897,B,45.27386665947471,29.840885910322513,2.2636933329737357,0.4687395397624019,B,408,Correct
1,new_learn,8,898,A,86.77201705720246,38.06142709558975,4.3386008528601225,0.5978674987432412,A,554,Correct
