experiment,condition,subject,trial,cat,x,y,xt,yt,resp,rt,fb
1,new_learn,16,0,B,31.35807657554119,12.531635433739332,1.5679038287770595,0.19684646908050513,A,1535,Incorrect
1,new_learn,16,1,A,16.251476276981546,39.85444228608418,0.8125738138490773,0.6260321154944022,B,3270,Incorrect
1,new_learn,16,2,A,42.01897855714237,67.04151422921649,2.1009489278571185,1.0530856429402105,A,1339,Correct
1,new_learn,16,3,B,31.99094259999173,10.19219818335888,1.5995471299995865,0.16009867468385747,B,1977,Correct
1,new_learn,16,4,A,26.424640934091734,42.32599651249381,1.3212320467045868,0.6648551984975888,A,1962,Correct
1,new_learn,16,5,B,72.28038477759134,44.8505631395238,3.6140192388795667,0.7045109983424658,A,819,Incorrect
1,new_learn,16,6,A,43.500389777065195,72.19445616398588,2.17501948885326,1.134027865573442,A,1591,Correct
1,new_learn,16,7,B,48.184255505695766,40.05877670899684,2.4092127752847885,0.6292417931038918,A,826,Incorrect
1,new_learn,16,8,B,37.30421805032878,14.471589074551744,1.865210902516439,0.22731918961191036,B,6052,Correct
1,new_learn,16,9,B,66.7726266190107,57.33202169106123,3.3386313309505344,0.9005692908004431,A,642,Incorrect
1,new_learn,16,10,B,37.11944178322412,15.059147879238441,1.855972089161206,0.23654854173368903,B,974,Correct
1,new_learn,16,11,A,48.02412434783446,59.41569697936414,2.401206217391723,0.9332995856914383,A,657,Correct
1,new_learn,16,12,B,47.82491899181929,24.86197944527442,2.3912459495909646,0.39053105989487286,B,844,Correct
1,new_learn,16,13,A,24.16896028967536,48.326785452526394,1.2084480144837682,0.7591153707463351,B,1484,Incorrect
1,new_learn,16,14,B,49.29711917311173,41.29418077977977,2.4648559586555865,0.6486474748688249,A,734,Incorrect
1,new_learn,16,15,B,60.68520368151244,30.667124305961558,3.034260184075622,0.48171806213166907,A,862,Incorrect
1,new_learn,16,16,A,49.883362439081495,64.38919836904651,2.494168121954075,1.011423162833662,A,808,Correct
1,new_learn,16,17,A,10.4150808210278,34.9362460462989,0.52075404105139,0.5487772696152904,B,1859,Incorrect
1,new_learn,16,18,A,47.378907723851555,69.8586598884838,2.368945386192578,1.0973372634764433,A,689,Correct
1,new_learn,16,19,A,61.0841946307991,84.31409827013354,3.0542097315399546,1.3244027585974971,A,934,Correct
1,new_learn,16,20,A,16.563506088291476,33.096877398867825,0.8281753044145738,0.5198845344652261,B,715,Incorrect
1,new_learn,16,21,B,84.36296814416184,64.6117672146998,4.218148407208092,1.0149192660857738,A,683,Incorrect
1,new_learn,16,22,A,18.38644589491713,42.82168355673129,0.9193222947458566,0.6726414323808693,A,1573,Correct
1,new_learn,16,23,B,57.28646430034871,28.508132403847185,2.8643232150174356,0.4478046966374572,B,1719,Correct
1,new_learn,16,24,A,26.575871288475284,42.48683432392656,1.3287935644237643,0.6673816329316716,B,774,Incorrect
1,new_learn,16,25,B,39.88417866328678,30.408079388241177,1.9942089331643391,0.4776489940793684,A,947,Incorrect
1,new_learn,16,26,A,42.790152342833906,68.4101468986033,2.139507617141695,1.0745840746382533,A,1426,Correct
1,new_learn,16,27,A,41.112792699197925,69.45768242059748,2.0556396349598964,1.0910387241396098,A,922,Correct
1,new_learn,16,28,A,31.515261701193776,55.364486380299155,1.5757630850596889,0.8696633184106001,B,613,Incorrect
1,new_learn,16,29,B,60.54892258490909,42.30031448751959,3.027446129245454,0.6644517861926472,B,681,Correct
1,new_learn,16,30,A,45.98799146190219,68.32833709806191,2.29939957309511,1.0732990092963912,100,754,Incorrect
1,new_learn,16,31,A,69.05627247965796,86.24258939802604,3.4528136239828986,1.354695426396998,A,585,Correct
1,new_learn,16,32,B,60.79512895571742,49.38397567991639,3.039756447785871,0.7757216760054118,A,1294,Incorrect
1,new_learn,16,33,B,44.16794679106793,17.812784318449058,2.2083973395533967,0.2798025617740951,B,1338,Correct
1,new_learn,16,34,B,31.705888410581625,12.828075488302655,1.5852944205290813,0.20150293856873458,B,733,Correct
1,new_learn,16,35,B,59.064647189608536,51.07608546978966,2.9532323594804266,0.8023012744300778,A,643,Incorrect
1,new_learn,16,36,A,42.257735934644224,54.58613852767046,2.112886796732211,0.8574370589318213,B,1231,Incorrect
1,new_learn,16,37,B,48.94971511110929,29.000098580853862,2.4474857555554648,0.45553248327495144,A,605,Incorrect
1,new_learn,16,38,B,80.76826726786295,52.045889573929074,4.038413363393148,0.817534921675006,B,899,Correct
1,new_learn,16,39,A,42.724598582759846,74.90961006395217,2.1362299291379925,1.176677403300941,B,1058,Incorrect
1,new_learn,16,40,B,63.012832760349696,34.931022666202985,3.1506416380174844,0.5486952209526093,A,695,Incorrect
1,new_learn,16,41,B,40.62007939372173,20.71216333189996,2.0310039696860867,0.325345900817244,B,1144,Correct
1,new_learn,16,42,B,33.11210496861449,17.11705788646591,1.6556052484307244,0.2688741165359627,A,1675,Incorrect
1,new_learn,16,43,B,47.39742247486875,39.83560475549325,2.369871123743437,0.6257362162558211,A,2583,Incorrect
1,new_learn,16,44,B,61.236398421210346,45.93944842865599,3.061819921060517,0.7216151684671642,A,772,Incorrect
1,new_learn,16,45,A,37.88189099115438,58.972740017134605,1.8940945495577188,0.9263416339994545,A,404,Correct
1,new_learn,16,46,B,70.36009188482817,46.120541139230454,3.5180045942414084,0.7244597661129609,A,827,Incorrect
1,new_learn,16,47,B,39.22538412957988,27.134924447111892,1.961269206478994,0.426234396493804,A,666,Incorrect
1,new_learn,16,48,B,77.16225311774136,45.07980332726247,3.8581126558870675,0.7081118947910023,A,960,Incorrect
1,new_learn,16,49,A,52.5922928774947,60.25883741346062,2.629614643874735,0.9465436046599481,B,464,Incorrect
1,new_learn,16,50,A,26.641250410912996,59.2006716466938,1.3320625205456498,0.9299219756641739,B,545,Incorrect
1,new_learn,16,51,A,26.159236707354854,52.77298261340138,1.3079618353677427,0.8289560724314183,A,608,Correct
1,new_learn,16,52,A,59.02961703838336,75.47632620394346,2.9514808519191678,1.1855793596112778,B,426,Incorrect
1,new_learn,16,53,A,34.06841249904982,52.96423309483529,1.703420624952491,0.8319602279687598,A,492,Correct
1,new_learn,16,54,B,48.232908689658096,22.030616509882584,2.411645434482905,0.34605611490750565,B,825,Correct
1,new_learn,16,55,A,25.734818560669357,58.215556181205066,1.2867409280334678,0.9144478181175885,A,2894,Correct
1,new_learn,16,56,B,59.78524927561486,41.25496455170431,2.9892624637807432,0.6480314677987079,B,2749,Correct
1,new_learn,16,57,B,71.66535970486473,61.47636358657215,3.5832679852432365,0.9656684610649506,B,1364,Correct
1,new_learn,16,58,A,32.241344570957466,47.10464589951881,1.6120672285478732,0.7399180475393844,A,911,Correct
1,new_learn,16,59,B,81.20055747923709,55.27315784912405,4.060027873961855,0.8682287331975855,B,1487,Correct
1,new_learn,16,60,A,23.031583698708157,52.1876412484533,1.151579184935408,0.8197615517716028,A,684,Correct
1,new_learn,16,61,A,62.42016250684769,87.19468559693786,3.1210081253423847,1.3696509185170587,107,584,Incorrect
1,new_learn,16,62,A,56.592269683408006,84.45534159919158,2.8296134841704004,1.3266214036221837,B,784,Incorrect
1,new_learn,16,63,A,18.79465293198216,48.356680271171186,0.9397326465991079,0.7595849574595093,A,653,Correct
1,new_learn,16,64,A,32.71910370675292,53.0892915713946,1.635955185337646,0.8339246419248991,B,841,Incorrect
1,new_learn,16,65,B,87.79023134352593,65.8882176812289,4.389511567176297,1.0349697031273692,B,648,Correct
1,new_learn,16,66,A,49.59555252108865,56.962701495490485,2.4797776260544326,0.8947680227343061,B,686,Incorrect
1,new_learn,16,67,B,32.8666479546752,20.83871897713419,1.6433323977337602,0.32733383224393486,A,772,Incorrect
1,new_learn,16,68,A,51.909569454809855,74.96389945131234,2.595478472740493,1.177530179003434,A,726,Correct
1,new_learn,16,69,B,59.22849746157073,44.53975362608484,2.9614248730785366,0.6996288139220374,B,478,Correct
1,new_learn,16,70,B,73.40155876231772,53.66756669419355,3.6700779381158863,0.8430081663125937,B,623,Correct
1,new_learn,16,71,B,44.93380606339741,25.888261661645842,2.2466903031698706,0.4066518632521844,A,695,Incorrect
1,new_learn,16,72,B,66.10128807832346,44.68669030610114,3.305064403916173,0.7019368898944478,B,561,Correct
1,new_learn,16,73,A,27.42348477584663,40.833073873362125,1.3711742387923318,0.6414044245202188,A,2748,Correct
1,new_learn,16,74,B,53.355545005944954,33.306642435932886,2.6677772502972474,0.523179515962344,A,874,Incorrect
1,new_learn,16,75,B,72.37136762604808,48.85937827656481,3.618568381302404,0.7674813192631038,B,729,Correct
1,new_learn,16,76,B,35.776223504524125,10.609849540170455,1.7888111752262064,0.16665912685546272,A,1152,Incorrect
1,new_learn,16,77,B,30.806221080476043,13.038685157242554,1.540311054023802,0.20481118751231742,B,614,Correct
1,new_learn,16,78,B,56.184094473670314,39.01059788802934,2.8092047236835156,0.6127770386858923,B,816,Correct
1,new_learn,16,79,B,83.29348482168325,64.01165110738334,4.164674241084162,1.0054926643155422,B,696,Correct
1,new_learn,16,80,A,49.58175168601008,66.59662550448151,2.479087584300504,1.0460973471937487,A,731,Correct
1,new_learn,16,81,B,50.904265093977486,21.973062219376036,2.545213254698874,0.34515205422631595,A,1542,Incorrect
1,new_learn,16,82,B,85.60172920879226,56.734928514727116,4.280086460439613,0.891190173119044,B,502,Correct
1,new_learn,16,83,A,62.62635275971576,76.13909805389613,3.131317637985788,1.1959901554853651,A,986,Correct
1,new_learn,16,84,A,12.494488560422095,38.09945048515361,0.6247244280211048,0.5984647687498333,B,797,Incorrect
1,new_learn,16,85,B,45.50212228267826,18.193105087255518,2.275106114133913,0.28577662644054513,B,602,Correct
1,new_learn,16,86,A,65.3066732528232,84.49104170770367,3.26533366264116,1.3271821796153533,B,679,Incorrect
1,new_learn,16,87,B,44.04697847133606,26.172430619255763,2.202348923566803,0.4111155788002123,B,1189,Correct
1,new_learn,16,88,B,52.15512867663264,22.87965295556377,2.6077564338316326,0.3593927482094157,A,506,Incorrect
1,new_learn,16,89,A,44.091013901669825,53.797585251591755,2.2045506950834914,0.8450504930363563,B,498,Incorrect
1,new_learn,16,90,A,65.41954681744822,84.66070254295653,3.2709773408724114,1.329847205783515,B,1387,Incorrect
1,new_learn,16,91,A,13.648655856876168,38.294648518271416,0.6824327928438083,0.6015309322840237,A,872,Correct
1,new_learn,16,92,B,77.64588774757775,54.816971815192275,3.882294387378887,0.861062979733234,B,1011,Correct
1,new_learn,16,93,B,39.433534670791005,14.625998877480189,1.9716767335395502,0.22974465312452164,B,1584,Correct
1,new_learn,16,94,A,30.619777602911515,52.9074823661032,1.5309888801455758,0.8310687896064065,A,1687,Correct
1,new_learn,16,95,B,50.17166677320072,23.402278478766977,2.508583338660036,0.36760213073078424,A,2143,Incorrect
1,new_learn,16,96,B,34.181261090237655,17.953799151107557,1.7090630545118828,0.2820176175857308,B,912,Correct
1,new_learn,16,97,B,36.20215402278552,17.224258431350293,1.810107701139276,0.27055801875731067,B,1222,Correct
1,new_learn,16,98,A,61.523397643131474,76.08538881188471,3.0761698821565737,1.1951464926847004,A,1121,Correct
1,new_learn,16,99,A,55.50426143995102,68.86258978437027,2.7752130719975514,1.081691030868726,B,752,Incorrect
1,new_learn,16,100,B,61.40964906962752,36.18145331472772,3.0704824534813757,0.5683369396487533,B,942,Correct
1,new_learn,16,101,A,40.9580425330295,58.70847750910689,2.0479021266514748,0.9221906082302591,A,1140,Correct
1,new_learn,16,102,A,15.033121247082871,35.2854443640302,0.7516560623541436,0.5542624639634431,A,875,Correct
1,new_learn,16,103,B,60.60972375733992,38.574404550042715,3.030486187866996,0.6059253297550744,B,1063,Correct
1,new_learn,16,104,A,69.57300878962702,86.04177586586246,3.478650439481351,1.3515410548100653,B,822,Incorrect
1,new_learn,16,105,A,49.717651305008886,59.81649600157024,2.485882565250444,0.9395953220100816,A,859,Correct
1,new_learn,16,106,B,37.830642910325096,19.979380464979354,1.8915321455162546,0.31383537446027276,107,720,Incorrect
1,new_learn,16,107,B,60.15472261915427,50.53182998823341,3.0077361309577135,0.7937521293174126,B,812,Correct
1,new_learn,16,108,A,35.97870323364731,48.176701395190975,1.7989351616823654,0.7567578558866056,A,1460,Correct
1,new_learn,16,109,B,66.08981806687024,47.973241833685485,3.304490903343512,0.7535619205679642,A,950,Incorrect
1,new_learn,16,110,B,69.13831399999788,49.12694052897645,3.456915699999894,0.7716841772958755,B,733,Correct
1,new_learn,16,111,B,30.705285493489107,10.982398571161262,1.5352642746744554,0.1725111133497763,B,869,Correct
1,new_learn,16,112,B,87.54472731900562,61.218532328965765,4.377236365950281,0.9616184571411406,A,1076,Incorrect
1,new_learn,16,113,B,53.10090239596459,39.50947438752533,2.6550451197982294,0.6206133724152183,A,1792,Incorrect
1,new_learn,16,114,B,68.05862487559847,41.43402992794162,3.4029312437799235,0.650844220151205,A,686,Incorrect
1,new_learn,16,115,B,71.9110655410567,59.48864665004207,3.595553277052835,0.9344454764388561,B,585,Correct
1,new_learn,16,116,B,72.02977730143742,43.669534782287066,3.6014888650718713,0.6859594482885849,B,639,Correct
1,new_learn,16,117,A,21.729287315606957,38.59645413037468,1.0864643657803479,0.6062716837530026,A,423,Correct
1,new_learn,16,118,A,14.249311603178306,38.89513740136419,0.7124655801589154,0.6109633896024566,A,608,Correct
1,new_learn,16,119,B,70.7998593964894,55.98841164862331,3.53999296982447,0.8794639136073811,B,1004,Correct
1,new_learn,16,120,B,74.3535589911541,43.952677230579575,3.717677949557705,0.6904070394659608,B,601,Correct
1,new_learn,16,121,B,65.96966144763172,35.220387216301674,3.298483072381586,0.5532405486766061,B,2234,Correct
1,new_learn,16,122,B,74.3920489733243,54.18675334882633,3.7196024486662145,0.8511635312127745,A,1014,Incorrect
1,new_learn,16,123,A,45.341993869574495,62.486521146906135,2.2670996934787246,0.9815359789175179,A,928,Correct
1,new_learn,16,124,A,55.01359819137141,77.34791992142652,2.7506799095685706,1.214978284978026,A,1353,Correct
1,new_learn,16,125,A,17.08116341927291,35.10931228979669,0.8540581709636456,0.5514957878110757,A,739,Correct
1,new_learn,16,126,A,34.042653316318805,46.083883295262204,1.7021326658159404,0.7238839460464255,A,2103,Correct
1,new_learn,16,127,A,48.997266224932176,77.96940967086228,2.4498633112466086,1.2247406231335694,B,681,Incorrect
1,new_learn,16,128,B,63.53077324446779,43.48523997699938,3.1765386622233893,0.6830645522566523,B,931,Correct
1,new_learn,16,129,A,29.46977109083231,43.604053491675074,1.4734885545416154,0.684930870580914,A,720,Correct
1,new_learn,16,130,B,47.00503889673313,17.83990241602541,2.3502519448366566,0.28022853185472113,B,984,Correct
1,new_learn,16,131,A,55.173362121332204,66.268210725443,2.7586681060666103,1.0409386199079602,A,1124,Correct
1,new_learn,16,132,A,64.21394579319364,88.25614207080349,3.2106972896596826,1.3863242378190666,B,1068,Incorrect
1,new_learn,16,133,A,56.025838057594804,70.32818708350958,2.8012919028797403,1.1047125794092112,A,731,Correct
1,new_learn,16,134,A,20.37041338980201,38.00858145748016,1.0185206694901006,0.5970374014009445,A,848,Correct
1,new_learn,16,135,A,23.318036961030028,36.817830356260316,1.1659018480515015,0.5783331268417133,A,600,Correct
1,new_learn,16,136,A,40.93206986270769,61.6173037600856,2.0466034931353847,0.9678823441334782,B,631,Incorrect
1,new_learn,16,137,A,21.22648224257388,36.090906283424765,1.061324112128694,0.5669146302070247,A,627,Correct
1,new_learn,16,138,B,43.8734642431641,23.29859302439573,2.193673212158205,0.3659734434221001,A,995,Incorrect
1,new_learn,16,139,B,89.65364686900189,65.06089814522576,4.482682343450095,1.0219741982449753,B,708,Correct
1,new_learn,16,140,B,45.33232075917428,28.74225217575631,2.266616037958714,0.45148224141490645,B,740,Correct
1,new_learn,16,141,B,67.11676583343544,54.77979368686387,3.355838291671772,0.8604789870590803,B,1344,Correct
1,new_learn,16,142,B,46.96185298755179,16.858206506692106,2.3480926493775893,0.26480808857061783,A,737,Incorrect
1,new_learn,16,143,B,68.87632834337995,55.313424792437345,3.4438164171689976,0.8688612448640636,A,921,Incorrect
1,new_learn,16,144,B,84.23822550143593,66.63689304887382,4.211911275071796,1.0467298683019535,100,818,Incorrect
1,new_learn,16,145,A,13.612718859137992,38.12975078255322,0.6806359429568997,0.5989407247083943,A,584,Correct
1,new_learn,16,146,B,56.43446590413345,32.713245705602446,2.8217232952066724,0.5138584619189925,A,928,Incorrect
1,new_learn,16,147,B,77.20015801335146,48.03589254056018,3.860007900667573,0.7545460355702629,A,1261,Incorrect
1,new_learn,16,148,B,54.183324910396024,28.380414126004073,2.7091662455198016,0.4457985026204519,B,947,Correct
1,new_learn,16,149,A,49.25905491029734,77.45007737388536,2.4629527455148668,1.2165829704887965,A,816,Correct
1,new_learn,16,150,A,27.123329543794355,57.751523582814166,1.3561664771897177,0.9071588111069333,A,586,Correct
1,new_learn,16,151,B,45.05758149726215,25.49115394141994,2.252879074863108,0.40041410976945696,B,1153,Correct
1,new_learn,16,152,A,25.938371029856192,50.68564537605269,1.2969185514928097,0.7961682557793229,A,804,Correct
1,new_learn,16,153,B,56.05717221871916,47.29252148331301,2.8028586109359583,0.7428691903085679,B,972,Correct
1,new_learn,16,154,A,48.99318434075269,58.12967649209596,2.4496592170376346,0.9130988231155998,B,640,Incorrect
1,new_learn,16,155,A,42.97035273873721,61.60250374410532,2.1485176369368606,0.967649866026095,A,692,Correct
1,new_learn,16,156,B,73.77290797039225,53.905996720033,3.6886453985196126,0.8467534164004556,B,675,Correct
1,new_learn,16,157,B,76.75234569539674,63.62862122546924,3.837617284769837,0.9994760449999087,B,509,Correct
1,new_learn,16,158,B,65.23097900112872,33.48621413364727,3.261548950056436,0.5260002215940048,A,704,Incorrect
1,new_learn,16,159,A,12.379163615474287,30.538666136806913,0.6189581807737143,0.4797002459291199,A,556,Correct
1,new_learn,16,160,B,71.32101953444669,45.964842921155714,3.5660509767223347,0.7220140642225579,A,893,Incorrect
1,new_learn,16,161,B,45.805932802855715,18.50546335939296,2.290296640142786,0.29068313870572005,B,477,Correct
1,new_learn,16,162,A,47.938200251542305,56.98183280881855,2.396910012577115,0.895068536701331,A,795,Correct
1,new_learn,16,163,A,20.703168594206623,36.49288856034197,1.0351584297103313,0.5732289530472066,A,904,Correct
1,new_learn,16,164,B,79.7487836944869,61.78680142092236,3.9874391847243453,0.9705448071639052,B,811,Correct
1,new_learn,16,165,A,37.24595606239818,68.07814035550675,1.8622978031199091,1.0693689280545742,B,954,Incorrect
1,new_learn,16,166,B,46.81504638722042,31.96220838155601,2.3407523193610213,0.5020611952200124,A,797,Incorrect
1,new_learn,16,167,B,55.00059826337591,25.63587074097216,2.7500299131687957,0.40268731594107826,B,689,Correct
1,new_learn,16,168,A,48.648161656135585,73.95520667471628,2.4324080828067793,1.1616856699200175,A,1090,Correct
1,new_learn,16,169,A,24.170780872980234,43.72576661478506,1.2085390436490118,0.686842735847953,A,627,Correct
1,new_learn,16,170,A,13.284013480599661,31.394433534157436,0.6642006740299832,0.4931426087726102,A,707,Correct
1,new_learn,16,171,B,73.11009693007298,53.49951021316647,3.655504846503649,0.8403683412816793,B,1278,Correct
1,new_learn,16,172,A,59.13790134231201,74.84269784107552,2.9568950671156005,1.1756263485618175,B,1785,Incorrect
1,new_learn,16,173,A,36.36591770619097,55.34549567887603,1.8182958853095486,0.8693650131702129,A,509,Correct
1,new_learn,16,174,A,21.45314702057267,38.40307938018931,1.0726573510286335,0.6032341602801421,A,625,Correct
1,new_learn,16,175,A,67.13335076191258,85.96367299070846,3.3566675380956292,1.350314217716025,A,3043,Correct
1,new_learn,16,176,B,52.94644245351213,28.330568295798933,2.647322122675606,0.44501552615052914,B,1616,Correct
1,new_learn,16,177,A,55.680422980615134,64.93069001209832,2.784021149030757,1.0199288936726212,A,1141,Correct
1,new_learn,16,178,A,35.76804187243822,51.47978633812513,1.788402093621911,0.8086425928411305,A,586,Correct
1,new_learn,16,179,A,32.915442212626985,48.11457556754581,1.6457721106313494,0.7557819856679643,A,1236,Correct
1,new_learn,16,180,A,20.212909696252144,40.78638376153512,1.0106454848126072,0.6406710179586638,A,780,Correct
1,new_learn,16,181,B,50.14218788506316,38.215088920511185,2.507109394253158,0.6002812130447932,B,839,Correct
1,new_learn,16,182,B,83.8651643982278,62.860518751375544,4.193258219911391,0.9874107195508243,B,1703,Correct
1,new_learn,16,183,B,59.27300467186012,27.12582007377948,2.963650233593006,0.4260913853319208,B,958,Correct
1,new_learn,16,184,B,47.18098166731828,29.00204724614503,2.359049083365914,0.4555630928377665,B,764,Correct
1,new_learn,16,185,A,60.47378104632415,78.85947447202089,3.023689052316207,1.2387217283362635,A,652,Correct
1,new_learn,16,186,A,44.01704190739264,66.19913303533293,2.200852095369632,1.0398535500890767,A,729,Correct
1,new_learn,16,187,B,73.97143280465082,42.31482181282646,3.698571640232541,0.6646796667256838,B,708,Correct
1,new_learn,16,188,B,40.05330418832387,29.794620600116573,2.0026652094161936,0.46801280596910677,A,585,Incorrect
1,new_learn,16,189,A,28.04384363275982,57.458413455716766,1.402192181637991,0.9025546479970236,A,577,Correct
1,new_learn,16,190,B,71.49923448836829,43.8514666807937,3.5749617244184146,0.6888172278675954,B,681,Correct
1,new_learn,16,191,A,30.125380729270304,41.37979862664321,1.5062690364635154,0.6499923568624365,A,581,Correct
1,new_learn,16,192,B,75.77499312199218,57.09713115733173,3.788749656099609,0.8968796389246312,B,631,Correct
1,new_learn,16,193,B,50.166352030558734,25.450641646036516,2.5083176015279367,0.39977774412167383,B,1080,Correct
1,new_learn,16,194,B,86.37440473514025,64.18162731339085,4.318720236757013,1.0081626443159335,A,886,Incorrect
1,new_learn,16,195,B,39.398141658003354,16.496883138784035,1.9699070829001675,0.25913243437966627,A,719,Incorrect
1,new_learn,16,196,A,39.40788105352804,48.99406900620022,1.9703940526764017,0.7695970362967499,A,1510,Correct
1,new_learn,16,197,A,19.897115656219512,49.41151927974373,0.9948557828109756,0.7761543298597666,A,590,Correct
1,new_learn,16,198,B,53.25186538771757,33.275297323987466,2.6625932693858783,0.5226871480952756,B,740,Correct
1,new_learn,16,199,A,10.3310706847857,34.04906846741215,0.5165535342392851,0.5348415167939895,A,645,Correct
1,new_learn,16,200,B,43.0453931849174,28.28786405949167,2.15226965924587,0.44434472957522886,A,803,Incorrect
1,new_learn,16,201,B,51.32138118904413,34.168812567409,2.5660690594522064,0.5367224527182936,B,1607,Correct
1,new_learn,16,202,B,48.40417660466251,27.918769199292726,2.4202088302331255,0.43854700106883504,A,2348,Incorrect
1,new_learn,16,203,A,37.56124363677116,69.77339478690344,1.878062181838558,1.095997922392781,A,707,Correct
1,new_learn,16,204,A,41.03761063736047,66.06504187295343,2.0518805318680235,1.0377472510358627,A,1177,Correct
1,new_learn,16,205,A,44.79527607532946,76.35089558840079,2.2397638037664733,1.1993170633776062,A,777,Correct
1,new_learn,16,206,B,74.38547478609593,54.436538270287365,3.7192737393047963,0.855087143583972,B,641,Correct
1,new_learn,16,207,A,18.442019672406623,39.5505545531893,0.9221009836203311,0.6212586581485092,A,793,Correct
1,new_learn,16,208,B,36.862659864261744,19.583019653624977,1.843132993213087,0.3076093533946638,A,829,Incorrect
1,new_learn,16,209,B,72.20778183392846,53.90000589467703,3.6103890916964234,0.8466593127358195,B,657,Correct
1,new_learn,16,210,A,35.845159633315966,54.921759344019904,1.7922579816657984,0.8627089783869977,B,1410,Incorrect
1,new_learn,16,211,B,82.3412363419022,63.426850776575094,4.11706181709511,0.9963066422001219,B,650,Correct
1,new_learn,16,212,A,45.46902458170109,68.28153173777184,2.2734512290850546,1.0725637924162115,B,409,Incorrect
1,new_learn,16,213,A,15.47578923679745,44.77326605287658,0.7737894618398725,0.7032968185446917,A,558,Correct
1,new_learn,16,214,B,68.11186598945474,36.65753961031057,3.405593299472737,0.5758152856921427,B,601,Correct
1,new_learn,16,215,A,66.87170550798734,81.91216901985976,3.3435852753993673,1.2866733421619843,A,824,Correct
1,new_learn,16,216,A,26.860127088164667,50.77961507670031,1.3430063544082333,0.797644328385396,A,618,Correct
1,new_learn,16,217,B,55.73910473225415,32.93624254007007,2.786955236612707,0.5173612880036788,B,563,Correct
1,new_learn,16,218,A,33.1688279827306,60.50927565350216,1.6584413991365299,0.9504774793354105,A,992,Correct
1,new_learn,16,219,B,86.32460839898081,57.96974823541123,4.31623041994904,0.910586675934089,B,718,Correct
1,new_learn,16,220,B,57.567093323247626,37.62057081946547,2.8783546661623816,0.5909425445514364,B,936,Correct
1,new_learn,16,221,A,51.70714516528493,78.43788542155684,2.5853572582642466,1.2320994230174047,A,987,Correct
1,new_learn,16,222,A,28.78260120433329,42.79545178295399,1.4391300602166643,0.6722293846419223,B,942,Incorrect
1,new_learn,16,223,B,49.704174539782365,23.736216787644484,2.4852087269891183,0.3728476214203931,B,951,Correct
1,new_learn,16,224,A,38.515009214046636,55.09711183296178,1.925750460702332,0.8654634088422399,A,611,Correct
1,new_learn,16,225,A,35.41160756911799,55.95997396728537,1.7705803784558996,0.879017215553499,B,1242,Incorrect
1,new_learn,16,226,A,53.351314520261596,67.1998778310345,2.66756572601308,1.055573212580548,B,1547,Incorrect
1,new_learn,16,227,B,36.305186541449885,20.985581376160734,1.8152593270724942,0.3296407414132867,B,931,Correct
1,new_learn,16,228,A,43.949612073206104,60.69770996352244,2.1974806036603054,0.9534373985556305,A,576,Correct
1,new_learn,16,229,A,38.763185558911395,65.02560838258582,1.9381592779455699,1.0214198679496924,A,1242,Correct
1,new_learn,16,230,B,76.34543897454759,54.397695498759404,3.8172719487273796,0.8544770027555855,B,625,Correct
1,new_learn,16,231,B,55.98481478365441,47.47889624350962,2.79924073918272,0.745796758195809,B,870,Correct
1,new_learn,16,232,B,75.53482530928693,52.57232619271792,3.7767412654643464,0.8258041687458444,A,904,Incorrect
1,new_learn,16,233,A,44.50020141059219,67.6005801692586,2.2250100705296094,1.0618674301907534,A,851,Correct
1,new_learn,16,234,B,64.31883544933801,37.97234307345344,3.2159417724669,0.5964681701957628,B,748,Correct
1,new_learn,16,235,A,35.1343418753554,51.649776946407414,1.75671709376777,0.8113127990719249,A,753,Correct
1,new_learn,16,236,B,82.25406160587053,58.73400008052485,4.112703080293527,0.9225915158445959,B,793,Correct
1,new_learn,16,237,B,44.681293367892465,21.115996490631414,2.2340646683946233,0.3316892972409775,B,1057,Correct
1,new_learn,16,238,A,25.971446929822424,56.55461765582379,1.2985723464911212,0.8883578567705781,A,660,Correct
1,new_learn,16,239,A,35.71998286063644,45.88396020196993,1.785999143031822,0.7207435614405758,B,1075,Incorrect
1,new_learn,16,240,B,41.35392032314638,22.16681351223625,2.0676960161573192,0.34819549241768183,A,676,Incorrect
1,new_learn,16,241,B,46.41321613732508,23.1431803773815,2.320660806866254,0.3635322272714259,B,571,Correct
1,new_learn,16,242,A,24.54056670863809,37.24864314398562,1.2270283354319045,0.5851003182866651,A,738,Correct
1,new_learn,16,243,B,80.87702343002242,55.638061064576675,4.043851171501121,0.873960619502272,B,808,Correct
1,new_learn,16,244,A,20.784901477562673,38.9622860544807,1.0392450738781336,0.612018158179103,A,761,Correct
1,new_learn,16,245,B,71.75561531431597,56.24891924624308,3.5877807657157983,0.8835559573818139,B,983,Correct
1,new_learn,16,246,B,45.11195731969339,33.1223465383698,2.255597865984669,0.5202846027729893,B,2510,Correct
1,new_learn,16,247,A,64.63788366535732,84.20697602738747,3.2318941832678663,1.3227200863432615,A,735,Correct
1,new_learn,16,248,A,58.27434465276848,80.59416258475383,2.913717232638424,1.2659701454924202,A,1065,Correct
1,new_learn,16,249,A,49.86862848274006,73.8547150579981,2.493431424137003,1.1601071512958716,A,735,Correct
1,new_learn,16,250,A,30.264037548319756,42.708459906249686,1.5132018774159877,0.6708629194380412,A,722,Correct
1,new_learn,16,251,B,76.42337132576206,59.24033541895477,3.8211685662881028,0.9305450127419176,B,1233,Correct
1,new_learn,16,252,B,51.45055605905417,20.603169971056253,2.5725278029527083,0.3236338371086607,B,599,Correct
1,new_learn,16,253,A,59.58366822137373,68.71524247634832,2.9791834110686866,1.079376504766686,B,515,Incorrect
1,new_learn,16,254,B,72.72351064908713,48.61209466441642,3.6361755324543568,0.7635969973667109,B,1780,Correct
1,new_learn,16,255,A,21.186867449994388,43.32602075176369,1.0593433724997194,0.6805635425150988,A,578,Correct
1,new_learn,16,256,B,59.25098410905464,32.780528389975395,2.962549205452732,0.5149153358536918,A,2423,Incorrect
1,new_learn,16,257,B,55.48334760943311,30.205915971786162,2.7741673804716553,0.4744734185595699,B,1056,Correct
1,new_learn,16,258,A,49.50518832259665,66.20609702125293,2.4752594161298327,1.0399629401241064,A,2469,Correct
1,new_learn,16,259,B,60.04642297351121,28.579475244913834,3.0023211486755605,0.4489253473643633,B,1225,Correct
1,new_learn,16,260,A,40.01336539365074,60.27620378067308,2.000668269682537,0.9468163949182193,A,1139,Correct
1,new_learn,16,261,A,10.368427144603686,33.83003985977469,0.5184213572301843,0.5314010234705903,A,547,Correct
1,new_learn,16,262,B,77.10933770138853,59.577023624845026,3.8554668850694265,0.9358336987127935,B,1039,Correct
1,new_learn,16,263,A,12.154816874998843,36.914164250263326,0.6077408437499422,0.5798463361101712,A,505,Correct
1,new_learn,16,264,B,81.96727971858814,58.47305116040549,4.098363985929407,0.9184925397925502,B,776,Correct
1,new_learn,16,265,A,50.606535222023545,75.12797587276727,2.5303267611011773,1.1801074854047844,A,1864,Correct
1,new_learn,16,266,A,27.05046491960588,40.24892718760004,1.3525232459802938,0.632228669837174,A,586,Correct
1,new_learn,16,267,B,79.36506184895258,61.864687150517526,3.968253092447629,0.9717682333434835,B,886,Correct
1,new_learn,16,268,B,71.15052798956752,57.33510188090223,3.5575263994783763,0.9006176743093239,B,868,Correct
1,new_learn,16,269,A,47.327637960313204,66.42795647678763,2.36638189801566,1.0434479003022925,B,882,Incorrect
1,new_learn,16,270,A,22.864410451041135,48.05452557967688,1.1432205225520569,0.7548387226642785,A,564,Correct
1,new_learn,16,271,B,65.8927445385281,43.13578497462892,3.2946372269264055,0.677575325915616,B,588,Correct
1,new_learn,16,272,B,69.48379422645891,50.15471107214341,3.474189711322946,0.7878283592358221,A,942,Incorrect
1,new_learn,16,273,A,35.145870056494836,54.200182162256766,1.7572935028247416,0.8513744705208719,A,1071,Correct
1,new_learn,16,274,B,35.03342900606293,14.739697151579868,1.7516714503031465,0.23153062143770858,A,725,Incorrect
1,new_learn,16,275,B,44.506392664174754,16.333673827392847,2.2253196332087377,0.25656874851134626,B,701,Correct
1,new_learn,16,276,A,14.975799763630498,35.64387447975409,0.748789988181525,0.5598926710553608,A,680,Correct
1,new_learn,16,277,B,45.998429644754154,20.691251523057108,2.2999214822377074,0.32501741889207414,A,908,Incorrect
1,new_learn,16,278,B,56.98075511419272,46.25048907141576,2.8490377557096362,0.7265009834584737,A,1281,Incorrect
1,new_learn,16,279,B,56.662446701661594,45.16507140237582,2.8331223350830794,0.7094512825828116,B,610,Correct
1,new_learn,16,280,A,40.73582060812281,58.77256217689698,2.0367910304061407,0.9231972478379444,A,927,Correct
1,new_learn,16,281,A,44.88491207452477,74.44350374150042,2.2442456037262386,1.1693558223089102,A,1957,Correct
1,new_learn,16,282,A,40.96498381121146,53.274936513231864,2.048249190560573,0.8368407458521593,B,1533,Incorrect
1,new_learn,16,283,A,42.52180175412976,74.27693249505123,2.1260900877064883,1.1667393272881896,A,3259,Correct
1,new_learn,16,284,B,39.89862850868901,16.708435127838406,1.9949314254344503,0.26245548525299384,B,786,Correct
1,new_learn,16,285,B,51.74197900064167,20.58139464755599,2.587098950032084,0.32329179112697093,B,836,Correct
1,new_learn,16,286,A,20.5767638987903,42.80058208644584,1.0288381949395151,0.6723099712607258,A,778,Correct
1,new_learn,16,287,A,49.60209762388379,75.1159058585312,2.4801048811941895,1.1799178900645209,A,1224,Correct
1,new_learn,16,288,B,67.03035196743015,37.04789006301345,3.3515175983715073,0.5819468962648268,B,860,Correct
1,new_learn,16,289,B,32.9869447381837,15.93132382534111,1.649347236909185,0.25024864945825837,B,681,Correct
1,new_learn,16,290,B,68.14021217898157,59.448960742807415,3.407010608949079,0.9338220916657589,A,874,Incorrect
1,new_learn,16,291,B,72.26156469772269,43.2953869755479,3.6130782348861343,0.6800823482835424,B,768,Correct
1,new_learn,16,292,B,46.706488683864166,36.067553239956716,2.3353244341932085,0.5665478014580339,A,1057,Incorrect
1,new_learn,16,293,B,45.26961291921651,34.26728248451562,2.2634806459608257,0.5382692145592023,B,742,Correct
1,new_learn,16,294,A,48.43435234711374,61.06334909135402,2.4217176173556867,0.9591808445449337,A,762,Correct
1,new_learn,16,295,A,17.55525077762904,40.018233463005075,0.8777625388814521,0.6286049412850899,A,1238,Correct
1,new_learn,16,296,B,60.647961736276514,33.57409406819509,3.0323980868138256,0.5273806363778717,B,1122,Correct
1,new_learn,16,297,A,30.016426047436067,54.038339514385825,1.5008213023718033,0.8488322521529276,A,607,Correct
1,new_learn,16,298,B,47.4704827146169,32.6665017502803,2.373524135730845,0.5131242095857935,B,1170,Correct
1,new_learn,16,299,B,57.46764942107884,29.854428429954893,2.873382471053942,0.4689522651633427,B,919,Correct
1,new_learn,16,300,B,57.62351272011941,42.896108428456316,2.88117563600597,0.6738104955321478,B,1014,Incorrect
1,new_learn,16,301,B,48.533667127345794,27.829489149737178,2.4266833563672896,0.4371445933298559,A,792,Correct
1,new_learn,16,302,A,43.31720393566118,62.05317812493791,2.165860196783059,0.974729042646019,A,731,Correct
1,new_learn,16,303,B,75.91042109076282,54.731753432720666,3.7955210545381415,0.8597243725116159,B,1192,Incorrect
1,new_learn,16,304,B,46.00420434520623,20.115184593693993,2.300210217260312,0.31596858072575823,B,1056,Correct
1,new_learn,16,305,B,82.55685765549333,62.05364498231796,4.127842882774667,0.9747363760245961,A,928,Correct
1,new_learn,16,306,B,78.08208159906309,47.01549242639997,3.9041040799531546,0.7385176280584236,A,1092,Correct
1,new_learn,16,307,A,59.68789579054903,69.86555624975198,2.9843947895274514,1.0974455912659262,A,1916,Incorrect
1,new_learn,16,308,B,87.48209457646212,66.57604554288837,4.374104728823106,1.045774077912988,B,641,Incorrect
1,new_learn,16,309,B,72.84600146105933,60.857417697183266,3.642300073052967,0.9559460817695821,A,744,Correct
1,new_learn,16,310,B,32.815552374878564,19.68534702383059,1.6407776187439282,0.30921670796715944,B,1312,Correct
1,new_learn,16,311,A,46.84323609683321,78.73004551552015,2.3421618048416604,1.2366886630417406,A,643,Correct
1,new_learn,16,312,B,53.60798211642788,31.514913632756667,2.680399105821394,0.4950351057359258,B,1493,Correct
1,new_learn,16,313,B,64.13050900455575,54.571779427804024,3.206525450227787,0.8572115067185586,A,758,Correct
1,new_learn,16,314,A,39.171114195542685,60.94218096987154,1.9585557097771342,0.9572775401434407,A,730,Correct
1,new_learn,16,315,B,64.56071166191185,41.29000173416051,3.2280355830955925,0.6485818305737424,A,397,Correct
1,new_learn,16,316,A,35.115671698619906,50.99194225797548,1.7557835849309953,0.8009795559496535,B,731,Incorrect
1,new_learn,16,317,B,50.09604142614072,40.32397061969167,2.504802071307036,0.63340744931197,A,539,Incorrect
1,new_learn,16,318,A,49.92140941604535,61.07521381637347,2.4960704708022674,0.9593672152097238,A,984,Correct
1,new_learn,16,319,A,46.71134867392195,58.684805926811364,2.3355674336960974,0.9218187758850666,A,798,Incorrect
1,new_learn,16,320,A,16.71053918994938,46.46926040444864,0.8355269594974689,0.7299374355218344,A,635,Incorrect
1,new_learn,16,321,B,51.915281629254906,37.53969729319301,2.595764081462745,0.5896721861713989,B,2409,Correct
1,new_learn,16,322,B,35.11364049469883,14.626791398130766,1.7556820247349412,0.22975710200978997,B,833,Correct
1,new_learn,16,323,A,15.104619613093348,36.57154356138483,0.7552309806546674,0.5744644629144283,A,441,Correct
1,new_learn,16,324,B,74.6804802604689,62.7936664607326,3.734024013023445,0.9863606062250266,A,2975,Incorrect
1,new_learn,16,325,B,63.08935290289071,50.07087430372303,3.1544676451445355,0.7865114543569711,B,490,Correct
1,new_learn,16,326,A,48.21896810842605,70.58610785578922,2.4109484054213026,1.1087639894262211,A,942,Incorrect
1,new_learn,16,327,B,67.58765849220597,50.823982607406386,3.3793829246102987,0.7983412519280166,B,600,Incorrect
1,new_learn,16,328,B,71.28046460919117,42.90319247857875,3.5640232304595587,0.6739217715312594,B,747,Correct
1,new_learn,16,329,A,58.375658908508186,80.78220619753493,2.9187829454254093,1.268923927654758,A,862,Incorrect
1,new_learn,16,330,B,61.50664499370748,48.269180107815345,3.075332249685374,0.7582105081075764,B,763,Incorrect
1,new_learn,16,331,B,67.61997260448854,38.35931292225566,3.3809986302244273,0.602546678366552,B,776,Incorrect
1,new_learn,16,332,B,60.58363098073703,32.79078833412027,3.0291815490368514,0.5150764986794506,B,1340,Incorrect
1,new_learn,16,333,A,67.53259800860904,82.64888210954184,3.3766299004304523,1.2982456043137278,A,521,Correct
1,new_learn,16,334,A,65.32885312420291,76.4429641971084,3.2664426562101454,1.2007632737013165,A,687,Correct
1,new_learn,16,335,B,77.39210253328287,56.63111941376362,3.869605126664143,0.8895595435742306,A,798,Incorrect
1,new_learn,16,336,A,28.154314187119624,49.29975282904617,1.4077157093559811,0.7743987065576203,A,645,Incorrect
1,new_learn,16,337,B,68.81495497645635,51.689330315384545,3.4407477488228175,0.8119341019389412,B,927,Correct
1,new_learn,16,338,B,59.425591926330995,48.41047781416246,2.9712795963165495,0.7604300072887222,B,587,Incorrect
1,new_learn,16,339,B,36.22657120373969,23.439224981803783,1.8113285601869844,0.3681824850433656,A,1221,Incorrect
1,new_learn,16,340,B,37.49339277122073,20.842902958430265,1.8746696385610366,0.32739955406844745,B,793,Incorrect
1,new_learn,16,341,A,48.247061608503564,59.858497116267934,2.4123530804251785,0.9402550739769656,A,803,Correct
1,new_learn,16,342,B,63.53791082273049,40.21246537600905,3.1768955411365245,0.6316559290400198,A,593,Incorrect
1,new_learn,16,343,A,23.455725240264858,42.373219833386315,1.1727862620132428,0.6655969806875588,A,876,Correct
1,new_learn,16,344,A,11.530031157466105,35.0485545377559,0.5765015578733053,0.5505414072737758,A,581,Incorrect
1,new_learn,16,345,B,67.05927929361168,39.9136303092322,3.3529639646805838,0.6269618387879139,A,1049,Correct
1,new_learn,16,346,B,48.930516795812665,37.904538576525674,2.446525839790633,0.5954030996486198,B,1191,Correct
1,new_learn,16,347,B,39.328009954272645,27.113810161856392,1.9664004977136325,0.4259027340765816,B,1120,Incorrect
1,new_learn,16,348,B,71.77811922696966,55.97515189786453,3.5889059613484835,0.8792556299295198,A,1045,Incorrect
1,new_learn,16,349,A,18.40415708854167,46.4758881241882,0.9202078544270834,0.7300415435000537,A,2248,Incorrect
1,new_learn,16,350,A,47.50674009542808,58.75178136832674,2.375337004771404,0.9228708236602449,A,1917,Incorrect
1,new_learn,16,351,B,56.95247093871186,41.36855719514239,2.847623546935593,0.6498157768693426,B,1357,Correct
1,new_learn,16,352,A,48.94251020169862,63.41352709509101,2.447125510084931,0.9960973543007762,A,1001,Incorrect
1,new_learn,16,353,A,24.356358238983233,52.30910560554477,1.2178179119491617,0.8216695094311607,A,1726,Correct
1,new_learn,16,354,A,59.17457447620498,74.75893696541114,2.958728723810249,1.17431063580359,A,3583,Incorrect
1,new_learn,16,355,A,48.42587155721993,67.34190179340987,2.4212935778609963,1.0578041197647088,B,670,Incorrect
1,new_learn,16,356,B,39.41527919246674,13.539801884459518,1.9707639596233373,0.2126827106563963,B,691,Correct
1,new_learn,16,357,B,43.857130423954544,20.086237672225526,2.192856521197727,0.3155138835466113,B,386,Incorrect
1,new_learn,16,358,A,26.19062599637759,58.5803128919896,1.3095312998188797,0.9201774031323298,A,764,Correct
1,new_learn,16,359,A,30.91036974165175,63.68957359159824,1.5455184870825875,1.0004334825281576,A,836,Correct
1,new_learn,16,360,A,11.565082491857556,35.46515512759741,0.5782541245928777,0.557085354036412,A,1428,Correct
1,new_learn,16,361,B,30.86530979478272,15.11777856820439,1.5432654897391362,0.23746951044234066,B,587,Incorrect
1,new_learn,16,362,B,55.713589995587185,39.03116761069263,2.7856794997793592,0.6131001471339191,B,1165,Correct
1,new_learn,16,363,B,67.48534488823798,34.92027951619889,3.374267244411899,0.5485264679469628,B,1173,Correct
1,new_learn,16,364,B,75.45817812759206,44.4876026832275,3.7729089063796035,0.6988096288272454,A,955,Correct
1,new_learn,16,365,A,27.860102625911217,49.637491126105765,1.393005131295561,0.779703887322012,A,1566,Incorrect
1,new_learn,16,366,A,36.86367830653682,49.250347961606856,1.843183915326841,0.7736226567146256,B,711,Correct
1,new_learn,16,367,A,48.482125527552085,64.63761309951266,2.4241062763776045,1.0153252522950418,A,851,Correct
1,new_learn,16,368,A,19.355401791492,34.36671313935121,0.9677700895746,0.539831067633068,B,665,Incorrect
1,new_learn,16,369,A,50.94640369063018,78.31281345900055,2.5473201845315088,1.23013479722372,A,896,Correct
1,new_learn,16,370,B,74.89642395966669,44.85644463147388,3.744821197983334,0.7046033846019782,A,779,Correct
1,new_learn,16,371,B,77.09001579338172,57.13967925916318,3.8545007896690864,0.8975479829453207,107,741,Incorrect
1,new_learn,16,372,A,33.272598167885384,58.45328959001518,1.6636299083942692,0.9181821257707422,B,746,Correct
1,new_learn,16,373,B,43.33752282045499,31.692870426755576,2.1668761410227493,0.4978304445193427,B,539,Correct
1,new_learn,16,374,A,45.72679921421598,68.57855031328182,2.2863399607107993,1.077229349290221,A,780,Correct
1,new_learn,16,375,B,51.188169676652315,24.90435893522082,2.5594084838326157,0.3911967553662653,B,752,Correct
1,new_learn,16,376,B,73.70852634734925,45.97960693204821,3.685426317367462,0.7222459767633449,B,881,Incorrect
1,new_learn,16,377,A,60.03180953098992,76.54547492622848,3.0015904765494956,1.2023735084689053,A,791,Correct
1,new_learn,16,378,A,38.46150656258516,67.35759502736462,1.9230753281292579,1.0580506285072255,A,2686,Correct
1,new_learn,16,379,A,57.709790843979846,73.2620839563523,2.885489542198992,1.150798123719775,B,1342,Correct
1,new_learn,16,380,B,44.202033519911204,33.5277021103949,2.2101016759955603,0.5266519132088181,B,764,Incorrect
1,new_learn,16,381,B,72.84488570731634,46.606878852219324,3.642244285365817,0.7320991410444087,A,659,Correct
1,new_learn,16,382,A,17.191847802704164,45.090938204559826,0.8595923901352082,0.7082868010345824,B,848,Correct
1,new_learn,16,383,B,58.808985061800335,47.80141520461514,2.9404492530900166,0.7508628741900719,B,676,Correct
1,new_learn,16,384,B,63.43319409300011,46.09549749575869,3.1716597046500055,0.7240663814812109,A,984,Correct
1,new_learn,16,385,A,34.59918527357501,49.20302933554558,1.7299592636787506,0.7728793774745654,A,1079,Incorrect
1,new_learn,16,386,A,51.719203056629155,64.56865747234077,2.5859601528314577,1.0142420998363073,B,620,Correct
1,new_learn,16,387,A,23.765745946701635,37.37946393273663,1.1882872973350818,0.5871552464310502,B,905,Correct
1,new_learn,16,388,A,63.73936026579198,74.49424177906329,3.186968013289599,1.1701528135392352,A,836,Correct
1,new_learn,16,389,A,50.92846629207351,71.21245875017543,2.5464233146036754,1.1186026862680867,B,865,Correct
1,new_learn,16,390,A,68.5033119311808,89.71063699237433,3.42516559655904,1.4091713906205197,A,1400,Correct
1,new_learn,16,391,B,72.0073768854908,41.48753313205175,3.6003688442745396,0.6516846465160846,B,756,Correct
1,new_learn,16,392,B,55.685935425057195,45.786600870892826,2.78429677125286,0.7192142446442246,B,627,Incorrect
1,new_learn,16,393,A,53.338551295213065,82.77347501859737,2.666927564760653,1.3002027051526188,A,1277,Incorrect
1,new_learn,16,394,B,57.98780114166379,40.141093726287416,2.899390057083189,0.6305348257878193,B,608,Correct
1,new_learn,16,395,B,35.4578606454143,19.02716395252288,1.772893032270715,0.29887799245947205,B,1013,Incorrect
1,new_learn,16,396,B,83.77893213336709,61.649749393641144,4.188946606668355,0.9683919989535741,B,2325,Correct
1,new_learn,16,397,A,18.27420415135761,40.45661660605125,0.9137102075678805,0.6354910475933471,B,2315,Incorrect
1,new_learn,16,398,B,41.10545380575208,13.515194086808233,2.0552726902876035,0.21229617227478476,B,922,Incorrect
1,new_learn,16,399,A,20.72011861588816,34.50672140948305,1.036005930794408,0.5420303123975079,A,582,Correct
1,new_learn,16,400,B,56.634136823053154,38.61636709718563,2.831706841152658,0.6065844759042248,B,719,Incorrect
1,new_learn,16,401,B,55.34177174600999,37.686516354591866,2.7670885873004996,0.591978414594887,A,832,Incorrect
1,new_learn,16,402,B,46.86063846624166,31.053120756298227,2.343031923312083,0.48778128019511613,B,527,Incorrect
1,new_learn,16,403,A,58.39898410542621,67.32465864022815,2.9199492052713105,1.0575332649479068,A,735,Correct
1,new_learn,16,404,A,15.18343217787892,44.681565894061436,0.7591716088939461,0.7018563958183583,A,866,Incorrect
1,new_learn,16,405,B,35.422968688793205,24.03557462967032,1.7711484344396604,0.3775499234069075,B,518,Correct
1,new_learn,16,406,A,58.816117394296036,77.48267756269536,2.9408058697148016,1.217095053057152,A,876,Incorrect
1,new_learn,16,407,B,79.09085159481009,56.83120413113517,3.9545425797405045,0.8927024669651809,A,1573,Correct
1,new_learn,16,408,B,43.740678538225986,17.58311468669727,2.1870339269112993,0.2761949196347747,B,525,Incorrect
1,new_learn,16,409,A,16.69584882933751,31.63020662569453,0.8347924414668755,0.4968461238340457,B,696,Incorrect
1,new_learn,16,410,A,34.75490639981923,59.14504576245146,1.7377453199909612,0.9290482063177481,A,797,Incorrect
1,new_learn,16,411,B,66.58292642563428,49.140892163960594,3.3291463212817143,0.7719033290657342,B,368,Correct
1,new_learn,16,412,A,54.48822513023545,82.5978369756215,2.724411256511772,1.2974437892250994,A,1015,Incorrect
1,new_learn,16,413,B,36.888709218352595,25.856514276501677,1.8444354609176299,0.4061531764924864,A,1279,Correct
1,new_learn,16,414,A,56.13335399576288,67.52315057688463,2.806667699788144,1.0606511689978908,A,1190,Correct
1,new_learn,16,415,A,24.211504310581095,44.72982613294222,1.2105752155290548,0.7026144658780002,A,838,Correct
1,new_learn,16,416,A,25.031441694891747,45.042501511000246,1.2515720847445875,0.7075259592313277,B,1471,Correct
1,new_learn,16,417,B,75.62980818868752,62.28211539962633,3.7814904094343764,0.9783251809474891,B,968,Correct
1,new_learn,16,418,B,52.27685579088848,39.60033571402927,2.6138427895444245,0.6220406187944193,A,1039,Correct
1,new_learn,16,419,A,40.43781407593349,70.99335810239874,2.0218907037966742,1.1151610613408267,A,869,Incorrect
1,new_learn,16,420,B,77.70529675117963,45.57032336990643,3.8852648375589816,0.7158169656030465,B,663,Correct
1,new_learn,16,421,A,29.742658419551503,61.3561501201246,1.4871329209775752,0.9637801523496798,B,551,Correct
1,new_learn,16,422,A,50.80076385352223,77.82133319030079,2.5400381926761115,1.2224146432160625,A,630,Incorrect
1,new_learn,16,423,A,36.08020415656595,64.08715994134835,1.8040102078282974,1.0066787543058702,B,445,Incorrect
1,new_learn,16,424,A,41.622840911248325,60.848243850603595,2.0811420455624163,0.9558019793244827,A,726,Incorrect
1,new_learn,16,425,B,75.98117432847305,47.360396507063754,3.7990587164236524,0.743935368688456,A,524,Correct
1,new_learn,16,426,B,40.76618005891119,14.71567096787797,2.0383090029455593,0.23115321902665012,B,505,Incorrect
1,new_learn,16,427,B,52.82937331847062,34.20972096628296,2.641468665923531,0.5373650403451563,A,679,Incorrect
1,new_learn,16,428,A,55.02478325095832,72.55204266034136,2.751239162547916,1.1396448211233086,B,480,Correct
1,new_learn,16,429,B,73.536233217651,60.87765703548598,3.67681166088255,0.9562640005522086,A,565,Correct
1,new_learn,16,430,A,21.24192694509839,53.25826142110386,1.0620963472549194,0.8365788141175229,A,439,Incorrect
1,new_learn,16,431,A,48.4384907318206,57.88761814686057,2.42192453659103,0.9092965795199417,B,558,Correct
1,new_learn,16,432,B,58.639068007731126,26.922312094948104,2.931953400386556,0.42289468947570297,B,511,Correct
1,new_learn,16,433,A,41.94764977096587,63.58306463259144,2.0973824885482935,0.9987604437123712,A,331,Correct
1,new_learn,16,434,A,19.606962918849543,41.52212514809332,0.9803481459424772,0.65222801663343,B,614,Correct
1,new_learn,16,435,A,43.36042759787733,64.0118463022089,2.1680213798938666,1.0054957304286922,A,317,Incorrect
1,new_learn,16,436,B,52.33267253471461,31.19902411311005,2.61663362673573,0.49007312476458675,A,323,Incorrect
1,new_learn,16,437,B,51.26061397578951,22.15405459815678,2.5630306987894755,0.3479950758639826,A,1163,Incorrect
1,new_learn,16,438,B,84.52181044012384,55.62540575124756,4.226090522006192,0.8737618303053539,A,437,Correct
1,new_learn,16,439,A,22.520804437414586,53.961947302168156,1.1260402218707293,0.8476322860894552,A,420,Correct
1,new_learn,16,440,B,62.169031742202705,34.4591788332438,3.1084515871101353,0.541283515356278,B,400,Incorrect
1,new_learn,16,441,B,47.055998485631406,21.719213237936057,2.35279992428157,0.3411646037502505,A,615,Correct
1,new_learn,16,442,B,46.27133912170409,31.60301771741704,2.3135669560852046,0.49641904146152727,B,349,Incorrect
1,new_learn,16,443,A,62.87323563504123,80.49092276360886,3.143661781752062,1.2643484581740854,A,852,Incorrect
1,new_learn,16,444,B,55.16048609704742,37.035957967783276,2.758024304852371,0.5817594673512415,B,434,Correct
1,new_learn,16,445,A,53.239540438821024,62.03133658569451,2.661977021941051,0.9743859565498681,A,587,Incorrect
1,new_learn,16,446,B,51.425965527287346,39.42198527473716,2.5712982763643675,0.6192390966451963,B,804,Incorrect
1,new_learn,16,447,A,30.735391588588044,40.156294145577014,1.5367695794294023,0.6307735934156778,B,1784,Correct
1,new_learn,16,448,B,39.31185258135196,12.704316429206962,1.9655926290675978,0.19955893581438353,B,714,Incorrect
1,new_learn,16,449,B,51.443749157507725,28.851607117893316,2.5721874578753865,0.45319998482916307,A,542,Correct
1,new_learn,16,450,B,83.78634137466521,57.53871742837137,4.189317068733261,0.9038160598497526,B,836,Incorrect
1,new_learn,16,451,B,73.67680519246808,59.81515258170646,3.6838402596234037,0.9395742196202077,B,596,Incorrect
1,new_learn,16,452,A,27.814927376694964,37.32797722163052,1.3907463688347483,0.5863464950642079,A,795,Correct
1,new_learn,16,453,B,73.08436750110288,51.98764528373303,3.6542183750551436,0.8166200225040386,B,1222,Correct
1,new_learn,16,454,B,51.297632383210846,22.340273324706313,2.5648816191605426,0.35092019278042685,A,1025,Correct
1,new_learn,16,455,A,17.445886497785597,38.515607272611305,0.8722943248892798,0.6050017442809265,A,1844,Incorrect
1,new_learn,16,456,B,66.54481517860684,47.03990229297437,3.327240758930342,0.7389010573459498,B,707,Incorrect
1,new_learn,16,457,A,17.055060567561657,44.3468790249171,0.8527530283780829,0.6965991467715743,A,470,Correct
1,new_learn,16,458,B,62.67144500998347,48.11445209125753,3.1335722504991734,0.7557800461069636,B,92,Correct
1,new_learn,16,459,B,52.80959618045259,38.75486199342965,2.640479809022629,0.6087599486472244,A,906,Correct
1,new_learn,16,460,A,58.159239898415144,85.2099574150247,2.9079619949207576,1.3384748811387035,B,655,Correct
1,new_learn,16,461,B,75.82404015125465,53.986147442560416,3.7912020075627324,0.8480124210058162,A,596,Correct
1,new_learn,16,462,A,33.65295340746194,45.54389552972647,1.6826476703730973,0.7154018380602485,A,756,Incorrect
1,new_learn,16,463,B,65.5685002424563,53.649802968091244,3.278425012122815,0.8427291343554766,B,577,Correct
1,new_learn,16,464,A,40.26568692235753,50.91757565215725,2.0132843461178767,0.7998114080370987,107,1230,Incorrect
1,new_learn,16,465,A,45.67582592851136,77.54824298093706,2.283791296425568,1.2181249522385404,A,642,Incorrect
1,new_learn,16,466,A,58.536822459445865,80.2445864872029,2.9268411229722933,1.2604790169927367,B,723,Correct
1,new_learn,16,467,A,67.11365440313352,85.62315441880367,3.3556827201566763,1.34496536449649,A,977,Correct
1,new_learn,16,468,A,49.25938250914151,77.17644340674309,2.4629691254570756,1.2122847381840625,B,1537,Incorrect
1,new_learn,16,469,B,47.34210801525923,40.0994163105709,2.367105400762961,0.6298801584726413,B,516,Correct
1,new_learn,16,470,A,56.474189502936355,73.4234619370253,2.823709475146818,1.1533330431124422,107,814,Incorrect
1,new_learn,16,471,B,83.6995830151472,62.05959137424978,4.18497915075736,0.9748297817306378,A,363,Incorrect
1,new_learn,16,472,A,58.05489013275858,85.32469165811703,2.9027445066379287,1.3402771224147738,A,686,Correct
1,new_learn,16,473,A,57.34635813086853,86.27834103458498,2.8673179065434264,1.355257011790835,A,904,Correct
1,new_learn,16,474,B,81.02524103694768,64.5029029895565,4.0512620518473845,1.0132092308360292,B,588,Correct
1,new_learn,16,475,B,66.02745309244301,56.751441133346475,3.3013726546221505,0.8914495527257743,A,1271,Incorrect
1,new_learn,16,476,A,57.08183335800943,73.2960033248248,2.8540916679004713,1.1513309279138133,B,335,Incorrect
1,new_learn,16,477,B,50.19871471693326,28.559730760116786,2.509935735846663,0.44861520172242664,B,1723,Incorrect
1,new_learn,16,478,B,87.76498758993917,67.11243738802624,4.388249379496958,1.054199701313641,A,1346,Correct
1,new_learn,16,479,A,33.84908821975044,51.30278639859646,1.6924544109875221,0.8058622842925851,A,1196,Correct
1,new_learn,16,480,A,64.34218463419575,83.11832859754642,3.217109231709787,1.3056196525035713,A,4027,Incorrect
1,new_learn,16,481,A,23.444664552087158,35.81244274201978,1.1722332276043579,0.5625405351271723,B,1469,Correct
1,new_learn,16,482,A,28.362275274709503,50.73320227845597,1.4181137637354753,0.7969152778554112,A,1315,Correct
1,new_learn,16,483,A,60.583972040322465,84.12424590347378,3.0291986020161232,1.3214205645956725,B,785,Incorrect
1,new_learn,16,484,A,57.088467812965405,69.02662357133538,2.8544233906482703,1.084267667569076,B,991,Correct
1,new_learn,16,485,A,13.285111035818908,37.62100321099443,0.6642555517909454,0.5909493365416907,A,680,Correct
1,new_learn,16,486,A,28.35592629387601,59.4153219397166,1.4177963146938004,0.9332936945824305,B,1057,Correct
1,new_learn,16,487,B,52.41242852124826,44.37942598420863,2.620621426062413,0.697110393212609,B,549,Incorrect
1,new_learn,16,488,A,29.28990349545485,42.15454628541859,1.4644951747727424,0.6621620646284098,A,643,Correct
1,new_learn,16,489,A,35.03776088194053,50.68447496541931,1.7518880440970264,0.7961498710120855,B,1002,Correct
1,new_learn,16,490,A,55.35850298836401,65.23921150741621,2.7679251494182004,1.0247751379884473,A,776,Incorrect
1,new_learn,16,491,A,38.3372769078119,61.7906630366627,1.9168638453905948,0.9706054652821097,B,776,Incorrect
1,new_learn,16,492,A,60.1738373264274,85.84727495159039,3.0086918663213704,1.3484858415930974,B,1066,Incorrect
1,new_learn,16,493,A,18.08928801613951,43.575324869706904,0.9044644008069754,0.6844796024422991,B,970,Correct
1,new_learn,16,494,A,57.14667401403884,65.14763853355119,2.8573337007019415,1.0233367130786388,A,864,Correct
1,new_learn,16,495,B,66.2927001928528,43.470079246409135,3.3146350096426405,0.6828264080574253,A,1672,Incorrect
1,new_learn,16,496,B,36.10546505730271,20.34018754437628,1.8052732528651354,0.31950291881025566,A,952,Incorrect
1,new_learn,16,497,A,44.874889602674976,69.7529514020329,2.2437444801337487,1.0956767984541622,A,760,Correct
1,new_learn,16,498,A,31.34307490324174,60.15612354087733,1.567153745162087,0.9449301789223012,B,969,Incorrect
1,new_learn,16,499,A,52.027427774400635,81.83284288852951,2.6013713887200316,1.2854272902048605,B,1961,Correct
1,new_learn,16,500,A,39.49863382550883,51.85944599246265,1.9749316912754415,0.8146062727457865,A,1136,Incorrect
1,new_learn,16,501,B,63.17996290825927,46.38275906929486,3.1589981454129634,0.7285786757266105,B,486,Incorrect
1,new_learn,16,502,A,47.33844629865821,79.27941626857341,2.3669223149329106,1.2453181586511866,A,812,Correct
1,new_learn,16,503,B,64.51819251518387,44.32968234227961,3.225909625759193,0.696329021912374,B,824,Incorrect
1,new_learn,16,504,A,23.081209202270557,41.060593536052835,1.1540604601135278,0.6449782950245008,B,668,Correct
1,new_learn,16,505,B,71.10933945734449,60.22622688945953,3.5554669728672246,0.9460313597467906,B,2204,Correct
1,new_learn,16,506,A,38.7704611664251,47.814825917152916,1.938523058321255,0.7510735291700124,A,819,Incorrect
1,new_learn,16,507,B,67.24227846620337,51.406616983765495,3.362113923310169,0.8074932513105099,A,1193,Incorrect
1,new_learn,16,508,B,56.253313462315695,38.83949848641406,2.8126656731157844,0.6100894155701515,B,682,Correct
1,new_learn,16,509,B,32.60781161709197,18.41839572531934,1.6303905808545982,0.2893154835078644,A,676,Correct
1,new_learn,16,510,B,32.47189730341251,15.460260163832189,1.6235948651706256,0.24284919876641067,A,858,Incorrect
1,new_learn,16,511,B,79.88176511214418,49.996769696205405,3.9940882556072093,0.7853474219040983,B,967,Correct
1,new_learn,16,512,A,38.577069988124876,46.91018423186921,1.9288534994062438,0.7368634508069203,A,2693,Correct
1,new_learn,16,513,B,54.16961253516446,42.71363864762319,2.708480626758223,0.6709442669173105,B,1791,Incorrect
1,new_learn,16,514,B,76.24349339459326,59.89347593906326,3.812174669729663,0.9408045200405908,A,841,Incorrect
1,new_learn,16,515,B,65.60248425302382,54.64779085309766,3.2801242126511907,0.8584054913950154,B,553,Correct
1,new_learn,16,516,A,19.62532960377145,36.189214027401505,0.9812664801885725,0.5684588446383663,A,1134,Correct
1,new_learn,16,517,B,49.658513727611734,31.0085320218026,2.482925686380587,0.4870808819914946,A,544,Incorrect
1,new_learn,16,518,A,61.26115017716417,71.30710073171207,3.063057508858208,1.12008931903767,B,1629,Incorrect
1,new_learn,16,519,B,57.140505803929024,24.57826044340049,2.857025290196451,0.386074412235018,A,723,Incorrect
1,new_learn,16,520,A,49.82831360972531,69.91043200367531,2.4914156804862655,1.0981504979601757,A,866,Incorrect
1,new_learn,16,521,A,33.5389355960488,60.22341058713748,1.6769467798024402,0.9459871213733643,A,738,Correct
1,new_learn,16,522,A,63.810133363914375,85.68776969820634,3.1905066681957184,1.3459803389318956,B,943,Correct
1,new_learn,16,523,A,51.767189303525655,75.77926107370139,2.5883594651762825,1.1903378494180161,B,819,Incorrect
1,new_learn,16,524,A,29.187267378566244,44.196412528720884,1.459363368928312,0.6942356245762671,A,332,Correct
1,new_learn,16,525,A,65.51441074727975,85.08633906325632,3.2757205373639873,1.3365330886098814,A,353,Incorrect
1,new_learn,16,526,A,60.168385737876285,69.48976242196959,3.008419286893814,1.0915426356227986,B,519,Incorrect
1,new_learn,16,527,A,20.73285833613782,45.2245118071276,1.0366429168068911,0.7103849702772845,A,386,Correct
1,new_learn,16,528,B,51.956485271110836,34.053769463877735,2.597824263555542,0.5349153598737936,A,335,Correct
1,new_learn,16,529,A,48.94625154197446,55.830959711217176,2.4473125770987227,0.8769906643581379,B,359,Correct
1,new_learn,16,530,B,58.74969694383262,37.26516962411491,2.937484847191631,0.5853599156294845,A,318,Correct
1,new_learn,16,531,A,43.73602880316909,71.96255011776843,2.1868014401584546,1.130385093917843,B,1137,Correct
1,new_learn,16,532,A,48.28736768941474,77.31382445838152,2.4143683844707367,1.2144427146969112,B,534,Incorrect
1,new_learn,16,533,B,64.83604210010103,37.64978449648625,3.2418021050050516,0.5914014319170005,B,383,Correct
1,new_learn,16,534,B,49.05791687837057,41.05786289467881,2.4528958439185287,0.6449354022100996,B,397,Incorrect
1,new_learn,16,535,B,75.85030454856471,59.30088911190837,3.7925152274282357,0.9314961879265714,A,1270,Incorrect
1,new_learn,16,536,A,65.04471803246489,85.73592978695831,3.252235901623244,1.3467368358369927,A,394,Correct
1,new_learn,16,537,A,44.886410173487846,68.92689377635611,2.244320508674392,1.0827011156128221,A,725,Incorrect
1,new_learn,16,538,A,44.37483302694074,65.1890842657653,2.218741651347037,1.0239877411178713,A,364,Correct
1,new_learn,16,539,B,63.98210318529656,44.934457130609076,3.199105159264828,0.7058288020728348,B,704,Incorrect
1,new_learn,16,540,A,63.16942475546964,84.43559268984332,3.158471237773482,1.326311188479559,A,470,Incorrect
1,new_learn,16,541,B,61.48696931180271,33.34395565542853,3.0743484655901354,0.5237656306435906,B,466,Incorrect
1,new_learn,16,542,A,49.37646486775807,62.19277161656049,2.4688232433879036,0.9769217720848712,A,315,Correct
1,new_learn,16,543,B,68.24154390721962,41.376002385035825,3.412077195360981,0.6499327256387115,B,391,Correct
1,new_learn,16,544,A,19.084974735519534,42.712863614361765,0.9542487367759768,0.6709320927233086,B,564,Correct
1,new_learn,16,545,A,61.645769048494145,75.11678299365083,3.082288452424707,1.1799316680707608,A,562,Correct
1,new_learn,16,546,A,33.56007388525852,55.880030883495046,1.678003694262926,0.877761472529794,B,322,Correct
1,new_learn,16,547,B,41.001199873440726,20.629062568626548,2.0500599936720363,0.3240405570802068,B,322,Correct
1,new_learn,16,548,B,73.20881788235488,58.921303971766136,3.6604408941177438,0.9255336784881579,A,505,Incorrect
1,new_learn,16,549,A,33.45179805986099,44.40438409489091,1.6725899029930498,0.6975024342984436,A,342,Correct
1,new_learn,16,550,B,84.90477994082941,64.33640209560508,4.245238997041471,1.0105938409097595,A,402,Incorrect
1,new_learn,16,551,A,28.483423873511544,46.87329755679161,1.4241711936755772,0.7362840362697247,B,326,Incorrect
1,new_learn,16,552,B,80.20183526925268,66.76308237364799,4.0100917634626345,1.0487120455803138,B,964,Incorrect
1,new_learn,16,553,A,36.82915707730892,49.10889683262494,1.8414578538654462,0.7714007475763678,A,503,Correct
1,new_learn,16,554,B,57.91361844082348,43.83517117766917,2.8956809220411737,0.6885612587030825,B,1150,Incorrect
1,new_learn,16,555,A,61.683773901236435,71.29018053578442,3.084188695061822,1.1198235372215517,A,506,Correct
1,new_learn,16,556,A,34.86013146218484,62.48066415813019,1.743006573109242,0.9814439775529645,B,377,Correct
1,new_learn,16,557,B,75.76820465985202,44.12990174011849,3.788410232992601,0.6931908755519783,B,575,Correct
1,new_learn,16,558,A,60.257056327122285,69.9975156491006,3.0128528163561143,1.0995184046637554,A,1633,Incorrect
1,new_learn,16,559,B,50.654814139840234,19.804112435921667,2.5327407069920116,0.3110822706977888,A,642,Incorrect
1,new_learn,16,560,A,32.854007251576775,54.509439458633466,1.6427003625788388,0.8562322727727025,A,953,Incorrect
1,new_learn,16,561,A,59.082753869802204,81.73138108427516,2.9541376934901105,1.2838335319105332,A,1139,Correct
1,new_learn,16,562,A,44.610691996977245,59.148229987604985,2.230534599848862,0.9290982240094967,A,901,Correct
1,new_learn,16,563,B,64.35093918429438,48.87134492642076,3.217546959214719,0.7676692909594812,B,413,Correct
1,new_learn,16,564,A,36.66457900400651,65.14705889596854,1.8332289502003254,1.0233276081527818,A,437,Incorrect
1,new_learn,16,565,B,74.79981744014255,55.0828897044142,3.739990872007127,0.8652400081694226,B,620,Incorrect
1,new_learn,16,566,A,36.63397692737598,54.53712833926126,1.831698846368799,0.8566672086925344,B,406,Correct
1,new_learn,16,567,A,22.780699778055087,40.25434394046699,1.1390349889027545,0.6323137559922395,B,982,Incorrect
1,new_learn,16,568,B,37.731402086183564,21.301052048981898,1.886570104309178,0.3345961431540767,B,619,Correct
1,new_learn,16,569,B,58.52125160512429,26.417132255705532,2.9260625802562146,0.41495934311717236,A,312,Incorrect
1,new_learn,16,570,A,34.94307194533871,49.85349008966864,1.7471535972669354,0.7830967911075727,B,316,Correct
1,new_learn,16,571,A,62.043715095680234,84.5046707485434,3.1021857547840117,1.327396264088241,B,330,Incorrect
1,new_learn,16,572,A,25.065237402659267,39.50455268087035,1.2532618701329634,0.6205360624278663,A,345,Incorrect
1,new_learn,16,573,B,42.064554548975934,15.549662511221367,2.1032277274487967,0.2442535275552683,B,398,Correct
1,new_learn,16,574,A,15.736665010761776,43.57269628938105,0.7868332505380888,0.6844383127990936,B,395,Incorrect
1,new_learn,16,575,A,26.389331523374548,51.98656968341381,1.3194665761687272,0.8166031270137335,B,373,Correct
1,new_learn,16,576,B,43.589261903350064,14.542032241203195,2.1794630951675034,0.22842570828614936,A,831,Incorrect
1,new_learn,16,577,B,46.75688711867526,23.962321559908798,2.337844355933763,0.37639926687782893,B,1161,Incorrect
1,new_learn,16,578,B,36.43720821281699,21.790962293502893,1.8218604106408494,0.3422916352796044,B,728,Incorrect
1,new_learn,16,579,A,29.674992257923037,54.365326382536686,1.4837496128961518,0.8539685498669431,A,886,Incorrect
1,new_learn,16,580,A,41.149147728516475,62.139395856408676,2.0574573864258237,0.9760833476050076,A,231,Correct
1,new_learn,16,581,B,58.77140003044973,26.758077214462805,2.9385700015224865,0.42031489400572397,B,891,Correct
1,new_learn,16,582,B,56.36187081422975,36.03186881640192,2.8180935407114878,0.5659872718435971,A,708,Correct
1,new_learn,16,583,A,43.25814686122361,50.22252699937363,2.1629073430611805,0.7888936093297362,B,774,Correct
1,new_learn,16,584,A,26.78866169458369,42.549065301535315,1.3394330847291847,0.6683591548420786,A,677,Correct
1,new_learn,16,585,A,54.08833736488872,61.4286311595994,2.704416868244436,0.9649186818553727,B,569,Correct
1,new_learn,16,586,A,40.40926336837775,53.74905253655729,2.0204631684188876,0.8442881429313013,A,1423,Incorrect
1,new_learn,16,587,B,57.65726130914914,47.64415644333617,2.882863065457457,0.7483926593443387,A,756,Incorrect
1,new_learn,16,588,A,45.74274283254877,67.34778038706018,2.2871371416274386,1.0578964604978351,A,424,Correct
1,new_learn,16,589,B,36.25215106865147,14.34752920324927,1.8126075534325736,0.22537046171046463,B,712,Incorrect
1,new_learn,16,590,A,50.47611912634174,71.92729097669105,2.523805956317087,1.1298312446249403,A,1914,Correct
1,new_learn,16,591,B,38.52676481033582,22.875590848669145,1.9263382405167908,0.3593289407835244,A,323,Correct
1,new_learn,16,592,A,40.54237579426465,64.84087101597312,2.0271187897132323,1.0185180201807227,B,814,Incorrect
1,new_learn,16,593,A,59.71413533763867,71.91048056562492,2.985706766881934,1.129567187305394,B,325,Incorrect
1,new_learn,16,594,A,36.81135539743608,47.23642737743522,1.840567769871804,0.7419880661538913,A,647,Correct
1,new_learn,16,595,A,27.607588625410383,42.338384896182276,1.380379431270519,0.6650497947735164,A,453,Correct
1,new_learn,16,596,B,67.0288199577616,48.584186113173686,3.35144099788808,0.7631586108689284,B,697,Correct
1,new_learn,16,597,A,55.65790341354263,84.62880891316739,2.782895170677131,1.3293462218183054,A,737,Correct
1,new_learn,16,598,B,36.3027734092256,13.659961111052901,1.8151386704612802,0.2145701673740303,B,578,Correct
1,new_learn,16,599,B,71.72364765574127,61.816938445759334,3.586182382787064,0.9710181984430499,B,1189,Incorrect
1,new_learn,16,600,B,37.53969729319301,48.084718370745094,1.8769848646596503,0.7553129899173346,B,769,Correct
1,new_learn,16,601,B,21.719213237936057,52.944001514368594,1.085960661896803,0.8316424310459364,A,969,Incorrect
1,new_learn,16,602,A,85.73592978695831,34.955281967535115,4.286796489347916,0.5490762851668404,B,1022,Incorrect
1,new_learn,16,603,B,29.112249806410055,60.697834533029635,1.4556124903205028,0.9534393552888738,A,883,Incorrect
1,new_learn,16,604,B,12.828075488302659,68.29411158941838,0.641403774415133,1.0727613962637916,A,1094,Incorrect
1,new_learn,16,605,A,77.22349006054004,45.33111633084649,3.861174503027002,0.7120595102200582,B,1495,Incorrect
1,new_learn,16,606,A,75.11678299365083,38.354230951505855,3.7558391496825414,0.6024668509566852,A,945,Correct
1,new_learn,16,607,A,65.14705889596854,63.33542099599349,3.257352944798427,0.9948704665651493,B,1325,Incorrect
1,new_learn,16,608,A,47.10464589951881,67.75865542904253,2.35523229497594,1.0643504705650109,A,1096,Correct
1,new_learn,16,609,A,73.2620839563523,42.290209156020154,3.663104197817615,0.6642930520166436,B,825,Incorrect
1,new_learn,16,610,A,48.356680271171186,81.20534706801784,2.417834013558559,1.2755706089054717,B,2363,Incorrect
1,new_learn,16,611,B,55.98841164862331,29.200140603510604,2.7994205824311655,0.4586747360188897,B,650,Correct
1,new_learn,16,612,B,51.689330315384545,31.18504502354365,2.5844665157692273,0.48985354173915835,A,577,Incorrect
1,new_learn,16,613,B,56.734928514727116,14.398270791207736,2.836746425736356,0.22616750871027363,B,1537,Correct
1,new_learn,16,614,B,59.577023624845026,22.890662298611474,2.978851181242251,0.35956568256561333,B,823,Correct
1,new_learn,16,615,B,19.804112435921667,49.345185860159766,0.9902056217960833,0.7751123669415043,A,595,Incorrect
1,new_learn,16,616,A,54.79666299514841,67.50125139975304,2.73983314975742,1.0603071775279096,A,716,Correct
1,new_learn,16,617,B,39.9136303092322,32.94072070638832,1.9956815154616097,0.5174316308757136,A,613,Incorrect
1,new_learn,16,618,A,51.649776946407414,64.8656581246446,2.582488847320371,1.0189073751732527,A,745,Correct
1,new_learn,16,619,B,63.22933534113761,12.574103579971066,3.1614667670568806,0.1975135571615711,A,1611,Incorrect
1,new_learn,16,620,B,25.450641646036516,49.833647969441266,1.2725320823018258,0.7827851118118829,A,1329,Incorrect
1,new_learn,16,621,B,59.89347593906326,23.75650660540674,2.994673796953163,0.373166333132516,B,1461,Correct
1,new_learn,16,622,B,33.04221460691874,54.35471640981599,1.652110730345937,0.8538018888051725,A,2033,Incorrect
1,new_learn,16,623,A,81.26920992795938,42.5397692394557,4.063460496397969,0.6682131326403955,B,1381,Incorrect
1,new_learn,16,624,A,56.962701495490485,50.40444747891135,2.8481350747745244,0.7917512095400024,A,822,Correct
1,new_learn,16,625,A,43.57269628938105,84.26333498923822,2.1786348144690524,1.3236053708458326,B,2003,Incorrect
1,new_learn,16,626,B,41.05786289467881,50.94208312162943,2.0528931447339405,0.800196370467358,B,1410,Correct
1,new_learn,16,627,A,78.38024828538394,49.71079646563483,3.9190124142691967,0.7808553649026791,A,588,Correct
1,new_learn,16,628,B,23.439224981803783,63.77342879626031,1.1719612490901892,1.0017506770028157,A,1470,Incorrect
1,new_learn,16,629,B,57.33202169106123,33.227373380989306,2.8666010845530616,0.5219343605590052,A,650,Incorrect
1,new_learn,16,630,A,48.11457556754581,67.08455778737302,2.4057287783772905,1.0537617695706551,A,711,Correct
1,new_learn,16,631,B,19.02716395252288,64.5421393545857,0.951358197626144,1.0138255542166756,B,1442,Correct
1,new_learn,16,632,A,44.77326605287658,84.52421076320255,2.238663302643829,1.3277031979207623,A,1638,Correct
1,new_learn,16,633,B,10.982398571161262,69.2947145065109,0.5491199285580631,1.0884788301312835,A,1146,Incorrect
1,new_learn,16,634,B,54.20058259568826,34.37421966536459,2.710029129784413,0.5399489798679559,B,1165,Correct
1,new_learn,16,635,B,15.54966251122137,57.935445451024066,0.7774831255610686,0.910047849056947,A,748,Incorrect
1,new_learn,16,636,B,23.402278478766977,49.82833322679928,1.170113923938349,0.7827016280296839,B,435,Correct
1,new_learn,16,637,A,64.0118463022089,56.63957240212267,3.2005923151104447,0.8896923228048789,B,769,Incorrect
1,new_learn,16,638,A,74.27693249505123,57.47819824587024,3.7138466247525614,0.9028654267540184,A,492,Correct
1,new_learn,16,639,B,49.980388816344124,41.57698730030047,2.499019440817206,0.6530897893051004,B,606,Correct
1,new_learn,16,640,B,22.16681351223625,58.64607967685362,1.1083406756118124,0.9212104653732249,A,560,Incorrect
1,new_learn,16,641,B,24.928531516890185,46.86560761462241,1.2464265758445092,0.7361632429405982,A,2107,Incorrect
1,new_learn,16,642,B,39.42198527473716,48.574034472712654,1.9710992637368578,0.7629991492734572,B,620,Correct
1,new_learn,16,643,B,28.508132403847185,42.71353569965129,1.4254066201923592,0.6709426498143493,A,613,Incorrect
1,new_learn,16,644,B,36.65753961031057,31.888134010545258,1.8328769805155287,0.5008976377210791,A,772,Incorrect
1,new_learn,16,645,A,82.77347501859737,46.661448704786935,4.138673750929868,0.732956322284078,A,548,Correct
1,new_learn,16,646,B,49.996769696205405,20.11823488785582,2.49983848481027,0.3160164946344086,B,484,Correct
1,new_learn,16,647,B,23.160842691529897,58.23353717670804,1.1580421345764949,0.9147302629344705,A,2644,Incorrect
1,new_learn,16,648,B,54.93377966348249,33.6133085195067,2.7466889831741246,0.5279966155386474,B,455,Correct
1,new_learn,16,649,A,84.45534159919158,43.407730316591994,4.222767079959579,0.6818470333580618,A,3228,Correct
1,new_learn,16,650,A,39.85444228608418,83.74852372301845,1.9927221143042089,1.3155187343861263,B,2131,Incorrect
1,new_learn,16,651,B,31.514913632756667,46.39201788357212,1.5757456816378335,0.7287241128411824,B,842,Correct
1,new_learn,16,652,A,39.267223976112106,77.049226523312,1.9633611988056054,1.2102864200520642,A,843,Correct
1,new_learn,16,653,A,66.7142976685029,59.79457770026001,3.335714883425145,0.9392510301382044,B,983,Incorrect
1,new_learn,16,654,B,55.0828897044142,25.200182559857453,2.75414448522071,0.395843541995849,B,354,Correct
1,new_learn,16,655,B,41.36855719514239,43.04752906128814,2.0684278597571195,0.6761890052706796,B,861,Correct
1,new_learn,16,656,B,43.83517117766917,42.08638155917652,2.1917585588834583,0.6610913356124295,B,716,Correct
1,new_learn,16,657,B,37.30121085242777,32.87260142735225,1.8650605426213887,0.516361615742776,A,394,Incorrect
1,new_learn,16,658,B,62.177689544730654,13.291201537368039,3.1088844772365327,0.20877770553588396,A,777,Incorrect
1,new_learn,16,659,A,44.681565894061436,84.81656782212107,2.234078294703072,1.33229553186338,A,743,Correct
1,new_learn,16,660,A,46.69040538530571,66.59597507769564,2.3345202692652856,1.0460871303136878,A,656,Correct
1,new_learn,16,661,A,61.3561501201246,70.2573415804485,3.0678075060062304,1.1035997408494285,A,1088,Correct
1,new_learn,16,662,A,53.34018898462411,69.72660384168302,2.6670094492312058,1.095262931943986,A,1328,Correct
1,new_learn,16,663,B,43.2953869755479,27.73843530227731,2.164769348777395,0.4357143228385509,B,517,Correct
1,new_learn,16,664,A,38.09945048515361,87.5055114395779,1.9049725242576807,1.3745333594359777,A,1407,Correct
1,new_learn,16,665,A,51.85944599246265,60.50136617449117,2.592972299623133,0.9503532375296373,B,2466,Incorrect
1,new_learn,16,666,B,28.559730760116786,49.80128528306674,1.4279865380058394,0.7822767599230599,B,937,Correct
1,new_learn,16,667,A,74.44350374150042,55.11508792547523,3.7221751870750213,0.8657457766431426,A,949,Correct
1,new_learn,16,668,A,74.75893696541114,40.82542552379502,3.737946848270557,0.6412842845261584,B,470,Incorrect
1,new_learn,16,669,B,41.48753313205175,27.9926231145092,2.0743766566025874,0.43970709565624966,A,836,Incorrect
1,new_learn,16,670,A,75.57410444448601,50.12417667063764,3.7787052222243007,0.7873487259785605,A,914,Correct
1,new_learn,16,671,A,59.148229987604985,55.389308003022755,2.957411499380249,0.870053215548593,A,470,Correct
1,new_learn,16,672,A,35.0485545377559,88.46996884253389,1.752427726887795,1.3896830208951119,B,711,Incorrect
1,new_learn,16,673,B,38.4970614274071,38.49575055879176,1.9248530713703547,0.604689835749627,B,474,Correct
1,new_learn,16,674,A,68.91445975088091,52.627644332106385,3.445722987544045,0.8266731040474096,B,380,Incorrect
1,new_learn,16,675,A,31.394433534157436,86.71598651940033,1.5697216767078717,1.3621315309906983,A,902,Correct
1,new_learn,16,676,A,40.018233463005075,82.44474922237096,2.0009116731502536,1.295039092420267,A,475,Correct
1,new_learn,16,677,B,31.35084028671775,45.55613666295746,1.5675420143358876,0.715594121331399,B,449,Correct
1,new_learn,16,678,B,54.571779427804024,35.86949099544425,2.7285889713902014,0.5634366469964645,B,540,Correct
1,new_learn,16,679,B,29.36996750843695,56.832489172281015,1.4684983754218477,0.8927226523442975,B,694,Correct
1,new_learn,16,680,A,86.04177586586246,30.426991210372975,4.302088793293123,0.47794606028674474,A,635,Correct
1,new_learn,16,681,B,47.47889624350962,44.01518521634559,2.373944812175481,0.691388912610327,B,690,Correct
1,new_learn,16,682,B,38.215088920511185,49.85781211493684,1.9107544460255594,0.7831646813217289,B,589,Correct
1,new_learn,16,683,A,38.9622860544807,79.21509852243733,1.948114302724035,1.244307857857404,A,699,Correct
1,new_learn,16,684,B,17.224258431350293,63.79784597721448,0.8612129215675146,1.0021342211843507,A,803,Incorrect
1,new_learn,16,685,A,76.4429641971084,34.67114687579709,3.8221482098554196,0.5446131015826843,A,607,Correct
1,new_learn,16,686,B,28.851607117893316,48.556250842492275,1.4425803558946657,0.7627198046631847,A,673,Incorrect
1,new_learn,16,687,B,39.326237680827184,28.965719641798216,1.9663118840413591,0.45499246016307426,B,506,Correct
1,new_learn,16,688,A,59.943482167189295,64.38847032510998,2.9971741083594647,1.0114117267462495,A,633,Correct
1,new_learn,16,689,B,28.380414126004073,45.816675089603976,1.4190207063002038,0.7196866493670515,A,409,Incorrect
1,new_learn,16,690,B,57.09713115733173,24.225006878007818,2.8548565578665865,0.3805255182055579,B,505,Correct
1,new_learn,16,691,B,27.12582007377948,40.72699532813988,1.3562910036889742,0.6397381466283503,A,286,Incorrect
1,new_learn,16,692,A,77.34791992142652,44.98640180862859,3.867395996071326,0.7066447471671309,B,606,Incorrect
1,new_learn,16,693,B,32.6665017502803,52.5295172853831,1.6333250875140148,0.8251317280018879,A,845,Incorrect
1,new_learn,16,694,A,66.20609702125293,50.49481167740335,3.310304851062647,0.7931706470506523,B,240,Incorrect
1,new_learn,16,695,A,52.866228076905166,73.62632146968569,2.6433114038452583,1.156519553200025,A,909,Correct
1,new_learn,16,696,B,25.56076120964919,49.88842437920802,1.2780380604824595,0.7836455376444492,B,381,Correct
1,new_learn,16,697,B,46.83411448301385,24.225852190861133,2.3417057241506924,0.3805387963488077,B,410,Correct
1,new_learn,16,698,B,45.364900137865895,36.12227042527536,2.2682450068932947,0.5674072969951446,A,394,Incorrect
1,new_learn,16,699,A,58.45328959001518,66.72740183211462,2.9226644795007592,1.0481515769445269,B,690,Incorrect
1,new_learn,16,700,B,66.63689304887382,15.761774498564066,3.331844652443691,0.24758537486113907,A,366,Incorrect
1,new_learn,16,701,A,84.49104170770367,34.6933267471768,4.2245520853851835,0.5449615021876045,A,462,Correct
1,new_learn,16,702,A,38.515607272611305,82.5541135022144,1.9257803636305653,1.2967569825108736,B,578,Incorrect
1,new_learn,16,703,B,30.588530692364607,60.52003272040429,1.5294265346182303,0.95064645094718,B,1077,Correct
1,new_learn,16,704,B,47.01549242639997,21.917918400936912,2.350774621319999,0.3442858571518198,B,583,Correct
1,new_learn,16,705,B,43.13578497462892,34.107255461471894,2.156789248731446,0.5357555159593522,A,561,Incorrect
1,new_learn,16,706,B,43.470079246409135,33.707299807147194,2.173503962320457,0.5294730272324113,B,591,Correct
1,new_learn,16,707,A,79.21966456654121,45.04745958223641,3.9609832283270605,0.7076038404321852,B,1069,Incorrect
1,new_learn,16,708,A,67.12698975611474,47.194773705349505,3.3563494878057374,0.7413337718027937,B,392,Incorrect
1,new_learn,16,709,A,40.156294145577014,69.26460841141196,2.007814707278851,1.0880059246953278,B,656,Incorrect
1,new_learn,16,710,A,43.604053491675074,70.53022890916769,2.1802026745837537,1.1078862449852382,A,356,Correct
1,new_learn,16,711,B,53.986147442560416,24.17595984874535,2.6993073721280205,0.379755089271501,B,641,Correct
1,new_learn,16,712,A,67.88121091360324,41.71313537431352,3.394060545680162,0.6552283982506993,A,627,Correct
1,new_learn,16,713,A,46.87329755679161,71.51657612648846,2.3436648778395806,1.1233797508443566,A,850,Correct
1,new_learn,16,714,A,78.85947447202089,39.52621895367585,3.9429737236010447,0.6208763954452484,A,908,Correct
1,new_learn,16,715,B,40.05877670899684,51.815744494304234,2.002938835449842,0.8139198112179596,B,2759,Correct
1,new_learn,16,716,B,20.71216333189996,59.37992060627827,1.0356081665949979,0.932737611737145,B,1135,Correct
1,new_learn,16,717,A,51.47978633812513,64.23195812756178,2.5739893169062564,1.0089532388961766,A,1038,Correct
1,new_learn,16,718,A,48.99406900620022,60.59211894647196,2.449703450310011,0.9517787787383761,A,861,Correct
1,new_learn,16,719,A,81.78878981280202,40.81411717194419,4.089439490640101,0.6411066533506644,B,1365,Incorrect
1,new_learn,16,720,A,83.06476093057532,42.71638626901232,4.153238046528766,0.6709874264531651,A,653,Correct
1,new_learn,16,721,A,60.94218096987154,60.828885804457315,3.047109048493577,0.9554979038466777,A,594,Correct
1,new_learn,16,722,B,41.29418077977977,50.70288082688827,2.0647090389889886,0.7964389896079547,B,725,Correct
1,new_learn,16,723,A,83.08150103876027,38.91705043118037,4.154075051938014,0.6113075986698987,A,722,Correct
1,new_learn,16,724,A,35.2854443640302,84.96687875291713,1.7642722182015098,1.3346566104430957,B,484,Incorrect
1,new_learn,16,725,B,37.69480341220892,45.799724559291114,1.884740170610446,0.719420391059525,B,369,Correct
1,new_learn,16,726,A,81.73138108427516,40.917246130197796,4.086569054213758,0.642726599238774,A,401,Correct
1,new_learn,16,727,B,33.275297323987466,46.74813461228243,1.6637648661993734,0.7343179813348661,B,450,Correct
1,new_learn,16,728,B,20.603169971056253,48.54944394094583,1.0301584985528125,0.7626128821037246,A,481,Incorrect
1,new_learn,16,729,B,35.76522853557467,31.000799526227667,1.7882614267787336,0.48695942023503397,B,363,Correct
1,new_learn,16,730,B,18.221395827121512,64.83719655698721,0.9110697913560756,1.0184603019139422,A,606,Incorrect
1,new_learn,16,731,B,41.43402992794162,31.94137512440153,2.0717014963970812,0.5017339471818781,B,280,Correct
1,new_learn,16,732,A,59.14504576245146,65.24509360018078,2.957252288122573,1.024867533685532,A,638,Correct
1,new_learn,16,733,A,88.25614207080349,35.786054206806355,4.412807103540175,0.5621260249853447,B,498,Incorrect
1,new_learn,16,734,B,25.51225863912444,46.417263952493755,1.275612931956222,0.7291206771644634,A,547,Incorrect
1,new_learn,16,735,A,67.52315057688463,43.86664600423712,3.3761575288442316,0.689055664122677,A,708,Correct
1,new_learn,16,736,A,34.50672140948305,79.27988138411183,1.7253360704741525,1.2453254646689798,A,1161,Correct
1,new_learn,16,737,A,52.77298261340138,73.84076329264515,2.638649130670069,1.1598879974781842,B,1140,Incorrect
1,new_learn,16,738,B,21.301052048981898,62.268597913816436,1.065052602449095,0.9781128487769122,B,549,Correct
1,new_learn,16,739,B,20.691251523057108,54.001570355245846,1.0345625761528554,0.8482546835517635,B,1065,Correct
1,new_learn,16,740,B,31.19902411311005,47.66732746528539,1.5599512056555025,0.7487566289059978,B,797,Correct
1,new_learn,16,741,B,39.50947438752533,46.89909760403541,1.9754737193762666,0.7366893024641417,B,1425,Correct
1,new_learn,16,742,B,23.29859302439573,56.1265357568359,1.1649296512197864,0.8816335620256025,B,701,Correct
1,new_learn,16,743,B,32.54482070519887,35.56099207682213,1.6272410352599436,0.5585907573145461,B,822,Correct
1,new_learn,16,744,A,71.11826497617635,49.46530190156322,3.5559132488088174,0.7769991453077612,A,718,Correct
1,new_learn,16,745,B,15.460260163832189,67.5281026965875,0.7730130081916095,1.0607289567122817,B,906,Correct
1,new_learn,16,746,A,57.751523582814166,72.87667045620564,2.887576179140708,1.1447440626164997,A,761,Correct
1,new_learn,16,747,A,79.81856116395355,49.365774356074006,3.990928058197677,0.7754357702790674,A,789,Correct
1,new_learn,16,748,A,56.98183280881855,52.061799748457695,2.849091640440928,0.8177848381120881,A,601,Correct
1,new_learn,16,749,A,47.69219201406086,66.43635979828474,2.3846096007030426,1.0435798993676981,B,636,Incorrect
1,new_learn,16,750,A,69.86555624975198,40.31210420945097,3.493277812487599,0.6332210521757867,A,454,Correct
1,new_learn,16,751,B,54.64779085309766,34.39751574697618,2.732389542654883,0.540314913862198,B,809,Correct
1,new_learn,16,752,B,53.44381766116537,39.093374862279326,2.672190883058269,0.6140772963568432,B,755,Correct
1,new_learn,16,753,B,34.053769463877735,48.043514728889164,1.7026884731938867,0.754665764624556,B,909,Correct
1,new_learn,16,754,A,82.64888210954184,32.46740199139096,4.132444105477092,0.5099967578865023,B,565,Incorrect
1,new_learn,16,755,B,34.26728248451562,54.73038708078349,1.7133641242257809,0.8597029099055757,B,602,Correct
1,new_learn,16,756,B,31.21141958319042,57.11499291148836,1.560570979159521,0.8971602107028247,B,622,Correct
1,new_learn,16,757,A,53.4023940280234,61.99662720144148,2.67011970140117,0.9738407428169684,A,929,Correct
1,new_learn,16,758,B,15.93132382534111,67.0130552618163,0.7965661912670555,1.0526386105256447,B,686,Correct
1,new_learn,16,759,B,14.626791398130763,64.88635950530117,0.7313395699065381,1.019232551700202,B,728,Correct
1,new_learn,16,760,A,35.81244274201978,76.55533544791284,1.7906221371009892,1.2025283971813263,A,857,Correct
1,new_learn,16,761,B,33.5277021103949,55.797966480088796,1.676385105519745,0.8764724078954826,A,875,Incorrect
1,new_learn,16,762,A,44.40438409489091,66.54820194013901,2.2202192047445455,1.0453367116237535,A,779,Correct
1,new_learn,16,763,B,37.49753322972852,53.938340889453535,1.8748766614864258,0.8472614774256458,A,769,Incorrect
1,new_learn,16,764,B,56.477237016556664,31.127774110816574,2.823861850827833,0.4889539323457195,B,335,Correct
1,new_learn,16,765,A,38.40307938018931,78.54685297942733,1.9201539690094653,1.2338110814138321,B,436,Incorrect
1,new_learn,16,766,A,50.99194225797548,64.8843283013801,2.549597112898774,1.01920064562362,A,400,Correct
1,new_learn,16,767,A,57.458413455716766,71.95615636724018,2.8729206727858383,1.130284661119401,A,917,Correct
1,new_learn,16,768,A,70.99335810239874,59.56218592406651,3.5496679051199376,0.9356006286539836,A,761,Correct
1,new_learn,16,769,A,36.090906283424765,78.77351775742612,1.8045453141712384,1.2373715234207752,B,814,Incorrect
1,new_learn,16,770,B,41.376002385035825,31.758456092780378,2.0688001192517915,0.49886066175216415,B,697,Correct
1,new_learn,16,771,B,38.35931292225566,32.38002739551146,1.9179656461127832,0.5086242809438752,B,508,Correct
1,new_learn,16,772,B,26.758077214462805,41.22859996955027,1.3379038607231402,0.6476173339106575,A,833,Incorrect
1,new_learn,16,773,B,14.471589074551744,62.69578194967122,0.7235794537275873,0.9848230399207735,A,653,Incorrect
1,new_learn,16,774,A,85.08633906325632,34.485589252720246,4.254316953162816,0.5416983692553052,B,889,Incorrect
1,new_learn,16,775,A,71.30710073171207,38.73884982283583,3.5653550365856033,0.6085084300596965,A,571,Correct
1,new_learn,16,776,A,74.84269784107552,40.86209865768799,3.742134892053776,0.6418603447662695,A,555,Correct
1,new_learn,16,777,A,69.48976242196959,39.831614262123715,3.4744881210984797,0.6256735337325515,A,815,Correct
1,new_learn,16,778,A,30.538666136806913,87.62083638452572,1.5269333068403457,1.376344879435096,A,1897,Correct
1,new_learn,16,779,A,68.29711390774952,64.82683386736812,3.414855695387476,1.0182975251660482,A,1584,Correct
1,new_learn,16,780,B,59.81515258170646,26.32319480753192,2.990757629085323,0.41348377713177636,B,547,Correct
1,new_learn,16,781,B,20.115184593693993,53.99579565479377,1.0057592296846998,0.848163974769179,B,1476,Correct
1,new_learn,16,782,A,54.200182162256766,64.85412994350517,2.710009108112838,1.0187262909273682,A,1792,Correct
1,new_learn,16,783,B,41.22104867867726,28.894045710569145,2.061052433933863,0.4538666086840585,B,919,Correct
1,new_learn,16,784,A,68.86258978437027,44.49573856004898,3.443129489218513,0.6989374268815098,A,926,Correct
1,new_learn,16,785,A,73.8547150579981,50.13137151725994,3.692735752899905,0.7874617423650221,A,780,Correct
1,new_learn,16,786,B,60.56723108310348,27.04436740118915,3.028361554155174,0.4248119297427956,B,763,Correct
1,new_learn,16,787,B,58.73400008052485,17.745938394129467,2.936700004026243,0.2787525484502709,B,722,Correct
1,new_learn,16,788,A,57.25813297428354,62.42992689571387,2.8629066487141768,0.9806469984986127,A,747,Correct
1,new_learn,16,789,A,62.486521146906135,54.658006130425505,3.1243260573453067,0.8585659525960533,A,648,Correct
1,new_learn,16,790,A,48.21505632393677,64.84214356148411,2.4107528161968386,1.0185380092788658,A,2065,Correct
1,new_learn,16,791,A,50.68564537605269,74.0616289701438,2.5342822688026345,1.1633573474274836,A,755,Correct
1,new_learn,16,792,A,49.637491126105765,72.13989737408878,2.4818745563052884,1.1331708581057944,A,1333,Correct
1,new_learn,16,793,A,37.37946393273663,76.23425405329837,1.8689731966368313,1.1974848624287002,A,1211,Correct
1,new_learn,16,794,A,62.05317812493791,56.68279606433882,3.102658906246895,0.8903712785032764,A,746,Correct
1,new_learn,16,795,A,75.03008718397348,38.675258966264046,3.751504359198674,0.6075095472204896,B,623,Incorrect
1,new_learn,16,796,B,24.06194121096741,57.39984043232246,1.2030970605483704,0.9016345850970532,B,909,Correct
1,new_learn,16,797,A,73.7802973470217,48.27988871890808,3.689014867351085,0.7583787185772718,A,689,Correct
1,new_learn,16,798,A,38.89513740136419,85.75068839682169,1.9447568700682094,1.3469686635386124,A,1314,Correct
1,new_learn,16,799,A,36.49288856034197,79.29683140579337,1.8246444280170981,1.2455917149869444,A,626,Correct
1,new_learn,16,800,B,41.25496455170431,40.21475072438514,2.0627482275852156,0.6316918272083658,B,719,Correct
1,new_learn,16,801,B,59.448960742807415,31.85978782101843,2.9724480371403708,0.5004523768172053,A,585,Incorrect
1,new_learn,16,802,B,40.38189815683884,31.789208143313374,2.019094907841942,0.4993437138323506,B,814,Correct
1,new_learn,16,803,A,87.45754946075998,37.37257783094603,4.372877473037999,0.5870470797970639,B,839,Incorrect
1,new_learn,16,804,B,38.72198515847419,41.747593951913075,1.9360992579237095,0.655769672321899,A,842,Incorrect
1,new_learn,16,805,B,36.859455872987894,55.070468997424406,1.8429727936493947,0.8650449041602649,A,1181,Incorrect
1,new_learn,16,806,B,44.37942598420863,47.58757147875174,2.218971299210432,0.7475038247991281,B,665,Correct
1,new_learn,16,807,B,46.38275906929486,36.82003709174073,2.319137953464743,0.5783677901615818,B,629,Correct
1,new_learn,16,808,B,57.241612643298595,18.224885246009677,2.86208063216493,0.28627582800690504,B,694,Correct
1,new_learn,16,809,B,28.74225217575631,54.66767924082572,1.4371126087878157,0.8587178974589067,A,661,Incorrect
1,new_learn,16,810,A,66.268210725443,44.826637878667796,3.31341053627215,0.7041351812237635,A,486,Correct
1,new_learn,16,811,B,34.20972096628296,47.17062668152938,1.710486048314148,0.7409544712395969,B,940,Correct
1,new_learn,16,812,A,76.08538881188471,38.476602356868526,3.804269440594236,0.6043890564971695,A,610,Correct
1,new_learn,16,813,B,40.141093726287416,42.01219885833621,2.007054686314371,0.6599260764725127,B,916,Correct
1,new_learn,16,814,A,60.27620378067308,59.98663460634926,3.013810189033654,0.9422678529644105,A,693,Correct
1,new_learn,16,815,A,69.45768242059748,58.887207300802075,3.472884121029874,0.9249980892330953,A,543,Correct
1,new_learn,16,816,A,84.43559268984332,36.83057524453036,4.221779634492166,0.5785333230785134,A,1633,Correct
1,new_learn,16,817,A,71.25113039075845,40.42039849645657,3.5625565195379227,0.6349221348581994,A,906,Correct
1,new_learn,16,818,B,20.88323178030675,64.36860557388268,1.0441615890153375,1.0110996919636441,B,803,Correct
1,new_learn,16,819,B,42.31482181282646,26.028567195349183,2.115741090641323,0.40885577742188645,B,682,Correct
1,new_learn,16,820,B,39.83560475549325,52.60257752513125,1.9917802377746625,0.8262793555641996,B,631,Correct
1,new_learn,16,821,A,53.0892915713946,67.28089629324708,2.65446457856973,1.056845847609009,A,641,Correct
1,new_learn,16,822,B,19.583019653624977,63.137340135738256,0.9791509826812488,0.9917590196881765,B,624,Correct
1,new_learn,16,823,A,57.88761814686057,51.5615092681794,2.894380907343028,0.8099262936245722,A,778,Correct
1,new_learn,16,824,B,15.065249513338472,58.778385272935125,0.7532624756669236,0.9232887168166174,B,617,Correct
1,new_learn,16,825,A,63.71658055376692,44.539873102856156,3.185829027688346,0.6996306906587726,107,825,Incorrect
1,new_learn,16,826,A,78.73004551552015,53.15676390316679,3.9365022757760073,0.8349844948339793,A,679,Correct
1,new_learn,16,827,A,55.34549567887603,63.63408229380903,2.767274783943801,0.9995618272607939,A,780,Correct
1,new_learn,16,828,A,42.338384896182276,72.39241137458961,2.1169192448091136,1.1371373387503045,A,564,Correct
1,new_learn,16,829,B,48.1840387942725,42.11499089671962,2.409201939713625,0.6615407300356768,B,772,Correct
1,new_learn,16,830,B,31.053120756298227,53.13936153375834,1.5526560378149115,0.8347111390545362,B,569,Correct
1,new_learn,16,831,B,12.215347101028101,69.65887602237731,0.610767355051405,1.0941990658461138,B,751,Correct
1,new_learn,16,832,B,23.53902065428886,48.24171933686689,1.176951032714443,0.7577791553262085,B,1177,Correct
1,new_learn,16,833,A,80.2445864872029,41.463177540554135,4.0122293243601455,0.6513020697794709,A,763,Correct
1,new_learn,16,834,B,49.12694052897645,30.861686000002123,2.4563470264488223,0.48477423007500814,B,868,Correct
1,new_learn,16,835,A,62.95501231986398,47.72205624272341,3.147750615993199,0.749616306531694,A,580,Correct
1,new_learn,16,836,B,53.42375459115698,18.32376426371998,2.671187729557849,0.2878290159850694,B,725,Correct
1,new_learn,16,837,A,49.992870013832636,73.20754902729139,2.4996435006916315,1.1499414910572663,A,739,Correct
1,new_learn,16,838,B,33.306642435932886,46.644454994055046,1.6653321217966441,0.7326893857001153,B,614,Correct
1,new_learn,16,839,A,54.523400312014935,63.73784762259155,2.726170015600747,1.0011917692337964,A,653,Correct
1,new_learn,16,840,A,41.86068321196651,68.09622136097337,2.0930341605983256,1.0696529438242914,B,702,Incorrect
1,new_learn,16,841,B,44.522304164985975,48.68648090072145,2.2261152082492988,0.7647654536342314,A,757,Incorrect
1,new_learn,16,842,B,57.1636327737846,22.63203267799075,2.8581816386892296,0.35550313798489935,B,778,Correct
1,new_learn,16,843,A,52.96423309483529,65.93158750095017,2.648211654741765,1.0356509546624886,A,851,Correct
1,new_learn,16,844,A,75.5579061369085,55.51775103916152,3.777895306845425,0.8720707940422847,A,695,Correct
1,new_learn,16,845,B,41.938939933375416,40.7788356518201,2.096946996668771,0.640552452528518,B,563,Correct
1,new_learn,16,846,B,47.360396507063754,24.018825671526955,2.3680198253531874,0.37728683138761504,B,448,Correct
1,new_learn,16,847,A,49.20302933554558,65.40081472642498,2.460151466777279,1.0273135954166195,A,856,Correct
1,new_learn,16,848,B,19.68534702383059,67.18444762512144,0.9842673511915295,1.0553308354728486,B,427,Correct
1,new_learn,16,849,A,74.96389945131234,48.090430545190145,3.748194972565617,0.7554027165436977,A,878,Correct
1,new_learn,16,850,A,42.712863614361765,80.91502526448046,2.1356431807180885,1.2710102446796214,B,859,Incorrect
1,new_learn,16,851,B,60.119771367806365,13.464576925445371,3.0059885683903182,0.2115010797633691,B,1480,Correct
1,new_learn,16,852,A,38.00858145748016,79.62958661019799,1.9004290728740079,1.2508186215149508,A,638,Correct
1,new_learn,16,853,A,37.44342028465115,79.95282031688302,1.8721710142325574,1.2558959647065222,A,1060,Correct
1,new_learn,16,854,A,34.9362460462989,89.5849191789722,1.7468123023149449,1.4071966198254722,A,619,Correct
1,new_learn,16,855,B,24.57826044340049,42.859494196070976,1.2289130221700246,0.6732353605147547,B,723,Correct
1,new_learn,16,856,B,26.172430619255763,55.95302152866394,1.308621530962788,0.8789080069030107,B,804,Correct
1,new_learn,16,857,B,17.739942079612426,59.38170792919618,0.8869971039806214,0.9327656869398875,B,845,Correct
1,new_learn,16,858,A,89.71063699237433,31.496688068819196,4.485531849618717,0.4947488192470584,A,542,Correct
1,new_learn,16,859,B,22.272378616640662,53.337224629326634,1.1136189308320332,0.8378191652918058,B,584,Correct
1,new_learn,16,860,B,28.415355823305458,61.31331279202469,1.420767791165273,0.9631072651733893,B,2007,Correct
1,new_learn,16,861,B,47.973241833685485,33.91018193312976,2.3986620916842742,0.5326598922150689,A,612,Incorrect
1,new_learn,16,862,A,44.57597401018339,72.4848583301088,2.228798700509169,1.1385894921318338,A,719,Correct
1,new_learn,16,863,A,35.10931228979669,82.91883658072709,1.7554656144898346,1.3024860392311242,A,1783,Correct
1,new_learn,16,864,A,37.23840586906189,86.21358375650988,1.8619202934530947,1.3542398068454988,A,782,Correct
1,new_learn,16,865,A,52.9074823661032,69.38022239708849,2.6453741183051602,1.0898219849355961,A,857,Correct
1,new_learn,16,866,B,58.476840975878495,22.512466277911926,2.923842048793925,0.3536249933643803,B,817,Correct
1,new_learn,16,867,A,75.21475115436728,47.893728420773535,3.7607375577183637,0.752312926798634,A,1232,Correct
1,new_learn,16,868,B,11.79252075929292,69.02768974550236,0.589626037964646,1.0842844149937285,B,1088,Correct
1,new_learn,16,869,B,28.345243762913462,49.75563044199546,1.4172621881456733,0.781559615356508,B,861,Correct
1,new_learn,16,870,B,13.038685157242554,69.19377891952396,0.6519342578621277,1.0868933376384637,B,629,Correct
1,new_learn,16,871,B,13.539801884459521,60.58472080753326,0.6769900942229761,0.9516625690436757,B,1364,Correct
1,new_learn,16,872,A,84.12424590347378,39.416027959677535,4.206212295173689,0.6191455193590641,A,436,Correct
1,new_learn,16,873,A,74.49424177906329,36.26063973420802,3.724712088953164,0.5695807970172704,A,754,Correct
1,new_learn,16,874,B,33.57409406819509,39.352038263723486,1.6787047034097542,0.6181403715654906,A,952,Incorrect
1,new_learn,16,875,A,67.6005801692586,55.49979858940781,3.3800290084629303,0.8717887976209837,A,611,Correct
1,new_learn,16,876,B,17.83990241602541,52.99496110326687,0.8919951208012705,0.8324429023965002,B,882,Correct
1,new_learn,16,877,A,47.814825917152916,61.2295388335749,2.3907412958576457,0.9617913469112492,A,944,Correct
1,new_learn,16,878,A,36.189214027401505,80.37467039622855,1.8094607013700752,1.2625223702574633,A,1306,Correct
1,new_learn,16,879,A,64.38188136241502,54.0704832502444,3.219094068120751,0.8493371647750888,A,665,Correct
1,new_learn,16,880,B,43.669534782287066,27.97022269856258,2.183476739114353,0.43935523074537336,B,1539,Correct
1,new_learn,16,881,A,84.66070254295653,34.58045318255178,4.233035127147827,0.5431884883805522,A,1303,Correct
1,new_learn,16,882,B,41.741955025378644,48.746492366176035,2.0870977512689324,0.7657081115292477,A,805,Incorrect
1,new_learn,16,883,B,66.40311805071406,18.6176104284625,3.320155902535703,0.2924447407472725,B,680,Correct
1,new_learn,16,884,A,55.09711183296178,61.484990785953364,2.754855591648089,0.9658039767959361,A,864,Correct
1,new_learn,16,885,B,33.25709932498349,50.10916088801011,1.6628549662491747,0.7871128586166078,B,1224,Correct
1,new_learn,16,886,B,27.113810161856392,60.671990045727355,1.3556905080928197,0.9530333910316506,A,1592,Incorrect
1,new_learn,16,887,B,38.432496553987555,53.53808268043135,1.921624827699378,0.8409742361806303,A,826,Incorrect
1,new_learn,16,888,B,44.03448544388466,46.39044899641155,2.201724272194233,0.7286994688192926,A,848,Incorrect
1,new_learn,16,889,A,59.81649600157024,50.282348694991114,2.9908248000785123,0.7898332863271221,A,509,Correct
1,new_learn,16,890,B,39.01059788802934,43.815905526329686,1.9505298944014668,0.6882586345595089,B,753,Correct
1,new_learn,16,891,A,82.5978369756215,45.51177486976455,4.1298918487810745,0.7148972879134244,A,782,Correct
1,new_learn,16,892,A,67.1998778310345,46.648685479738404,3.3599938915517247,0.7327558380138351,A,524,Correct
1,new_learn,16,893,B,55.638061064576675,19.12297656997758,2.7819030532288336,0.3003830135350566,B,1572,Correct
1,new_learn,16,894,A,49.41151927974373,80.10288434378049,2.4705759639871867,1.2582531649288682,A,745,Correct
1,new_learn,16,895,A,53.25826142110386,78.75807305490162,2.662913071055193,1.2371289186008358,A,736,Correct
1,new_learn,16,896,A,77.31382445838152,51.71263231058526,3.865691222919076,0.8123001288236242,A,665,Correct
1,new_learn,16,897,A,53.74905253655729,59.59073663162225,2.6874526268278647,0.9360491021195431,A,684,Correct
1,new_learn,16,898,A,71.84021301668977,39.118719921901075,3.5920106508344882,0.6144754156224056,A,843,Correct
