experiment,condition,subject,trial,cat,x,y,xt,yt,resp,rt,fb
1,relearn,23,0,A,57.99556709540262,73.31064175855971,2.899778354770131,1.1515608678932214,A,2200,Correct
1,relearn,23,1,A,48.715509613565374,67.17875646832044,2.4357754806782683,1.0552414389908666,A,2831,Correct
1,relearn,23,2,A,56.3347364814544,73.93308722636773,2.81673682407272,1.1613382184378511,A,1182,Correct
1,relearn,23,3,B,79.20519702503104,49.90123309184419,3.960259851251552,0.7838467364320479,B,1116,Correct
1,relearn,23,4,B,37.68351802088322,11.48026348887587,1.884175901044161,0.1803315571896378,B,1747,Correct
1,relearn,23,5,B,70.22570231595287,55.733357868877256,3.5112851157976435,0.8754575382037783,A,799,Incorrect
1,relearn,23,6,A,67.61459642157952,81.79039739930931,3.380729821078976,1.2847605580192993,A,1291,Correct
1,relearn,23,7,A,51.36702926902582,80.45617113099198,2.568351463451291,1.263802580805438,A,1561,Correct
1,relearn,23,8,B,78.298652317603,51.01543508890696,3.91493261588015,0.8013485804749853,B,931,Correct
1,relearn,23,9,B,36.47182090971599,15.705662104441615,1.8235910454857993,0.24670396343538695,A,1266,Incorrect
1,relearn,23,10,B,62.672887693004895,34.33607272389294,3.133644384650245,0.5393497691125346,A,978,Incorrect
1,relearn,23,11,B,65.701981473494,44.46510060471307,3.2850990736747003,0.6984561670044883,A,1462,Incorrect
1,relearn,23,12,A,66.72580037565601,82.09200050249052,3.3362900187828006,1.289498128485569,A,1808,Correct
1,relearn,23,13,A,68.79921118171231,84.36330407140201,3.4399605590856153,1.3251756815163922,A,1241,Correct
1,relearn,23,14,B,59.556388880754014,33.166470299713666,2.9778194440377006,0.5209776971954226,A,1901,Incorrect
1,relearn,23,15,B,53.72723485912343,42.55893188971869,2.6863617429561715,0.6685141388468432,B,904,Correct
1,relearn,23,16,A,19.288738043104704,34.03597987037128,0.9644369021552351,0.5346359215924424,B,1458,Incorrect
1,relearn,23,17,A,25.638192648349037,55.08391872513498,1.2819096324174517,0.8652561719891065,A,1656,Correct
1,relearn,23,18,A,40.255735536860065,57.23522149279095,2.0127867768430034,0.8990487568416834,B,1276,Incorrect
1,relearn,23,19,B,45.360118590909074,33.06430876189707,2.268005929545454,0.5193729475120022,A,1490,Incorrect
1,relearn,23,20,B,50.62286948212252,20.80230686328861,2.531143474106126,0.32676187209714014,B,1367,Correct
1,relearn,23,21,A,30.539964380934563,53.90746918086406,1.5269982190467284,0.8467765457611035,B,1670,Incorrect
1,relearn,23,22,B,83.83096717646137,61.642541233375006,4.191548358823069,0.9682787734368841,B,2956,Correct
1,relearn,23,23,B,51.31359385102715,30.290024718858355,2.5656796925513574,0.4757945956690932,A,1594,Incorrect
1,relearn,23,24,A,50.08578010554609,80.16025816007607,2.504289005277305,1.2591543907277811,B,1093,Incorrect
1,relearn,23,25,A,35.93266785837717,51.35805644106865,1.7966333929188585,0.8067304640895561,A,3815,Correct
1,relearn,23,26,A,16.254301908418928,38.11689634325927,0.8127150954209463,0.5987388076481348,A,3025,Correct
1,relearn,23,27,A,55.367081966595215,70.85167285990715,2.7683540983297608,1.1129354747561584,B,1188,Incorrect
1,relearn,23,28,A,42.59431830360337,72.88165999544594,2.1297159151801686,1.1448224381156107,B,1430,Incorrect
1,relearn,23,29,A,52.05044066826487,59.09358687992985,2.6025220334132433,0.9282398920812889,B,1860,Incorrect
1,relearn,23,30,B,38.452995714138865,12.888930931590203,1.9226497857069433,0.20245885363655017,B,1371,Correct
1,relearn,23,31,B,50.046227325331,30.574202618529412,2.50231136626655,0.48025845167868914,B,761,Correct
1,relearn,23,32,B,77.78982053093567,64.8309076655844,3.889491026546784,1.018361516238791,B,2066,Correct
1,relearn,23,33,A,48.57733710224139,76.411957894473,2.4288668551120693,1.2002762278384451,A,944,Correct
1,relearn,23,34,B,78.30813765700388,58.55980346610904,3.9154068828501942,0.9198552418239514,A,1229,Incorrect
1,relearn,23,35,A,33.22012826312428,50.78142713868546,1.6610064131562141,0.7976727921884981,A,2012,Correct
1,relearn,23,36,B,65.91631022681486,39.92107529248474,3.295815511340743,0.6270787843113753,A,2725,Incorrect
1,relearn,23,37,B,55.14499190169684,35.01018127284248,2.7572495950848417,0.5499386414380444,A,2408,Incorrect
1,relearn,23,38,B,68.12578986670096,38.71056686605056,3.406289493335048,0.6080641624134044,B,1117,Correct
1,relearn,23,39,A,41.440377152065516,57.50223503502552,2.072018857603276,0.9032429957551489,A,2326,Correct
1,relearn,23,40,B,64.32040034702136,37.01834316268232,3.216020017351068,0.5814827746397436,B,1471,Correct
1,relearn,23,41,A,53.74255081523101,77.68199537612577,2.687127540761551,1.220225929949165,B,1593,Incorrect
1,relearn,23,42,B,33.968111197584115,10.074640103957925,1.6984055598792056,0.15825207669077662,A,4203,Incorrect
1,relearn,23,43,A,36.21358321111893,64.08591407501851,1.8106791605559465,1.0066591842833243,A,1542,Correct
1,relearn,23,44,A,56.85229629837737,83.67620266521378,2.8426148149188686,1.3143827178666312,A,1515,Correct
1,relearn,23,45,A,12.717654497526699,37.29718886379159,0.6358827248763349,0.5858628726701934,B,2064,Incorrect
1,relearn,23,46,A,60.87313068577138,75.69777097647098,3.043656534288569,1.1890578059640196,A,1206,Correct
1,relearn,23,47,A,55.15722588369741,70.22720541349825,2.75786129418487,1.1031263630459376,B,2933,Incorrect
1,relearn,23,48,B,64.99530345640069,36.03620066022415,3.2497651728200343,0.5660553162872392,B,1006,Correct
1,relearn,23,49,B,63.393646082233495,35.84935967035932,3.169682304111675,0.5631204248814952,A,1692,Incorrect
1,relearn,23,50,B,74.84930809563494,44.50428459246694,3.7424654047817465,0.6990716676448178,A,1952,Incorrect
1,relearn,23,51,B,75.35026120349877,44.536470512099555,3.767513060174939,0.699577242888152,B,1564,Correct
1,relearn,23,52,B,44.00973416156078,31.223476510595145,2.200486708078039,0.4904572221260958,A,749,Incorrect
1,relearn,23,53,B,32.4314838778372,11.710280539498171,1.62157419389186,0.18394465657181489,A,1590,Incorrect
1,relearn,23,54,B,49.83956272438669,41.223152398635975,2.4919781362193345,0.6475317636668362,A,2652,Incorrect
1,relearn,23,55,A,54.596450721121,75.7867620144909,2.72982253605605,1.190455673920413,B,1788,Incorrect
1,relearn,23,56,B,62.70818124148993,50.81908782388706,3.1354090620744968,0.7982643648482906,B,909,Correct
1,relearn,23,57,B,65.14295834495117,33.87997596603609,3.2571479172475586,0.5321854179934887,A,2552,Incorrect
1,relearn,23,58,B,32.47026682628582,16.676607875232992,1.623513341314291,0.2619555439381483,A,2518,Incorrect
1,relearn,23,59,B,54.07093558614237,25.59071426486073,2.703546779307118,0.40197799967300996,B,1595,Correct
1,relearn,23,60,A,24.321503940746123,35.870204887174296,1.2160751970373063,0.5634478607815373,A,1432,Correct
1,relearn,23,61,A,40.0778143462334,53.12821788678861,2.0038907173116702,0.8345360950572647,B,2197,Incorrect
1,relearn,23,62,B,60.27913950154718,50.01276880037615,3.013956975077359,0.7855987352447328,B,1970,Correct
1,relearn,23,63,B,54.47594007694529,38.004382601850565,2.7237970038472645,0.5969714459309474,B,1732,Correct
1,relearn,23,64,A,40.57302445449837,50.64523482419679,2.028651222724919,0.7955334883151332,A,1111,Correct
1,relearn,23,65,B,63.10165042585256,44.95903229917769,3.1550825212926283,0.7062148279180143,B,901,Correct
1,relearn,23,66,A,59.080532766259935,82.53216786042412,2.9540266383129965,1.2964122611757403,B,1478,Incorrect
1,relearn,23,67,B,72.83716429379069,45.28459473579704,3.6418582146895346,0.7113287507138552,B,973,Correct
1,relearn,23,68,B,43.457397267656425,25.125938118214812,2.172869863382821,0.39467731303367704,A,1100,Incorrect
1,relearn,23,69,B,55.379436732179705,35.77981697854427,2.7689718366089853,0.5620280508329101,A,1317,Incorrect
1,relearn,23,70,B,30.473478289638255,14.708993465500175,1.523673914481913,0.2310483290645781,A,1615,Incorrect
1,relearn,23,71,A,51.07898725881813,73.19170998627166,2.5539493629409065,1.1496926919827286,B,1380,Incorrect
1,relearn,23,72,B,76.95444006387177,62.226196189680124,3.847722003193588,0.9774468040516813,B,868,Correct
1,relearn,23,73,A,36.93821713842068,53.288271318140524,1.846910856921034,0.8370502084778498,A,961,Correct
1,relearn,23,74,B,62.490640995328164,38.249434106867255,3.1245320497664077,0.6008207059705051,B,1238,Correct
1,relearn,23,75,B,58.12089302383927,48.00386483583439,2.9060446511919635,0.7540429455608736,B,1088,Correct
1,relearn,23,76,A,24.599709010232658,50.90833355576559,1.229985450511633,0.7996662335264595,A,891,Correct
1,relearn,23,77,A,29.237393808821796,41.93537665436881,1.46186969044109,0.6587193561144298,A,534,Correct
1,relearn,23,78,A,56.436177635582155,85.57531605487846,2.821808881779108,1.344213921233154,B,908,Incorrect
1,relearn,23,79,B,33.316212566977406,20.63639404409875,1.6658106283488703,0.324155719627624,A,1079,Incorrect
1,relearn,23,80,B,82.92266733294456,61.24512133777111,4.146133366647228,0.962036116314786,B,1360,Correct
1,relearn,23,81,B,45.279454205659285,22.152749672483637,2.2639727102829643,0.3479745781394414,A,1802,Incorrect
1,relearn,23,82,B,83.52803226141904,67.34840548054922,4.1764016130709525,1.0579062794434,B,1380,Correct
1,relearn,23,83,B,44.84083533946415,36.65392697985117,2.2420417669732076,0.5757585386255857,B,1201,Correct
1,relearn,23,84,A,33.58175462100445,49.412933674657204,1.6790877310502226,0.7761765471231139,B,1238,Incorrect
1,relearn,23,85,B,34.36802537451443,15.200982228043376,1.7184012687257217,0.23877647047485034,A,1255,Incorrect
1,relearn,23,86,A,25.70018779448762,53.43029429923676,1.2850093897243808,0.8392811002481141,B,1247,Incorrect
1,relearn,23,87,A,46.10584949390042,74.92129331645663,2.305292474695021,1.176860923402131,A,2310,Correct
1,relearn,23,88,A,46.34146451632736,77.49513777524773,2.317073225816368,1.2172907776182353,A,1555,Correct
1,relearn,23,89,A,26.674657457639405,52.231841662423776,1.3337328728819702,0.820455850250679,B,2082,Incorrect
1,relearn,23,90,A,63.147738451368255,86.84523120909893,3.1573869225684126,1.3641617018290608,B,2443,Incorrect
1,relearn,23,91,A,11.119258729942192,36.76763133478214,0.5559629364971096,0.5775446024562473,A,1188,Correct
1,relearn,23,92,A,23.00717796242964,45.65733775766726,1.150358898121482,0.7171837844097767,A,4884,Correct
1,relearn,23,93,A,18.885052373567863,45.36558568443229,0.944252618678393,0.7126009535600539,B,4532,Incorrect
1,relearn,23,94,A,37.13319692807101,57.045888195392735,1.8566598464035504,0.8960747163607525,B,1604,Incorrect
1,relearn,23,95,A,50.38141293822339,69.98282936163066,2.519070646911169,1.099287712999635,B,1236,Incorrect
1,relearn,23,96,B,59.929043266505175,51.954933619582334,2.9964521633252588,0.8161061888851262,B,843,Correct
1,relearn,23,97,B,61.48962756497284,54.323803502611845,3.074481378248642,0.8533163099943042,B,822,Correct
1,relearn,23,98,B,39.560404296841256,14.286835752466821,1.9780202148420627,0.2244170912149688,A,1431,Incorrect
1,relearn,23,99,B,55.44995888661074,32.20913916697515,2.772497944330537,0.505939974927102,B,1337,Correct
1,relearn,23,100,B,85.40436479274419,69.794782986178,4.2702182396372095,1.0963338874413535,B,1193,Correct
1,relearn,23,101,B,63.296788075983464,42.76607795593734,3.1648394037991734,0.6717679816461057,B,1305,Correct
1,relearn,23,102,B,41.976649169574955,17.17313183093139,2.0988324584787477,0.2697549239959154,A,1039,Incorrect
1,relearn,23,103,A,33.75702794007253,56.96545826653425,1.6878513970036266,0.8948113259925997,B,1294,Incorrect
1,relearn,23,104,B,49.42920057337999,34.32945926484864,2.4714600286689996,0.5392458851407927,B,973,Correct
1,relearn,23,105,B,39.09266052975524,13.80973908428576,1.9546330264877623,0.21692287427591989,B,1178,Correct
1,relearn,23,106,A,65.512918796577,77.27188385884335,3.2756459398288498,1.21378391329993,B,2918,Incorrect
1,relearn,23,107,A,59.45655685266914,85.56281083945981,2.9728278426334565,1.3440174897687003,A,2671,Correct
1,relearn,23,108,A,53.35027602308568,79.21240404349382,2.667513801154284,1.244265533081133,A,1836,Correct
1,relearn,23,109,B,67.21302717548132,45.248769348236536,3.360651358774066,0.7107660068419946,B,2005,Correct
1,relearn,23,110,B,50.37431857882292,42.50632004972609,2.518715928941146,0.6676877139967801,A,1967,Incorrect
1,relearn,23,111,B,47.55065245410343,20.167631234707866,2.3775326227051714,0.3167924106363314,A,1556,Incorrect
1,relearn,23,112,A,34.9488563643936,49.30744995196046,1.74744281821968,0.774519612681627,B,1277,Incorrect
1,relearn,23,113,B,52.77979075502328,42.410016333999074,2.638989537751164,0.6661749787675733,B,1891,Correct
1,relearn,23,114,A,35.94226480126667,46.78768111181347,1.7971132400633334,0.7349391762968757,A,1583,Correct
1,relearn,23,115,B,44.66051144738607,16.434459997680907,2.2330255723693035,0.2581518939721483,A,1467,Incorrect
1,relearn,23,116,B,44.198385840572,34.03553101648792,2.2099192920286,0.53462887101213,B,1260,Correct
1,relearn,23,117,B,69.74723028412245,47.810788290169356,3.4873615142061225,0.7510101062736647,B,2496,Correct
1,relearn,23,118,A,38.550593173775155,54.59360662171846,1.9275296586887578,0.8575543674788091,A,1538,Correct
1,relearn,23,119,A,51.3450536375402,78.9733160871122,2.56725268187701,1.2405099482444817,A,1747,Correct
1,relearn,23,120,B,72.87291560173773,55.236363420563166,3.643645780086887,0.867650767665286,B,1442,Correct
1,relearn,23,121,B,80.29380958114135,56.57475818031227,4.014690479057067,0.8886742233894405,B,792,Correct
1,relearn,23,122,B,65.80854288854937,43.375536595004064,3.2904271444274684,0.6813413355619001,B,1367,Correct
1,relearn,23,123,A,63.048968801198804,82.2515606699987,3.15244844005994,1.2920044937358153,A,1790,Correct
1,relearn,23,124,B,57.67782562842584,31.64384249021406,2.8838912814212923,0.49706031549304514,A,2600,Incorrect
1,relearn,23,125,B,36.236245246255166,12.075253940771898,1.8118122623127584,0.18967764535280093,A,1377,Incorrect
1,relearn,23,126,A,40.94501287919433,71.1150397333665,2.0472506439597167,1.1170724319304521,B,1995,Incorrect
1,relearn,23,127,B,49.61124853842867,27.417449596497825,2.4805624269214333,0.43067229116263,B,911,Correct
1,relearn,23,128,B,78.60772348709014,58.73247305355299,3.930386174354507,0.9225675293610127,B,752,Correct
1,relearn,23,129,B,41.622972806992145,16.76973813967806,2.0811486403496073,0.26341843071118576,A,1153,Incorrect
1,relearn,23,130,A,45.017822173582424,68.05435330642084,2.2508911086791215,1.0689952819612798,B,1163,Incorrect
1,relearn,23,131,B,85.39005800519774,63.44467393611251,4.269502900259887,0.9965866077354543,B,1153,Correct
1,relearn,23,132,A,22.12442480851456,39.3685264125635,1.1062212404257281,0.6183993668018261,A,1431,Correct
1,relearn,23,133,A,31.374747106602612,44.83618909397003,1.5687373553301307,0.7042852113628952,A,781,Correct
1,relearn,23,134,A,11.533301228360237,36.582102364640576,0.5766650614180119,0.5746303202081232,A,3476,Correct
1,relearn,23,135,B,63.038049848549804,45.41147438636484,3.15190249242749,0.7133217716044241,B,2086,Correct
1,relearn,23,136,A,56.040415995315016,83.72353004990435,2.8020207997657507,1.3151261346869192,A,1208,Correct
1,relearn,23,137,A,45.136965794208145,57.522634235324624,2.2568482897104074,0.9035634256441428,A,815,Correct
1,relearn,23,138,B,45.871107807421915,32.35752369946533,2.2935553903710955,0.5082707937129896,A,1030,Incorrect
1,relearn,23,139,A,55.97690090338189,79.18189091249208,2.7988450451690943,1.2437862339401677,A,1789,Correct
1,relearn,23,140,B,59.21034454367081,46.05702095764599,2.9605172271835403,0.7234619934338589,B,1150,Correct
1,relearn,23,141,A,57.29311018475986,79.11391105995224,2.864655509237993,1.2427184089135113,A,869,Correct
1,relearn,23,142,B,56.445190863254595,46.32169833672773,2.8222595431627298,0.7276195359823318,A,1018,Incorrect
1,relearn,23,143,A,36.18900908460008,56.28042543843431,1.809450454230004,0.8840508554914664,A,1478,Correct
1,relearn,23,144,A,19.08129479018467,37.8912030926652,0.9540647395092335,0.5951936263579793,A,1139,Correct
1,relearn,23,145,B,84.16503138550885,59.19590317087089,4.208251569275443,0.9298470726211037,B,977,Correct
1,relearn,23,146,A,40.090530325308386,50.45327161692532,2.004526516265419,0.7925181373065151,A,1012,Correct
1,relearn,23,147,B,82.71677489949266,53.3891851680601,4.135838744974633,0.838635359525614,B,711,Correct
1,relearn,23,148,B,51.105344814849865,31.592118678164596,2.5552672407424932,0.4962478397532939,A,795,Incorrect
1,relearn,23,149,A,18.01776454752541,38.79408017033928,0.9008882273762705,0.6093759863295568,A,696,Correct
1,relearn,23,150,A,55.551358512510625,74.54475561335073,2.7775679256255312,1.1709462829927457,B,950,Incorrect
1,relearn,23,151,A,25.160737147631146,47.44285947591795,1.2580368573815575,0.7452306939741836,A,709,Correct
1,relearn,23,152,A,31.38397500389965,48.9482259909208,1.5691987501949825,0.7688769358966486,A,806,Correct
1,relearn,23,153,A,34.968013598557235,52.3825396281149,1.7484006799278617,0.8228230083603099,A,759,Correct
1,relearn,23,154,B,41.899084730845146,25.160236516024916,2.0949542365422573,0.39521607100662765,A,1478,Incorrect
1,relearn,23,155,A,52.176307476508484,61.60621251055427,2.6088153738254243,0.9677081231932445,B,1446,Incorrect
1,relearn,23,156,A,19.594436042855367,32.81046436323669,0.9797218021427683,0.5153855690220704,A,965,Correct
1,relearn,23,157,B,52.81536441541543,35.524521132154604,2.640768220770772,0.5580178730553613,B,694,Correct
1,relearn,23,158,B,58.77038154495772,38.0088881379955,2.9385190772478857,0.5970422187272144,B,614,Correct
1,relearn,23,159,B,70.3864612894249,56.80620153704974,3.519323064471245,0.8923097271356834,B,820,Correct
1,relearn,23,160,A,63.84768292566129,77.94625325936703,3.1923841462830644,1.2243768830723847,B,1209,Incorrect
1,relearn,23,161,B,63.507967720877055,48.75316895970905,3.175398386043853,0.7658129872152194,B,875,Correct
1,relearn,23,162,B,50.356920434134636,31.21510025338761,2.5178460217067316,0.49032564818555713,A,1355,Incorrect
1,relearn,23,163,B,35.38410032912717,22.978807553998124,1.7692050164563584,0.36095026499947075,A,890,Incorrect
1,relearn,23,164,B,80.8526950351553,64.70180813280761,4.042634751757765,1.0163336255200237,B,748,Correct
1,relearn,23,165,A,43.9802304469041,64.50554788491355,2.199011522345205,1.013250776755145,B,1737,Incorrect
1,relearn,23,166,A,52.3555244464753,81.35771210605739,2.6177762223237653,1.2779639533263163,B,1569,Incorrect
1,relearn,23,167,B,44.08975076298594,27.118943838988464,2.204487538149297,0.4259833736884018,B,604,Correct
1,relearn,23,168,A,14.93237055193877,30.906604563891133,0.7466185275969386,0.48547980922662576,A,764,Correct
1,relearn,23,169,B,40.041522404373865,29.769275397466792,2.0020761202186934,0.46761468445686527,B,666,Correct
1,relearn,23,170,B,78.58566151121886,51.341557053015464,3.929283075560943,0.806471292308073,B,702,Correct
1,relearn,23,171,A,62.16600747816868,81.43175083849104,3.1083003739084343,1.2791269510157897,A,634,Correct
1,relearn,23,172,B,84.42709368612674,61.51740351850442,4.221354684306337,0.9663131148082621,B,783,Correct
1,relearn,23,173,A,53.38301530419253,72.31230446417776,2.6691507652096265,1.1358790223440463,A,784,Correct
1,relearn,23,174,A,34.1665425287572,59.843226245275524,1.7083271264378599,0.9400151996963473,A,609,Correct
1,relearn,23,175,B,65.91255733744508,43.25785014827305,3.295627866872254,0.6794927211795138,B,972,Correct
1,relearn,23,176,B,67.78730525838779,46.195956658651355,3.3893652629193896,0.725644390321858,B,574,Correct
1,relearn,23,177,B,47.83401139151942,35.66468798801944,2.391700569575971,0.5602196088786701,B,1532,Correct
1,relearn,23,178,A,61.57128633584022,87.98383235417978,3.078564316792011,1.3820468067928358,A,714,Correct
1,relearn,23,179,B,81.89808796443931,57.39540995966813,4.094904398221965,0.9015649913953392,B,707,Correct
1,relearn,23,180,A,60.01480403077445,76.9958101170794,3.0007402015387226,1.2094473571050566,A,839,Correct
1,relearn,23,181,A,55.47888739593222,67.3120135258427,2.7739443697966113,1.057334635955621,A,546,Correct
1,relearn,23,182,A,51.59586656471542,61.04673367872754,2.5797933282357715,0.9589198502537152,A,1253,Correct
1,relearn,23,183,A,69.08011128211612,88.44566715789836,3.4540055641058065,1.3893012909255076,A,2462,Correct
1,relearn,23,184,B,59.66583197825141,30.42959310014145,2.9832915989125706,0.4779869306756552,B,838,Correct
1,relearn,23,185,B,86.79379295970736,69.83324642150777,4.339689647985368,1.0969380696706725,B,742,Correct
1,relearn,23,186,B,79.88862419768061,54.98271180198979,3.9944312098840307,0.8636664173578796,B,1065,Correct
1,relearn,23,187,B,65.23869385764878,39.110946922517634,3.2619346928824395,0.6143533176336086,B,753,Correct
1,relearn,23,188,A,10.935730734907672,36.921074893139355,0.5467865367453836,0.5799548882346257,A,758,Correct
1,relearn,23,189,B,67.76265545348079,55.80808834535384,3.388132772674039,0.8766314017832689,B,889,Correct
1,relearn,23,190,A,17.510509007493653,33.013679487483024,0.8755254503746827,0.5185776647292235,A,601,Correct
1,relearn,23,191,A,55.39123790435353,70.91565127674316,2.769561895217677,1.1139404453777597,A,1946,Correct
1,relearn,23,192,B,67.86111933266888,43.4973019410666,3.393055966633444,0.6832540211451594,B,669,Correct
1,relearn,23,193,A,41.97963946385758,65.7247538098663,2.098981973192879,1.0324020186403686,A,3241,Correct
1,relearn,23,194,A,20.462894954322405,47.289402564757864,1.0231447477161202,0.7428201984504682,A,662,Correct
1,relearn,23,195,A,36.37809917207978,61.82936142300698,1.818904958603989,0.9712133381133344,A,767,Correct
1,relearn,23,196,A,16.769680010083952,42.013407626257596,0.8384840005041977,0.6599450637546213,A,652,Correct
1,relearn,23,197,A,60.3462591993958,85.72083425394119,3.0173129599697903,1.3464997157588496,A,1174,Correct
1,relearn,23,198,B,57.59736787113734,25.0182702344099,2.879868393556867,0.39298606986973167,B,700,Correct
1,relearn,23,199,B,64.41598406104629,55.38068251494907,3.2207992030523145,0.8699177266987634,B,994,Correct
1,relearn,23,200,A,30.732930118511977,54.155687707569946,1.536646505925599,0.850675553261024,A,648,Correct
1,relearn,23,201,A,33.40222148489307,46.85636687331714,1.6701110742446534,0.7360180897156066,A,722,Correct
1,relearn,23,202,B,50.205449156034916,24.787423597990426,2.510272457801746,0.389359939384325,B,557,Correct
1,relearn,23,203,B,47.00450222999446,31.720859363288028,2.350225111499723,0.4982700937063033,B,768,Correct
1,relearn,23,204,A,43.838425530478254,71.33913536971932,2.1919212765239124,1.1205925179547898,A,866,Correct
1,relearn,23,205,A,33.70616898714286,43.551702565493024,1.685308449357143,0.6841085441554031,A,1186,Correct
1,relearn,23,206,A,45.418130348771044,67.67835367974,2.2709065174385525,1.0630890936366146,A,725,Correct
1,relearn,23,207,A,30.429579426637126,57.99943509474153,1.5214789713318564,0.9110529960299901,A,600,Correct
1,relearn,23,208,A,23.333174543718695,34.306325862435585,1.1666587271859348,0.5388825065054258,A,578,Correct
1,relearn,23,209,B,61.61657275077923,45.73434406698186,3.0808286375389615,0.7183933966878908,B,673,Correct
1,relearn,23,210,A,35.22561819552075,66.47476140911367,1.7612809097760376,1.044183110460029,A,483,Correct
1,relearn,23,211,B,68.70559167509296,50.730496124753856,3.4352795837546477,0.7968727696924609,B,590,Correct
1,relearn,23,212,B,72.7052585271984,55.95066972034785,3.63526292635992,0.8788710647843683,B,526,Correct
1,relearn,23,213,B,77.51543908796614,58.41588030870797,3.875771954398307,0.917594502154088,B,402,Correct
1,relearn,23,214,A,22.86191805950281,45.528946130600765,1.1430959029751404,0.715167013447904,A,672,Correct
1,relearn,23,215,B,52.29914221311769,32.72534169450098,2.614957110655885,0.5140484652683003,B,629,Correct
1,relearn,23,216,B,34.9002727276994,19.134750596942844,1.7450136363849702,0.30056795951814275,B,1858,Correct
1,relearn,23,217,B,40.188267546158905,21.357943635183275,2.0094133773079452,0.33548979410038327,B,521,Correct
1,relearn,23,218,A,32.91264217634371,60.38644137622707,1.6456321088171852,0.9485480030199284,A,708,Correct
1,relearn,23,219,B,59.49954604757815,37.006469158532596,2.9749773023789077,0.5812962582187163,B,546,Correct
1,relearn,23,220,B,88.087176336844,69.0738361094632,4.404358816842199,1.085009280383775,B,860,Correct
1,relearn,23,221,B,81.04762330792731,67.35192857401833,4.0523811653963655,1.0579616200662023,B,786,Correct
1,relearn,23,222,A,38.41560802101733,62.98665587063552,1.9207804010508664,0.9893920767868849,A,1217,Correct
1,relearn,23,223,A,32.1812635278057,50.49846920870187,1.609063176390285,0.7932280994179408,A,521,Correct
1,relearn,23,224,A,32.10849673880109,63.494308043531525,1.6054248369400543,0.9973662584716299,A,633,Correct
1,relearn,23,225,B,78.7524290882468,49.50283772630992,3.93762145441234,0.7775887566641144,B,575,Correct
1,relearn,23,226,A,51.31160898603653,68.08931596527552,2.565580449301826,1.069544474122319,A,980,Correct
1,relearn,23,227,A,54.58150073016273,81.4504851829554,2.7290750365081364,1.279421229410485,B,2048,Incorrect
1,relearn,23,228,A,51.3575399415048,72.20248546451873,2.5678769970752398,1.1341539895312793,B,575,Incorrect
1,relearn,23,229,A,39.09170755750846,49.65490494715306,1.954585377875423,0.7799774229833776,A,1011,Correct
1,relearn,23,230,A,42.82949723182668,56.55332540460275,2.141474861591334,0.8883375581358652,A,566,Correct
1,relearn,23,231,B,62.77226810627249,53.14500006503531,3.1386134053136243,0.8347997088967202,B,634,Correct
1,relearn,23,232,A,18.921634040020688,42.70716891999611,0.9460817020010345,0.6708426406733905,A,537,Correct
1,relearn,23,233,A,62.90401080166518,84.30624326496311,3.1452005400832594,1.3242793724648105,B,603,Incorrect
1,relearn,23,234,A,32.0671290324923,44.84009515862417,1.603356451624615,0.7043465676830047,A,972,Correct
1,relearn,23,235,B,57.081196997475985,32.40209480174593,2.8540598498737997,0.5089709149504252,A,1284,Incorrect
1,relearn,23,236,B,86.17164733640766,62.751882369442974,4.308582366820383,0.9857042632538646,B,525,Correct
1,relearn,23,237,B,57.60849341369812,49.26061322566431,2.8804246706849064,0.773783903105376,A,918,Incorrect
1,relearn,23,238,A,35.980182377342146,61.650155853208034,1.7990091188671073,0.9683983836055207,A,756,Correct
1,relearn,23,239,B,80.80793988225632,61.577273046822505,4.040396994112816,0.9672535431599516,B,452,Correct
1,relearn,23,240,B,71.72482594721785,55.49101446573429,3.586241297360892,0.8716508169289789,B,441,Correct
1,relearn,23,241,A,67.15686767244375,83.82515804523754,3.3578433836221877,1.316722503504608,B,705,Incorrect
1,relearn,23,242,A,14.582798876392879,39.438339471904435,0.7291399438196439,0.6194959877735767,A,678,Correct
1,relearn,23,243,A,58.030664349635416,83.83462222483273,2.9015332174817705,1.3168711664900503,B,884,Incorrect
1,relearn,23,244,B,38.91608227395807,24.65920015813114,1.9458041136979034,0.38734581030092535,B,1431,Correct
1,relearn,23,245,A,56.21574021306897,80.00563706445428,2.8107870106534483,1.256725608237304,A,1183,Correct
1,relearn,23,246,B,40.8848054932551,27.591067593415033,2.044240274662755,0.4333994762808604,A,1085,Incorrect
1,relearn,23,247,A,46.32251043961757,66.68630808530533,2.316125521980878,1.047506077879104,A,618,Correct
1,relearn,23,248,B,31.140417719615765,14.04242570784547,1.5570208859807884,0.22057790721173892,B,874,Correct
1,relearn,23,249,A,46.19299760558794,54.7756497084991,2.309649880279397,0.8604138935991436,A,1078,Correct
1,relearn,23,250,A,67.34699231654263,87.20696518853137,3.3673496158271314,1.3698438058907547,B,413,Incorrect
1,relearn,23,251,A,61.026617222871565,82.51570118961668,3.051330861143578,1.2961536033155516,B,587,Incorrect
1,relearn,23,252,B,56.08734760205357,43.557202621746,2.8043673801026783,0.6841949388369966,B,601,Correct
1,relearn,23,253,B,52.643093110951696,24.571584665932512,2.6321546555475845,0.38596954936776595,B,687,Correct
1,relearn,23,254,B,52.86543051148453,25.973930634723914,2.6432715255742267,0.40799754833449764,B,581,Correct
1,relearn,23,255,A,47.985638494767585,72.54102381097141,2.3992819247383794,1.1394717374421501,A,678,Correct
1,relearn,23,256,B,83.97959408602665,66.20964982434248,4.198979704301332,1.0400187474245353,B,598,Correct
1,relearn,23,257,A,16.507896554976515,40.87734763221319,0.8253948277488257,0.6420998750979854,A,666,Correct
1,relearn,23,258,B,35.336948293956574,15.398002812620682,1.7668474146978286,0.2418712625804205,A,561,Incorrect
1,relearn,23,259,B,64.75768881035029,41.07967636189636,3.2378844405175142,0.6452780473518995,B,595,Correct
1,relearn,23,260,B,56.076874932844575,24.69310353904856,2.803843746642229,0.3878783633630354,B,423,Correct
1,relearn,23,261,A,62.45315483785514,84.90666619120333,3.1226577418927572,1.3337107937354262,B,501,Incorrect
1,relearn,23,262,B,75.49931361278897,54.71075085262535,3.7749656806394483,0.8593944647549465,B,478,Correct
1,relearn,23,263,A,33.403220489659326,48.314192055604806,1.6701610244829663,0.758917554130072,A,650,Correct
1,relearn,23,264,A,36.311949402915054,43.83362605275926,1.8155974701457527,0.6885369879377532,A,575,Correct
1,relearn,23,265,B,74.4438207661768,63.9407728194881,3.72219103830884,1.0043793107727887,B,851,Correct
1,relearn,23,266,B,60.51992026259198,39.04184419774104,3.0259960131295993,0.6132678545711028,A,1002,Incorrect
1,relearn,23,267,B,61.42287952265641,48.184261870040416,3.0711439761328205,0.7568766155478288,B,573,Correct
1,relearn,23,268,A,65.75603107512933,80.4246338575621,3.2878015537564664,1.2633071944728302,A,1169,Correct
1,relearn,23,269,A,35.747248351282025,43.94553035000414,1.7873624175641012,0.6902947765284015,A,626,Correct
1,relearn,23,270,B,74.31266239544645,61.60029375121394,3.7156331197723227,0.9676151515389346,B,508,Correct
1,relearn,23,271,A,22.533207068642472,39.96200313876243,1.1266603534321236,0.6277216774173415,A,517,Correct
1,relearn,23,272,B,59.48749194208618,39.528778670334056,2.974374597104309,0.6209166033804918,B,1817,Correct
1,relearn,23,273,A,66.19213458526039,82.33058490783584,3.30960672926302,1.293245803561039,A,773,Correct
1,relearn,23,274,A,54.95219333221074,69.58838584315171,2.747609666610537,1.0930918087000867,A,1012,Correct
1,relearn,23,275,A,64.1718196243449,78.56425884530361,3.2085909812172453,1.2340844921156637,A,866,Correct
1,relearn,23,276,B,53.50088908040196,30.34696609153461,2.675044454020098,0.4766890286595184,B,690,Correct
1,relearn,23,277,A,25.210206450513905,35.40338837446468,1.2605103225256953,0.5561151241470227,A,550,Correct
1,relearn,23,278,A,35.52659629051528,54.433104595258,1.7763298145257638,0.8550332075427366,A,504,Correct
1,relearn,23,279,A,35.07108401241594,43.44644806475061,1.753554200620797,0.6824552103239551,A,564,Correct
1,relearn,23,280,A,31.155118121905314,41.87506730939313,1.5577559060952657,0.6577720191388379,A,458,Correct
1,relearn,23,281,A,52.696803299398326,63.069253325697744,2.634840164969916,0.9906895145770285,B,2935,Incorrect
1,relearn,23,282,B,62.68647226098124,29.74674313119192,3.134323613049062,0.46726074844587584,B,514,Correct
1,relearn,23,283,A,50.937348374214345,62.34968662648152,2.546867418710717,0.9793865872969006,A,466,Correct
1,relearn,23,284,B,42.016126549131855,30.784310436400602,2.100806327456593,0.4835588175641187,A,495,Incorrect
1,relearn,23,285,B,87.79368811551467,66.65885982978548,4.389684405775734,1.0470749216896291,B,2067,Correct
1,relearn,23,286,A,12.806902582712556,33.0802991319874,0.6403451291356278,0.5196241236580221,A,618,Correct
1,relearn,23,287,A,21.869035477361848,37.88557489179732,1.0934517738680924,0.5951052187854818,A,556,Correct
1,relearn,23,288,A,55.42054006886534,78.36215762910304,2.771027003443267,1.2309098936351774,A,950,Correct
1,relearn,23,289,B,87.64845644691303,64.45141045365327,4.382422822345651,1.0124003879734875,B,723,Correct
1,relearn,23,290,B,73.66218920360811,63.39716084695442,3.6831094601804057,0.9958402738762124,B,621,Correct
1,relearn,23,291,B,60.74405281335323,44.509670019280634,3.0372026406676618,0.6991562617313896,B,1312,Correct
1,relearn,23,292,B,71.16537008163517,61.20324641419354,3.5582685040817585,0.9613783465533815,B,603,Correct
1,relearn,23,293,B,74.85161756669764,63.742712397556005,3.7425808783348824,1.001268184940245,B,661,Correct
1,relearn,23,294,B,39.04642504573455,15.303983592457453,1.9523212522867277,0.2403944121236153,B,1117,Correct
1,relearn,23,295,A,43.82776567811777,64.2502580079423,2.1913882839058885,1.0092406927450015,A,614,Correct
1,relearn,23,296,A,18.42716936617574,40.3194165036401,0.9213584683087871,0.633335913424314,A,585,Correct
1,relearn,23,297,B,31.25294054908628,16.793421419054706,1.562647027454314,0.26379044679369873,B,991,Correct
1,relearn,23,298,B,78.19781887100423,51.68595187190893,3.9098909435502116,0.8118810334729234,B,864,Correct
1,relearn,23,299,B,33.01783597449892,12.704761000887395,1.650891798724946,0.1995659191300097,B,916,Correct
1,relearn,23,300,B,58.89013624537163,27.324559112006497,2.9445068122685814,0.42921317084429816,B,718,Incorrect
1,relearn,23,301,A,44.73402419113415,76.89969930843581,2.2367012095567076,1.2079376520532301,A,779,Incorrect
1,relearn,23,302,B,40.23333642278813,30.57759550656991,2.011666821139406,0.48031174703940144,B,985,Incorrect
1,relearn,23,303,A,45.7357455440999,53.728190483809726,2.286787277204995,0.8439604425730483,A,4897,Correct
1,relearn,23,304,B,47.67151972640633,17.591802030303043,2.3835759863203165,0.27633138010903024,B,903,Correct
1,relearn,23,305,A,22.272141841953278,36.97704090008946,1.1136070920976637,0.5808340002160518,A,578,Incorrect
1,relearn,23,306,A,56.63185237846295,82.24129934092916,2.8315926189231475,1.2918433091557107,B,1231,Incorrect
1,relearn,23,307,B,42.31153375123249,24.119625271761066,2.1155766875616244,0.3788701878055164,B,704,Correct
1,relearn,23,308,B,81.54685994043662,51.07036649230564,4.077342997021831,0.8022114409418285,B,879,Incorrect
1,relearn,23,309,A,37.38855467357943,57.43875283326573,1.8694277336789713,0.9022458196617377,A,1970,Incorrect
1,relearn,23,310,B,41.0226800781811,16.1809907564306,2.051134003909055,0.2541704084410336,B,1480,Incorrect
1,relearn,23,311,B,59.663923819456,36.48089031825049,2.9831961909727998,0.5730404851011537,B,2268,Correct
1,relearn,23,312,A,40.83984336812233,51.3844616612081,2.0419921684061166,0.8071452363175886,A,982,Incorrect
1,relearn,23,313,A,64.18333114027591,80.5834731594206,3.2091665570137957,1.2658022363919303,B,1043,Correct
1,relearn,23,314,B,79.7598378502372,58.77216595590629,3.98799189251186,0.9231910240131767,B,477,Incorrect
1,relearn,23,315,A,18.02377846777904,34.01124186605868,0.901188923388952,0.5342473379293777,A,963,Correct
1,relearn,23,316,B,85.92129950659361,66.1288662738448,4.296064975329681,1.0387498023806634,B,616,Correct
1,relearn,23,317,A,24.629912938698862,41.55646294751902,1.2314956469349432,0.6527673935255109,A,2532,Incorrect
1,relearn,23,318,A,15.164403669201281,40.7330875952745,0.758220183460064,0.6398338437367195,A,675,Correct
1,relearn,23,319,A,48.967974534861085,71.99316980840288,2.4483987267430543,1.130866066893605,B,719,Incorrect
1,relearn,23,320,A,45.19353244542006,76.17968885934731,2.259676622271003,1.1966277543664086,A,940,Correct
1,relearn,23,321,A,51.28572902537633,77.05503363469947,2.564286451268816,1.2103776379444313,A,642,Correct
1,relearn,23,322,B,52.01142369752792,22.84166815499988,2.6005711848763955,0.3587960843574177,B,943,Incorrect
1,relearn,23,323,A,59.47596804955759,76.30672300678552,2.97379840247788,1.198623202088143,B,626,Incorrect
1,relearn,23,324,A,20.442759593522972,41.46978071679618,1.0221379796761485,0.6514057922293327,B,1794,Incorrect
1,relearn,23,325,A,56.194195557761304,75.11281863331992,2.8097097778880653,1.1798693960443019,B,928,Correct
1,relearn,23,326,B,57.82699595634121,36.51372807713791,2.8913497978170604,0.5735562994115592,B,477,Correct
1,relearn,23,327,B,63.105153594150245,40.86913646197392,3.1552576797075123,0.64197089433748,B,449,Correct
1,relearn,23,328,A,57.94642877925022,70.63527342387911,2.897321438962511,1.1095362803638247,B,748,Correct
1,relearn,23,329,B,50.919830449320386,33.17376733198914,2.5459915224660192,0.5210923187103708,A,984,Incorrect
1,relearn,23,330,B,46.410599065730544,38.61377393078293,2.320529953286527,0.6065437425416237,B,597,Correct
1,relearn,23,331,B,33.296362650519036,13.798304108370274,1.6648181325259517,0.21674325409426956,B,700,Incorrect
1,relearn,23,332,B,85.3851723198961,58.84461175852761,4.269258615994805,0.9243290000196694,B,820,Incorrect
1,relearn,23,333,B,41.796261712197094,13.886860683094003,2.0898130856098547,0.21813429751716526,B,1096,Incorrect
1,relearn,23,334,B,51.61027471054819,38.80618972027579,2.5805137355274095,0.6095662026951508,A,1648,Correct
1,relearn,23,335,A,52.83028214713465,67.86531426400231,2.6415141073567328,1.0660258636267612,B,895,Correct
1,relearn,23,336,A,46.42381234090834,65.76054105884177,2.321190617045417,1.032964163432736,B,584,Correct
1,relearn,23,337,A,58.950722050450786,66.97619511519693,2.9475361025225393,1.0520596126964963,B,607,Incorrect
1,relearn,23,338,B,84.64846923224736,56.917704067257475,4.232423461612368,0.8940612047844698,A,1512,Incorrect
1,relearn,23,339,B,68.03354303531714,45.49040415522919,3.401677151765857,0.7145615975144932,B,938,Incorrect
1,relearn,23,340,B,68.46179523699294,36.086023592689564,3.423089761849647,0.5668379330803074,A,4529,Incorrect
1,relearn,23,341,B,78.11409571233148,50.653077592096665,3.905704785616574,0.7956566822252232,B,1656,Correct
1,relearn,23,342,B,61.256201241677445,49.616886898648396,3.062810062083872,0.7793802368739473,B,488,Incorrect
1,relearn,23,343,A,10.706843215517068,31.44206828475167,0.5353421607758534,0.4938908536852224,A,1002,Correct
1,relearn,23,344,A,57.53944304589041,67.4388007963184,2.87697215229452,1.059326205743097,A,1329,Correct
1,relearn,23,345,A,40.203673288530695,51.00442896071051,2.0101836644265347,0.8011756966175531,A,1063,Incorrect
1,relearn,23,346,A,40.16356648756657,65.6206556857993,2.0081783243783287,1.030766849131262,A,989,Correct
1,relearn,23,347,B,53.1774748006731,41.36611388158764,2.658873740033655,0.6497773973897725,B,1083,Incorrect
1,relearn,23,348,B,43.80888848968179,20.34922390063363,2.19044442448409,0.31964486156242217,A,1379,Correct
1,relearn,23,349,B,60.06723006845936,29.209890159898144,3.0033615034229677,0.45882788169250394,B,731,Incorrect
1,relearn,23,350,B,56.80755226678298,34.98207232808545,2.840377613339149,0.5494971071663002,A,1615,Incorrect
1,relearn,23,351,A,59.13860610178851,76.34659935917148,2.9569303050894256,1.1992495783666817,B,943,Correct
1,relearn,23,352,A,14.667412553818693,34.282078056443495,0.7333706276909346,0.5385016228595737,A,721,Correct
1,relearn,23,353,B,49.678089645947,37.904220554019346,2.48390448229735,0.5953981041627722,B,1697,Correct
1,relearn,23,354,A,43.3727542935971,52.76319648248313,2.1686377146798548,0.8288023522464191,B,1178,Correct
1,relearn,23,355,A,21.445031976822662,44.67772441690136,1.0722515988411332,0.7017960540362332,A,665,Incorrect
1,relearn,23,356,B,50.43351182140506,30.802122694167252,2.5216755910702533,0.4838386118548364,B,1399,Incorrect
1,relearn,23,357,B,39.77350314318182,18.566568937224666,1.9886751571590908,0.29164298287776735,A,577,Incorrect
1,relearn,23,358,B,55.691677600711536,39.532751182989486,2.784583880035577,0.6209790034633649,B,699,Incorrect
1,relearn,23,359,B,68.23005908469715,39.45295005316644,3.411502954234857,0.6197254902473636,B,907,Correct
1,relearn,23,360,A,48.959759501476455,77.81350745723083,2.447987975073823,1.2222917168884546,A,3898,Incorrect
1,relearn,23,361,B,82.36341737720187,54.71048966719711,4.118170868860093,0.8593903620638336,B,1539,Incorrect
1,relearn,23,362,A,10.356682129892274,32.39819669102175,0.5178341064946137,0.5089096835703555,A,2764,Correct
1,relearn,23,363,A,41.61168014489587,51.4751121217311,2.0805840072447936,0.8085691704217066,B,1128,Incorrect
1,relearn,23,364,A,41.79371697088014,68.26025755415574,2.0896858485440073,1.0722296183214142,A,768,Incorrect
1,relearn,23,365,A,47.741684460620874,71.62675848351265,2.387084223031044,1.1251104912612688,A,956,Incorrect
1,relearn,23,366,B,86.46431384775501,63.40529478029123,4.323215692387751,0.9959680414022908,B,633,Incorrect
1,relearn,23,367,A,59.108475104036934,69.00870394786743,2.955423755201847,1.0839861867818663,A,1056,Correct
1,relearn,23,368,B,75.2191371556689,50.80190882165368,3.7609568577834454,0.7979945177122286,A,794,Incorrect
1,relearn,23,369,B,58.401847907006825,51.07484816638859,2.9200923953503413,0.8022818389137026,B,1881,Correct
1,relearn,23,370,A,20.965217934687537,45.610987971905566,1.0482608967343767,0.7164557236775546,A,1720,Incorrect
1,relearn,23,371,A,46.7682102508314,57.49513460540097,2.33841051254157,0.9031314624674198,B,1092,Incorrect
1,relearn,23,372,A,53.962545490958576,79.79355245185633,2.6981272745479288,1.2533941909329183,B,1038,Correct
1,relearn,23,373,B,72.92798572675699,60.83500504431842,3.6463992863378496,0.9555940246416439,B,901,Incorrect
1,relearn,23,374,B,34.57281889752655,18.723843254233095,1.7286409448763278,0.2941134420723275,A,1260,Correct
1,relearn,23,375,B,64.83611152063484,41.70321219432729,3.2418055760317426,0.6550725253039744,B,961,Incorrect
1,relearn,23,376,B,63.08416454844535,48.31513720304398,3.1542082274222674,0.7589324004713295,B,965,Incorrect
1,relearn,23,377,B,65.89565886322352,35.76882477463625,3.2947829431611755,0.5618553856976892,B,2207,Correct
1,relearn,23,378,B,47.2458801966372,27.324688543763365,2.36229400983186,0.42921520395358087,B,1677,Correct
1,relearn,23,379,A,47.84823794613544,59.825822834183484,2.392411897306772,0.9397418275541766,B,1278,Incorrect
1,relearn,23,380,B,73.72118108846402,44.824535181375595,3.6860590544232013,0.704102152131934,B,2184,Correct
1,relearn,23,381,B,87.60434793591088,66.46006199056399,4.380217396795544,1.0439522125333904,A,1156,Incorrect
1,relearn,23,382,B,70.2740549743757,39.916155948090676,3.513702748718785,0.6270015114303309,B,1006,Correct
1,relearn,23,383,A,55.69329479672432,81.4228657224312,2.784664739836216,1.2789873839390902,A,880,Correct
1,relearn,23,384,A,42.017378646764676,71.94936794387077,2.100868932338234,1.1301780288144667,A,639,Correct
1,relearn,23,385,B,56.077315346612956,32.414930207955194,2.8038657673306475,0.5091725330396896,B,656,Incorrect
1,relearn,23,386,B,55.04168235432489,43.583433245468285,2.7520841177162447,0.6846069685109215,B,1365,Incorrect
1,relearn,23,387,B,48.31497126942439,25.69651918976828,2.4157485634712197,0.4036399795470259,B,980,Incorrect
1,relearn,23,388,A,26.955154405605256,37.71840659067136,1.3477577202802626,0.59247934525183,A,706,Incorrect
1,relearn,23,389,A,33.15575021241826,42.09623851037247,1.6577875106209132,0.6612461682397496,B,1311,Correct
1,relearn,23,390,B,76.87622323092874,49.995859764754165,3.843811161546437,0.7853331287342861,B,867,Incorrect
1,relearn,23,391,B,37.541017300609525,15.678822684417664,1.8770508650304762,0.24628237081151766,B,1168,Correct
1,relearn,23,392,B,68.44933878405129,48.918652319164906,3.4224669392025646,0.7684123937470089,B,968,Incorrect
1,relearn,23,393,B,61.4455409268093,41.11599563979489,3.0722770463404654,0.645848549235048,B,1005,Incorrect
1,relearn,23,394,B,84.01271908489754,64.67723383693365,4.200635954244877,1.0159476133830998,B,898,Incorrect
1,relearn,23,395,A,44.12887602536343,51.57099397670292,2.2064438012681715,0.8100752790776669,B,1031,Incorrect
1,relearn,23,396,B,60.29984867115659,49.89442726971386,3.0149924335578295,0.7837398308280166,B,6020,Correct
1,relearn,23,397,B,63.45665485408699,43.9851498988722,3.1728327427043497,0.6909171189467136,A,1273,Incorrect
1,relearn,23,398,B,70.94862757163001,59.98715682817705,3.547431378581501,0.9422760560056991,B,2407,Correct
1,relearn,23,399,B,60.51569775819978,41.874766004414695,3.025784887909989,0.6577672862513041,B,1050,Incorrect
1,relearn,23,400,A,25.44753546278455,39.1552257711498,1.2723767731392275,0.6150488481614698,B,2497,Incorrect
1,relearn,23,401,B,45.08691546679296,25.016031469683583,2.254345773339648,0.3929509034356451,B,2566,Incorrect
1,relearn,23,402,A,51.416444207719486,69.4695927513699,2.570822210385974,1.0912258111778923,B,1130,Incorrect
1,relearn,23,403,B,67.94521921837645,43.90457884000508,3.3972609609188225,0.6896515117135692,B,1309,Correct
1,relearn,23,404,B,63.92752700871823,35.43606995711401,3.1963763504359117,0.5566284852468167,B,781,Correct
1,relearn,23,405,A,61.298551548854476,77.04115627404373,3.0649275774427234,1.2101596528729948,A,1448,Incorrect
1,relearn,23,406,B,52.234227771591755,23.390217420361537,2.6117113885795877,0.3674126760683791,B,878,Incorrect
1,relearn,23,407,B,84.51113778160611,65.29169130282048,4.2255568890803055,1.025599488686967,B,3650,Incorrect
1,relearn,23,408,A,63.103975314374374,75.8660539438251,3.1551987657187186,1.1917011886338393,B,1045,Incorrect
1,relearn,23,409,B,62.9084132371309,31.91743200754593,3.1454206618565452,0.5013578495817901,B,890,Correct
1,relearn,23,410,A,15.55146722811211,39.75632175971292,0.7775733614056054,0.6244908418703307,A,672,Incorrect
1,relearn,23,411,B,75.04900014095304,57.83059007747431,3.752450007047652,0.9084007847007805,B,1431,Incorrect
1,relearn,23,412,B,56.30014264351182,37.40923621071278,2.815007132175591,0.5876229082799027,B,2585,Incorrect
1,relearn,23,413,A,30.455732104116542,51.71297944687882,1.5227866052058272,0.8123055816277724,B,3950,Correct
1,relearn,23,414,B,48.0822349267208,38.4527004034499,2.40411174633604,0.6040136054908374,A,1213,Correct
1,relearn,23,415,B,41.2854363631465,17.891742490033526,2.064271818157325,0.2810428338330484,B,1111,Correct
1,relearn,23,416,B,65.7250833384412,39.47818789705086,3.2862541669220597,0.6201219253720622,B,880,Incorrect
1,relearn,23,417,A,55.34702543170895,68.6353211724998,2.7673512715854476,1.0781211038615068,B,1740,Correct
1,relearn,23,418,A,30.767621642290447,45.86070196183169,1.5383810821145223,0.7203782218588073,B,1004,Incorrect
1,relearn,23,419,A,33.37932786748389,53.71940945896573,1.6689663933741943,0.8438225105573439,B,2684,Incorrect
1,relearn,23,420,B,76.66728883978041,47.36000625531354,3.833364441989021,0.7439292386282984,A,2967,Incorrect
1,relearn,23,421,A,45.603289519385406,64.1775889107181,2.2801644759692703,1.0080992092350887,A,686,Correct
1,relearn,23,422,A,22.975912257166062,38.15195057509443,1.148795612858303,0.5992894382341878,A,733,Incorrect
1,relearn,23,423,A,27.01904799972009,37.77867915184042,1.3509523999860045,0.5934261044287387,B,666,Correct
1,relearn,23,424,B,59.23224902723418,39.578764019848954,2.961612451361709,0.6217017714146075,B,2541,Correct
1,relearn,23,425,A,19.198218934039446,36.8031901439873,0.9599109467019723,0.5781031589250939,A,945,Correct
1,relearn,23,426,A,68.12401262399194,84.79301350660081,3.406200631199597,1.3319255415403861,A,1250,Correct
1,relearn,23,427,A,13.94705296551033,39.938853664087745,0.6973526482755165,0.6273580463194792,A,1109,Correct
1,relearn,23,428,B,58.83944362204615,47.15816094877661,2.941972181102307,0.7407586599674084,B,885,Correct
1,relearn,23,429,B,85.74342544711871,57.09821037538906,4.287171272355936,0.8968965912422339,B,905,Incorrect
1,relearn,23,430,B,38.42317639139129,14.635330295001502,1.9211588195695644,0.2298912306881843,B,1827,Correct
1,relearn,23,431,A,42.716324391149676,53.185005159510354,2.135816219557484,0.8354281074512648,A,914,Correct
1,relearn,23,432,B,54.53803176932865,38.24406311552531,2.7269015884664323,0.6007363386357935,A,1022,Incorrect
1,relearn,23,433,A,46.39446511451042,72.35135586184585,2.319723255725521,1.1364924402641787,A,836,Incorrect
1,relearn,23,434,A,23.18878422272882,39.41111904685062,1.159439211136441,0.6190684103366934,B,1245,Correct
1,relearn,23,435,A,15.246459380082207,44.27759011050348,0.7623229690041103,0.6955107590490891,B,962,Incorrect
1,relearn,23,436,A,31.329858835727947,61.212648425152736,1.5664929417863973,0.9615260329961733,A,2352,Correct
1,relearn,23,437,B,59.93024711422757,27.495246747971045,2.996512355711378,0.4318943259603225,B,1084,Correct
1,relearn,23,438,A,54.27533700616589,81.00397012801498,2.7137668503082946,1.2724073873288948,A,1023,Correct
1,relearn,23,439,A,32.00230506178289,62.78091459181974,1.6001152530891445,0.9861603003365457,A,1960,Incorrect
1,relearn,23,440,B,55.297857765056,31.660743066104864,2.7648928882528003,0.4973257891183452,B,1758,Incorrect
1,relearn,23,441,A,45.516321562953806,72.72079076861233,2.2758160781476904,1.1422955102095647,A,1081,Correct
1,relearn,23,442,B,81.9248645159205,67.70216283698883,4.096243225796025,1.0634630870041202,B,3678,Correct
1,relearn,23,443,B,74.75644091387416,47.83537416661566,3.737822045693708,0.7513963003177936,A,1163,Correct
1,relearn,23,444,A,36.12369555128881,48.76919952208376,1.8061847775644406,0.7660647947001659,A,664,Correct
1,relearn,23,445,A,21.901335652456034,47.92711114703958,1.0950667826228015,0.7528373014366052,A,695,Incorrect
1,relearn,23,446,A,58.43059873308253,81.76890470331985,2.9215299366541267,1.2844229515401675,A,919,Incorrect
1,relearn,23,447,B,71.21722421277457,50.19749337481195,3.5608612106387283,0.7885003820746576,B,961,Incorrect
1,relearn,23,448,B,44.6665984980026,29.077342670901036,2.23332992490013,0.4567458306040785,A,2090,Incorrect
1,relearn,23,449,A,35.87145596973526,67.690359388275,1.7935727984867629,1.063277678865288,A,2646,Incorrect
1,relearn,23,450,B,82.58522489312924,54.41340211933154,4.129261244656462,0.8547237217745963,B,3151,Correct
1,relearn,23,451,A,16.89214883712942,36.75926717417552,0.8446074418564709,0.5774132185286712,A,3477,Incorrect
1,relearn,23,452,A,56.47956891605565,83.56991576306768,2.823978445802782,1.3127131671118564,A,2795,Correct
1,relearn,23,453,B,73.68697969477196,41.722975878848025,3.6843489847385977,0.6553829725344655,B,1961,Correct
1,relearn,23,454,B,43.39165230511637,34.675107311679334,2.1695826152558184,0.5446753119640475,A,1142,Correct
1,relearn,23,455,B,64.32404840858965,34.2986108714616,3.2162024204294823,0.5387613197105938,A,1505,Incorrect
1,relearn,23,456,B,56.902419927375185,39.0080789975892,2.845120996368759,0.6127374720473827,B,2241,Correct
1,relearn,23,457,A,61.90885529627524,79.48266930923296,3.095442764813762,1.2485108499479658,A,984,Correct
1,relearn,23,458,B,46.04102789700457,16.863463600989295,2.3020513948502286,0.2648906668147343,A,3670,Incorrect
1,relearn,23,459,A,51.696224402037814,67.58109411391086,2.584811220101891,1.061561343949114,A,734,Incorrect
1,relearn,23,460,A,42.449233550457755,69.5341294828204,2.122461677522888,1.0922395517849501,A,1494,Correct
1,relearn,23,461,B,56.05072262751363,30.608359569059687,2.8025361313756814,0.4807949878029638,B,1091,Correct
1,relearn,23,462,B,47.839334015127,23.047764668501667,2.3919667007563503,0.3620334408211561,B,2079,Incorrect
1,relearn,23,463,B,59.163896893213156,32.05340786128281,2.9581948446606576,0.5034937532976169,B,1020,Correct
1,relearn,23,464,A,22.9633286922902,50.09151967975899,1.1481664346145102,0.7868357511653971,B,1375,Incorrect
1,relearn,23,465,B,43.539741806502306,17.405900404783477,2.1769870903251154,0.2734112442039169,B,987,Incorrect
1,relearn,23,466,B,69.48406972644003,40.629397041338216,3.474203486322001,0.638205076324255,B,801,Incorrect
1,relearn,23,467,B,39.61921190998039,25.250426585137415,1.9809605954990195,0.39663277329938046,A,2152,Incorrect
1,relearn,23,468,A,43.98923309235148,61.64956298398013,2.199461654617574,0.9683890708374662,B,6133,Incorrect
1,relearn,23,469,A,31.036148992658415,60.66644141312575,1.5518074496329208,0.9529462333145572,B,2917,Correct
1,relearn,23,470,B,78.75233571649352,53.08645692681105,3.937616785824676,0.833880115431903,B,739,Correct
1,relearn,23,471,B,44.9318972188647,29.593887854494923,2.246594860943235,0.46485970337420734,A,1800,Incorrect
1,relearn,23,472,B,67.65953563887389,36.84266179877962,3.3829767819436944,0.5787231782286969,B,1890,Incorrect
1,relearn,23,473,A,46.558173562465605,70.45386767081706,2.3279086781232805,1.1066867654581316,A,1755,Incorrect
1,relearn,23,474,B,35.64240690592696,22.135447494135533,1.782120345296348,0.34770279615749394,B,1344,Correct
1,relearn,23,475,A,16.302637732902358,36.58405760952809,0.8151318866451178,0.574661033122996,B,863,Correct
1,relearn,23,476,A,34.314961168944706,66.4157136891193,1.7157480584472353,1.0432555910433012,A,997,Incorrect
1,relearn,23,477,B,84.60352606134148,66.29075029832964,4.230176303067074,1.041292670690939,B,2978,Incorrect
1,relearn,23,478,A,56.047387100878595,74.65373162469699,2.80236935504393,1.1726580741760604,A,1428,Incorrect
1,relearn,23,479,B,59.680620780488006,39.71331934799834,2.9840310390244,0.6238153615666849,B,4014,Correct
1,relearn,23,480,A,36.3479846276977,67.94275541534891,1.817399231384885,1.0672423063875414,B,1306,Correct
1,relearn,23,481,B,71.09866326750955,37.934409788348546,3.5549331633754777,0.5958723155467027,A,967,Correct
1,relearn,23,482,A,38.51659179122422,65.1380639525513,1.925829589561211,1.0231863159119865,B,945,Incorrect
1,relearn,23,483,B,41.8752632126193,13.605661570447271,2.093763160630965,0.21371723218473057,B,1199,Correct
1,relearn,23,484,B,82.81269126190504,65.34951305414488,4.140634563095253,1.0265077506328593,A,895,Correct
1,relearn,23,485,A,58.03265492821893,83.43854481936997,2.901632746410946,1.3106495971537768,A,903,Incorrect
1,relearn,23,486,B,75.46307184663769,51.50353035060512,3.7731535923318846,0.8090155629169999,A,1618,Incorrect
1,relearn,23,487,B,70.30274505283752,58.16927635135414,3.515137252641876,0.9137208562502434,B,2229,Incorrect
1,relearn,23,488,A,19.22191750066994,33.7305306815417,0.961095875033497,0.5298379369540827,A,1746,Incorrect
1,relearn,23,489,A,28.411626154064905,45.95834554609612,1.4205813077032452,0.7219120036937838,B,1360,Incorrect
1,relearn,23,490,B,82.29372975559134,56.42326113166094,4.114686487779568,0.8862945133140226,A,1525,Correct
1,relearn,23,491,B,82.70677616644213,57.90656581067027,4.135338808322106,0.9095942087270781,A,895,Correct
1,relearn,23,492,B,84.74197013420074,64.74881229982998,4.237098506710037,1.0170719652490516,B,1783,Correct
1,relearn,23,493,B,64.40506808522483,48.6158367522259,3.220253404261241,0.7636557779445678,A,2065,Correct
1,relearn,23,494,A,35.90357288188918,52.654083498927,1.795178644094459,0.827088409508663,A,944,Incorrect
1,relearn,23,495,B,43.02586086006849,18.20559533070644,2.1512930430034247,0.28597282272588,B,1016,Correct
1,relearn,23,496,A,31.397097094016694,60.86656149773896,1.5698548547008346,0.9560897122528403,A,722,Correct
1,relearn,23,497,A,35.056634600650646,52.983065158463624,1.7528317300325325,0.8322560413324933,A,664,Correct
1,relearn,23,498,A,34.2207616355119,60.52713052733864,1.711038081775595,0.9507579430377878,A,1392,Incorrect
1,relearn,23,499,A,34.70988615662704,46.77299203136241,1.7354943078313523,0.7347084407607105,B,1608,Correct
1,relearn,23,500,B,32.79412679313582,18.782071942668207,1.639706339656791,0.2950280961714071,A,1359,Correct
1,relearn,23,501,B,62.92064962452941,31.9193177098796,3.1460324812264706,0.5013874701247817,B,1918,Correct
1,relearn,23,502,B,76.56105866069638,62.51748563510808,3.828052933034819,0.9820223679608049,A,1039,Incorrect
1,relearn,23,503,B,46.389062491750266,21.33530379191159,2.3194531245875134,0.3351341682738795,B,1013,Correct
1,relearn,23,504,A,59.80742085103604,72.86262102655283,2.990371042551802,1.1445233746915777,B,2828,Incorrect
1,relearn,23,505,B,44.33826204466102,33.47449340938427,2.216913102233051,0.5258161128878078,A,1892,Correct
1,relearn,23,506,B,55.90010842005114,36.136178155465004,2.795005421002557,0.5676257591101042,A,1022,Incorrect
1,relearn,23,507,B,55.73393242416626,26.120167806459982,2.7866966212083133,0.41029463645653647,B,1339,Incorrect
1,relearn,23,508,A,42.60873744873402,54.33354716857751,2.130436872436701,0.8534693631413881,B,1032,Correct
1,relearn,23,509,B,89.7750820952606,67.90010841339942,4.4887541047630295,1.0665724088474304,B,1116,Correct
1,relearn,23,510,B,61.441974588733046,37.19345920373503,3.0720987294366524,0.5842334909802284,B,1294,Correct
1,relearn,23,511,B,53.94576447092032,23.38373210902495,2.697288223546016,0.36731080503612273,B,848,Incorrect
1,relearn,23,512,A,43.44996799945628,53.108519896661036,2.172498399972814,0.8342266797518884,B,1996,Incorrect
1,relearn,23,513,B,40.81839512078404,13.709998756660376,2.040919756039202,0.2153561568732472,B,1751,Correct
1,relearn,23,514,A,34.87560982510662,53.473000022870906,1.743780491255331,0.8399519201862904,A,1387,Correct
1,relearn,23,515,A,60.01912725709874,73.34811779376534,3.000956362854937,1.1521495400776598,A,1779,Correct
1,relearn,23,516,A,58.44274675113513,86.36739055527511,2.9221373375567565,1.3566557983908638,A,1030,Correct
1,relearn,23,517,B,55.13918028734142,33.717160164067536,2.7569590143670712,0.529627913356725,B,1237,Incorrect
1,relearn,23,518,A,37.48901406334438,58.606512727727115,1.8744507031672188,0.920588949189721,A,1248,Correct
1,relearn,23,519,A,15.278079312850018,32.145635480745554,0.763903965642501,0.5049424613564282,A,983,Correct
1,relearn,23,520,B,72.1525971262559,55.067608424417244,3.607629856312795,0.8649999703845432,B,2706,Incorrect
1,relearn,23,521,B,62.93646039592886,48.171028668599675,3.146823019796443,0.7566687489056803,B,1164,Incorrect
1,relearn,23,522,B,65.85570505722431,53.49863255630085,3.292785252861216,0.8403545550798723,B,2996,Incorrect
1,relearn,23,523,A,28.813944823618215,57.742036762980376,1.4406972411809107,0.9070097924894547,A,1047,Incorrect
1,relearn,23,524,B,80.6575285008842,59.00394189134502,4.03287642504421,0.9268317518934429,B,2036,Correct
1,relearn,23,525,B,80.1992229165133,66.59613189381339,4.009961145825665,1.0460895935755055,B,980,Incorrect
1,relearn,23,526,B,37.70188681586436,28.57563467030723,1.8850943407932181,0.448865019759515,A,1916,Correct
1,relearn,23,527,B,76.80519069136378,65.0876781010429,3.840259534568189,1.022394856807268,B,1184,Incorrect
1,relearn,23,528,B,79.08047674250382,56.83956246951876,3.9540238371251912,0.8928337594374914,B,1459,Incorrect
1,relearn,23,529,A,49.96941723439946,78.41695621826813,2.498470861719973,1.231770667860918,A,1566,Correct
1,relearn,23,530,B,69.84696535978823,38.69304564271918,3.4923482679894113,0.6077889396809056,B,1278,Correct
1,relearn,23,531,B,52.791222751460325,22.377690870803825,2.6395611375730166,0.35150794622010334,B,4453,Incorrect
1,relearn,23,532,A,24.060360438045226,47.37330909882084,1.2030180219022613,0.7441381992054701,B,1509,Incorrect
1,relearn,23,533,A,41.357494689309156,59.27133076639878,2.067874734465458,0.9310318865210454,B,852,Incorrect
1,relearn,23,534,B,79.92850335122722,56.19084969946365,3.996425167561361,0.8826438030740162,B,3503,Correct
1,relearn,23,535,B,44.407437531443854,15.558934045322488,2.2203718765721927,0.24439916447236626,A,1334,Correct
1,relearn,23,536,A,29.1924505036638,58.48713892570514,1.4596225251831898,0.9187138298924045,B,729,Correct
1,relearn,23,537,B,74.88068166600362,43.89925665874226,3.744034083300181,0.6895679110857875,A,1416,Incorrect
1,relearn,23,538,B,59.983166348969796,44.95947998355839,2.9991583174484897,0.706221860127822,A,1488,Incorrect
1,relearn,23,539,A,38.11165005629089,54.02695131878348,1.9055825028145446,0.8486533667947177,A,1991,Correct
1,relearn,23,540,A,31.708236792294436,43.88699390553461,1.5854118396147217,0.6893752882088378,A,1155,Incorrect
1,relearn,23,541,B,51.683093167459965,30.2157163049772,2.5841546583729986,0.47462736183334847,A,2760,Correct
1,relearn,23,542,B,75.33766846368535,55.41914810195233,3.7668834231842676,0.8705219427264909,B,914,Incorrect
1,relearn,23,543,B,68.052023945934,39.546310363189285,3.4026011972967,0.6211919905678868,B,4067,Incorrect
1,relearn,23,544,A,38.87422187107221,55.927222852085805,1.9437110935536106,0.8785027622389598,A,943,Correct
1,relearn,23,545,B,53.702396254877485,46.33767617528577,2.6851198127438742,0.7278705152835029,A,891,Correct
1,relearn,23,546,B,37.50978495327017,22.031535806485216,1.8754892476635086,0.34607055518477214,B,1286,Incorrect
1,relearn,23,547,A,54.71661534548924,62.68507746400414,2.735830767274462,0.9846548942531125,B,771,Correct
1,relearn,23,548,A,63.279833010459015,82.71843989020653,3.163991650522951,1.2993382153774087,A,938,Incorrect
1,relearn,23,549,B,33.517881214741806,19.88928953694165,1.6758940607370902,0.3124202294718811,B,804,Correct
1,relearn,23,550,A,45.77595154631519,67.32153430560422,2.2887975773157594,1.0574841880143973,A,848,Incorrect
1,relearn,23,551,A,10.146069969752041,31.99618236151055,0.507303498487602,0.5025948572492044,A,3320,Correct
1,relearn,23,552,B,50.87613530559449,31.91948467213377,2.5438067652797245,0.5013900927617373,B,900,Correct
1,relearn,23,553,A,53.29752457628849,74.76806883992863,2.6648762288144248,1.1744540789530784,A,2000,Incorrect
1,relearn,23,554,A,42.00546183241861,52.122166988734804,2.1002730916209305,0.8187330845049486,A,1198,Incorrect
1,relearn,23,555,B,79.30514181818529,65.12737981482451,3.9652570909092644,1.0230184898690242,B,2875,Correct
1,relearn,23,556,A,24.439548720654606,46.357669095120755,1.2219774360327305,0.7281845633338897,B,1056,Incorrect
1,relearn,23,557,B,35.96374686548238,23.665530356315134,1.798187343274119,0.37173728155352925,B,1804,Incorrect
1,relearn,23,558,B,50.7936106056611,34.645531623028894,2.5396805302830554,0.5442107381331022,B,2300,Incorrect
1,relearn,23,559,B,55.77618367852795,41.70795749282083,2.7888091839263973,0.6551470642784064,B,2603,Incorrect
1,relearn,23,560,B,75.91986783822865,61.02924047058976,3.7959933919114324,0.9586450675828484,B,892,Correct
1,relearn,23,561,A,49.10149089551174,71.68421981682617,2.455074544775587,1.126013091774285,A,908,Correct
1,relearn,23,562,A,36.83099956745288,50.65671625111508,1.8415499783726437,0.795713838147429,A,539,Correct
1,relearn,23,563,A,38.98958675431152,47.190900115439355,1.949479337715576,0.74127292559477,A,506,Correct
1,relearn,23,564,A,26.070746265069047,48.5609404920029,1.3035373132534522,0.7627934695054372,B,906,Incorrect
1,relearn,23,565,B,34.440450583012186,14.803730864092323,1.7220225291506095,0.23253646064176461,A,1882,Incorrect
1,relearn,23,566,A,29.99817883036094,39.29640429116435,1.4999089415180469,0.6172664751680818,A,1915,Correct
1,relearn,23,567,B,48.14952414534428,30.455693629638333,2.407476207267214,0.4783969168342662,B,765,Correct
1,relearn,23,568,A,45.062956634164195,77.33127139375247,2.25314783170821,1.2147167705168564,A,2785,Correct
1,relearn,23,569,A,34.64416495487635,61.74373314942822,1.7322082477438174,0.9698682923372616,A,3826,Incorrect
1,relearn,23,570,A,30.269574616479765,58.03112874749711,1.513478730823988,0.9115508387633017,A,1515,Incorrect
1,relearn,23,571,A,47.43431107440931,58.64811531573171,2.3717155537204655,0.9212424411139488,B,1155,Incorrect
1,relearn,23,572,B,45.52115306159921,38.228842838077526,2.27605765307996,0.6004972590767157,B,636,Correct
1,relearn,23,573,B,48.569451548788976,38.37587901527166,2.428472577439449,0.6028068979471407,B,809,Incorrect
1,relearn,23,574,A,23.4703318079659,42.96326219917936,1.173516590398295,0.6748653444959697,B,975,Incorrect
1,relearn,23,575,A,15.553291826973723,37.71498786824026,0.7776645913486862,0.5924256440854588,A,1366,Incorrect
1,relearn,23,576,B,88.94782109007689,68.80435044213706,4.447391054503845,1.0807762094201772,B,1718,Correct
1,relearn,23,577,A,36.67232770345948,53.109183626815145,1.8336163851729739,0.8342371056007689,A,950,Correct
1,relearn,23,578,A,43.654881266041535,55.36263170897253,2.182744063302077,0.8696341853015273,B,1044,Incorrect
1,relearn,23,579,A,44.592321958318344,62.14073789488101,2.229616097915917,0.9761044282960353,A,1164,Incorrect
1,relearn,23,580,A,25.28520316725985,42.93149755131017,1.2642601583629927,0.6743663865740211,A,970,Correct
1,relearn,23,581,A,38.360392728916935,64.58860552650519,1.9180196364458468,1.014555443138389,A,728,Incorrect
1,relearn,23,582,A,53.56211968155873,62.776525404999454,2.6781059840779364,0.9860913551511966,B,797,Correct
1,relearn,23,583,A,35.75560457713873,46.52305303478338,1.7877802288569367,0.7307824081832189,A,1039,Incorrect
1,relearn,23,584,B,46.808021753485974,37.206869148943014,2.340401087674299,0.5844441339069805,B,962,Incorrect
1,relearn,23,585,B,42.80331142655609,27.575743235412144,2.1401655713278047,0.43315876182824614,A,2297,Incorrect
1,relearn,23,586,B,56.53539466793189,48.06550781736666,2.8267697333965947,0.7550112312505093,B,679,Correct
1,relearn,23,587,B,39.889207448338496,21.626826585220357,1.9944603724169248,0.3397133976029435,B,757,Correct
1,relearn,23,588,A,56.938813017668465,73.67487138883453,2.846940650883423,1.1572821735466772,A,576,Incorrect
1,relearn,23,589,B,57.876310216572094,40.56968132976564,2.8938155108286048,0.6372670641203536,A,1259,Correct
1,relearn,23,590,B,78.96453875110849,60.64168404824521,3.9482269375554244,0.9525573455364027,B,1047,Incorrect
1,relearn,23,591,A,43.96292041907898,63.50280700936615,2.198146020953949,0.9974997599147756,A,1085,Correct
1,relearn,23,592,B,50.621499392039254,22.367878895006644,2.5310749696019625,0.35135382006469523,B,1354,Correct
1,relearn,23,593,B,72.77554557708063,44.419668241470795,3.6387772788540316,0.6977425171115025,A,895,Correct
1,relearn,23,594,B,42.604214241894525,33.16347056241341,2.1302107120947262,0.5209305774320966,A,835,Correct
1,relearn,23,595,A,33.778532951908815,61.54459132847778,1.6889266475954405,0.9667401799286595,A,892,Correct
1,relearn,23,596,B,49.18743692762763,29.586284122622146,2.4593718463813814,0.4647402642332504,A,953,Correct
1,relearn,23,597,B,48.355225391221865,31.412434198792877,2.417761269561093,0.49342536255150243,A,612,Correct
1,relearn,23,598,B,81.93737707739746,67.20169133956374,4.096868853869873,1.0556016991059114,B,1014,Correct
1,relearn,23,599,B,61.627021889889285,49.44507173379156,3.081351094494464,0.7766813705754996,A,1988,Incorrect
1,relearn,23,600,A,67.2469412141011,87.70588811181199,3.3623470607050545,1.3776808688431845,B,865,Incorrect
1,relearn,23,601,A,31.874308968422167,55.91221514190657,1.5937154484211085,0.8782670216787284,A,1811,Correct
1,relearn,23,602,A,17.59931967820265,44.86492621378536,0.8799659839101325,0.704736612985381,A,1036,Correct
1,relearn,23,603,A,26.38755095326158,41.36574259519435,1.3193775476630791,0.6497715652367447,A,2067,Correct
1,relearn,23,604,A,15.748791437360108,34.72294259471039,0.7874395718680054,0.5454267068328112,A,1233,Correct
1,relearn,23,605,A,57.71380289175603,78.67123023023281,2.8856901445878016,1.2357647947008532,B,1031,Incorrect
1,relearn,23,606,A,38.12558706060892,49.0483088741161,1.906279353030446,0.7704490341496311,A,1105,Correct
1,relearn,23,607,B,43.15010056896742,35.494151944667856,2.1575050284483708,0.557540834973842,A,718,Incorrect
1,relearn,23,608,B,54.99298557112086,39.04318486071897,2.749649278556043,0.6132889136559149,A,973,Incorrect
1,relearn,23,609,A,39.01476576201647,46.974510490605915,1.9507382881008233,0.7378738853163211,A,650,Correct
1,relearn,23,610,B,64.4090594638634,37.97225599987715,3.22045297319317,0.596466802447225,B,1312,Correct
1,relearn,23,611,A,59.70865325321765,77.5905229608226,2.9854326626608825,1.2187890846095522,A,755,Correct
1,relearn,23,612,A,66.93194887729841,82.1702303946858,3.3465974438649204,1.2907269607586283,A,935,Correct
1,relearn,23,613,A,30.664373710970416,61.89800173351232,1.5332186855485208,0.9722915375894529,A,1131,Correct
1,relearn,23,614,A,28.20896929763562,46.18651535180672,1.410448464881781,0.725496086620741,A,552,Correct
1,relearn,23,615,B,46.41264923700505,21.463824406533412,2.3206324618502525,0.33715296536753336,B,1429,Correct
1,relearn,23,616,A,23.39251755207317,55.27875630915695,1.1696258776036585,0.8683166736021396,A,780,Correct
1,relearn,23,617,A,39.90908904938649,71.01401195370961,1.9954544524693245,1.1154854912785592,A,695,Correct
1,relearn,23,618,B,69.92722512005071,40.90222322442233,3.4963612560025354,0.6424906199866751,B,1492,Correct
1,relearn,23,619,A,64.97651287083636,75.63364877334705,3.248825643541818,1.1880505767526888,A,865,Correct
1,relearn,23,620,B,67.09730391985113,58.46835441520321,3.3548651959925566,0.9184187634914338,B,750,Correct
1,relearn,23,621,A,42.57160623078691,60.82811961158215,2.128580311539346,0.9554858685171386,A,1250,Correct
1,relearn,23,622,B,58.23437280665102,30.059259484504757,2.9117186403325506,0.4721697438443473,B,1797,Correct
1,relearn,23,623,B,79.77936485281845,56.320269124837814,3.9889682426409223,0.8846767186539526,B,909,Correct
1,relearn,23,624,A,12.951981870407913,30.728308507059097,0.6475990935203956,0.48267914131508804,A,763,Correct
1,relearn,23,625,A,51.39743458549931,64.73298859073392,2.5698717292749653,1.016823407007808,A,772,Correct
1,relearn,23,626,A,38.83617595146927,53.911503408387766,1.9418087975734637,0.8468399152588605,A,706,Correct
1,relearn,23,627,A,59.985128504571634,75.22074439467767,2.999256425228582,1.1815646899393748,B,2203,Incorrect
1,relearn,23,628,B,46.14265375465114,21.287226786475372,2.3071326877325573,0.33437897643845443,B,1556,Correct
1,relearn,23,629,B,64.68906184745993,41.53307405842347,3.234453092372996,0.6524000017147199,A,1434,Incorrect
1,relearn,23,630,A,32.71526521544465,42.15348834056715,1.6357632607722326,0.6621454464695437,A,811,Correct
1,relearn,23,631,A,59.486932712277344,79.3168369204015,2.9743466356138675,1.245905960875565,B,1184,Incorrect
1,relearn,23,632,B,76.70083205839164,53.95911460325082,3.835041602919582,0.8475877901589126,B,601,Correct
1,relearn,23,633,B,80.26015820726823,56.25419625350545,4.013007910363411,0.8836388484180558,B,639,Correct
1,relearn,23,634,A,18.815402817023156,37.62100282653606,0.9407701408511577,0.5909493305026327,A,560,Correct
1,relearn,23,635,A,22.716299099768936,43.29741958815647,1.1358149549884466,0.6801142764877359,A,659,Correct
1,relearn,23,636,B,39.329303675086905,18.930681577460085,1.9664651837543454,0.29736245085598123,B,1180,Correct
1,relearn,23,637,A,41.70623647420175,61.729052671316126,2.0853118237100876,0.9696376919263207,A,689,Correct
1,relearn,23,638,B,73.38310517145071,56.27527798660598,3.6691552585725358,0.8839699995072238,B,1358,Correct
1,relearn,23,639,B,83.88676640021303,63.9798022909009,4.194338320010652,1.0049923842761084,B,580,Correct
1,relearn,23,640,B,47.47691923930197,27.073310868608342,2.3738459619650985,0.4252665726658633,A,729,Incorrect
1,relearn,23,641,A,50.04931005388545,65.18391422635774,2.5024655026942724,1.0239065303287636,A,775,Correct
1,relearn,23,642,B,83.41614898529171,63.79707327028572,4.1708074492645855,1.0021220835322968,B,659,Correct
1,relearn,23,643,A,14.515462762029621,30.825221024208155,0.725773138101481,0.4842014395746699,A,713,Correct
1,relearn,23,644,B,61.38861323922443,53.84826565232963,3.069430661961222,0.8458465789095517,B,817,Correct
1,relearn,23,645,B,39.667570237474294,27.218152478954064,1.9833785118737148,0.4275417393608445,A,909,Incorrect
1,relearn,23,646,B,52.33432905108251,43.414660063955125,2.6167164525541255,0.681955885575098,A,1092,Incorrect
1,relearn,23,647,B,30.88750441436676,15.746850920321421,1.5443752207183379,0.24735095584227726,B,978,Correct
1,relearn,23,648,B,62.80287895001519,54.617808752485516,3.1401439475007593,0.8579345336599041,B,636,Correct
1,relearn,23,649,A,15.317882296588433,38.1048666797396,0.7658941148294217,0.598549846135442,A,673,Correct
1,relearn,23,650,B,37.163545281879635,15.989111613162624,1.8581772640939818,0.25115637790669476,B,700,Correct
1,relearn,23,651,B,58.802004607821864,47.84501732091035,2.9401002303910935,0.7515477746312418,B,708,Correct
1,relearn,23,652,B,71.17567466665628,48.509426524941794,3.558783733332814,0.7619842900030548,B,665,Correct
1,relearn,23,653,A,15.585099758821219,42.42192942093905,0.7792549879410609,0.6663621090996342,A,708,Correct
1,relearn,23,654,A,30.50628860146627,61.825349644391046,1.5253144300733135,0.9711503212421962,B,3460,Incorrect
1,relearn,23,655,B,52.87099515078788,45.36031307482311,2.6435497575393936,0.7125181316019867,B,643,Correct
1,relearn,23,656,A,30.66721088414438,61.74031321498957,1.533360544207219,0.9698145721327202,A,865,Correct
1,relearn,23,657,A,41.58069698368225,72.52671486184194,2.079034849184113,1.1392469729948216,A,830,Correct
1,relearn,23,658,A,22.511031044794034,39.63418289302004,1.1255515522397017,0.6225722890387301,A,678,Correct
1,relearn,23,659,B,58.08861059953284,37.202411032343825,2.904430529976642,0.584374105975196,B,891,Correct
1,relearn,23,660,A,16.22863132412581,31.95528201554033,0.8114315662062905,0.5019523961170578,A,730,Correct
1,relearn,23,661,A,56.21934856057672,79.0683966852214,2.8109674280288357,1.2420034707870755,B,2679,Incorrect
1,relearn,23,662,B,87.56017141251175,63.974974681558635,4.378008570625587,1.004916552365888,B,603,Correct
1,relearn,23,663,B,42.89185701224319,27.741058775634286,2.1445928506121597,0.4357555322616767,B,1338,Correct
1,relearn,23,664,B,81.44816431454264,52.04161825499031,4.0724082157271315,0.81746782795401,B,670,Correct
1,relearn,23,665,A,36.002417789191966,53.239831596999544,1.8001208894595981,0.8362893191174576,A,1607,Correct
1,relearn,23,666,B,38.65177605826885,12.869562038518954,1.9325888029134426,0.20215460777564612,B,819,Correct
1,relearn,23,667,A,31.313618358930228,40.07904938616829,1.5656809179465114,0.629560235572244,A,552,Correct
1,relearn,23,668,A,11.424243932563897,31.9773309466891,0.5712121966281949,0.5022987399176402,A,687,Correct
1,relearn,23,669,B,58.81660569572935,31.77609717574959,2.9408302847864674,0.49913776723545145,B,769,Correct
1,relearn,23,670,A,42.135018824523556,60.40563142023653,2.106750941226178,0.9488494395263393,A,981,Correct
1,relearn,23,671,A,28.670447331615208,55.98122589451512,1.4335223665807604,0.8793510400457969,A,572,Correct
1,relearn,23,672,A,59.12295069746355,83.6989373367619,2.956147534873178,1.3147398332522182,A,1259,Correct
1,relearn,23,673,A,25.249619608331678,51.682217380153716,1.2624809804165837,0.8118223722136081,A,764,Correct
1,relearn,23,674,B,69.49732848992282,39.72900711049602,3.4748664244961414,0.6240617843637547,B,605,Correct
1,relearn,23,675,B,30.015307863183647,12.742263810413231,1.5007653931591824,0.20015501188448645,B,942,Correct
1,relearn,23,676,A,22.173580429038093,36.033760634870944,1.1086790214519047,0.5660169884586183,A,671,Correct
1,relearn,23,677,A,13.868180980809154,35.506928927715634,0.6934090490404577,0.5577415353542318,A,620,Correct
1,relearn,23,678,B,52.32327174004803,33.44755100774172,2.6161635870024016,0.5253929026324564,B,743,Correct
1,relearn,23,679,B,63.88924380588019,49.77667781503739,3.1944621902940096,0.7818902267191374,B,619,Correct
1,relearn,23,680,A,66.9409621685289,83.60509666589871,3.347048108426445,1.3132657874412594,A,798,Correct
1,relearn,23,681,A,12.866444630675485,41.10659300583487,0.6433222315337743,0.645700853006182,A,706,Correct
1,relearn,23,682,B,69.07908422734212,42.22512422735314,3.4539542113671065,0.6632707003478451,B,575,Correct
1,relearn,23,683,B,48.10950341581023,39.73760128697769,2.4054751707905115,0.6241967813722471,B,968,Correct
1,relearn,23,684,A,22.300795134123025,38.92503034553887,1.1150397567061512,0.6114329468715234,A,527,Correct
1,relearn,23,685,B,64.90031342002004,50.29277812275295,3.245015671001002,0.7899971113953108,B,610,Correct
1,relearn,23,686,A,51.875285765615125,63.48304242028299,2.5937642882807563,0.9971892984754512,B,2005,Incorrect
1,relearn,23,687,B,53.28379302565074,33.59658528401908,2.664189651282537,0.5277339275698865,B,542,Correct
1,relearn,23,688,A,44.505036221014024,58.99180326378791,2.2252518110507014,0.9266410787776523,A,592,Correct
1,relearn,23,689,A,63.83955020112056,74.80888838647681,3.191977510056028,1.1750952708908717,B,1202,Incorrect
1,relearn,23,690,A,35.02192032477669,62.03258756692642,1.7510960162388343,0.974405606917108,A,913,Correct
1,relearn,23,691,B,64.53758730687746,49.898759961735315,3.2268793653438728,0.7838078885951408,B,818,Correct
1,relearn,23,692,A,56.64473995991663,78.43551892357291,2.8322369979958313,1.2320622501539995,A,989,Correct
1,relearn,23,693,B,56.17012834919297,25.058741898755823,2.8085064174596486,0.3936217972866702,B,617,Correct
1,relearn,23,694,A,28.80199410661872,58.23012549525914,1.4400997053309361,0.9146766723675891,A,664,Correct
1,relearn,23,695,B,67.51394337677199,44.859233965891235,3.3756971688385993,0.7046471993645481,B,610,Correct
1,relearn,23,696,A,21.68941314964342,46.25916582034681,1.0844706574821712,0.7266372775119679,A,578,Correct
1,relearn,23,697,A,54.222913515320315,75.29498186879637,2.7111456757660157,1.1827308094559368,A,1663,Correct
1,relearn,23,698,B,48.00215614175044,21.74883357174516,2.400107807087522,0.3416298788657083,B,564,Correct
1,relearn,23,699,A,47.575942621072635,64.48333248895528,2.378797131053632,1.0129018181314497,A,664,Correct
1,relearn,23,700,B,75.2167635013237,49.36621484011042,3.7608381750661852,0.7754426893861318,B,572,Correct
1,relearn,23,701,B,63.921480736930114,33.12104298852234,3.1960740368465057,0.5202641266598675,B,548,Correct
1,relearn,23,702,A,43.16107189746364,54.28556576577734,2.158053594873182,0.8527156730286584,A,829,Correct
1,relearn,23,703,B,81.53563097220439,68.02517827442655,4.076781548610219,1.0685370016303724,B,815,Correct
1,relearn,23,704,A,35.52903966921032,53.62559541977034,1.776451983460516,0.8423488830756448,A,651,Correct
1,relearn,23,705,A,47.221382844924165,76.21066372776608,2.3610691422462082,1.19711430646176,A,925,Correct
1,relearn,23,706,A,39.136853818599945,65.67632484833827,1.9568426909299972,1.0316412982915815,A,825,Correct
1,relearn,23,707,B,59.9288372372659,29.005363100474682,2.9964418618632953,0.4556151781557786,B,671,Correct
1,relearn,23,708,B,58.16885961482869,39.64503174742874,2.9084429807414347,0.6227427024452812,B,598,Correct
1,relearn,23,709,B,83.03781258863576,67.05643386883423,4.151890629431787,1.053320000091297,B,701,Correct
1,relearn,23,710,B,88.9244794997964,64.86937615565152,4.44622397498982,1.0189657778677386,B,725,Correct
1,relearn,23,711,A,34.247459603403925,43.472746376933074,1.7123729801701961,0.6828683032457262,A,751,Correct
1,relearn,23,712,B,39.40562389006023,16.168448290557766,1.9702811945030112,0.2539733918478136,B,1083,Correct
1,relearn,23,713,A,33.65255511157887,49.19547866103026,1.6826277555789435,0.7727607717566305,A,917,Correct
1,relearn,23,714,B,64.23902948492984,38.28540139376009,3.2119514742464923,0.6013856787918657,B,544,Correct
1,relearn,23,715,B,70.38516999622725,57.29344938957635,3.5192584998113627,0.8999633985055584,B,550,Correct
1,relearn,23,716,A,29.73316348059235,45.95506596321606,1.4866581740296174,0.7218604881263696,A,1199,Correct
1,relearn,23,717,A,51.39022425152253,74.5419068474912,2.569511212576127,1.1709015346832652,A,898,Correct
1,relearn,23,718,A,63.55012704674317,80.99182910516544,3.1775063523371587,1.2722166765879386,A,722,Correct
1,relearn,23,719,A,66.2254247259192,78.5219446019718,3.3112712362959598,1.2334198215356964,A,1158,Correct
1,relearn,23,720,A,34.48074557777424,44.77902899496594,1.7240372788887124,0.7033873426273468,A,1816,Correct
1,relearn,23,721,A,54.90713276487587,66.07671388100778,2.7453566382437935,1.0379305945096438,B,6308,Incorrect
1,relearn,23,722,B,38.83887488604253,21.27488041116225,1.9419437443021266,0.3341850400285436,B,759,Correct
1,relearn,23,723,A,59.459650394375004,76.53554335145813,2.97298251971875,1.20221750365722,A,904,Correct
1,relearn,23,724,B,84.98974107945116,59.96953223041017,4.249487053972558,0.9419992094713644,B,530,Correct
1,relearn,23,725,B,43.75660969960995,16.446240732011585,2.1878304849804975,0.2583369453142841,B,799,Correct
1,relearn,23,726,B,42.11380917327914,34.12323700992901,2.105690458663957,0.5360065535354815,B,693,Correct
1,relearn,23,727,B,52.04137493421076,33.44927094657372,2.602068746710538,0.5254199193684526,B,659,Correct
1,relearn,23,728,B,59.47472683965716,28.244020337949777,2.973736341982858,0.4436560340077187,B,576,Correct
1,relearn,23,729,B,59.80139603234372,30.15266081640968,2.990069801617186,0.4736368885350873,B,430,Correct
1,relearn,23,730,B,54.274287662109415,31.444069515290327,2.713714383105471,0.4939222889410143,B,433,Correct
1,relearn,23,731,B,49.690185345185256,25.469809241418915,2.484509267259263,0.4000788280058754,B,606,Correct
1,relearn,23,732,B,34.709891888504,14.850608405884522,1.7354945944252,0.23327281134632818,B,2022,Correct
1,relearn,23,733,A,40.488288697190654,54.771368486931415,2.0244144348595325,0.8603466443280161,B,1746,Incorrect
1,relearn,23,734,A,39.72805218627449,66.73085444688638,1.9864026093137244,1.0482058104905403,A,833,Correct
1,relearn,23,735,A,59.9596743183065,74.83951659448044,2.997983715915325,1.175576377657156,B,772,Incorrect
1,relearn,23,736,A,66.95862302622479,84.25738709442898,3.3479311513112395,1.3235119415326477,B,676,Incorrect
1,relearn,23,737,A,37.31759919871679,59.627226898098755,1.8658799599358395,0.9366222898849937,A,2301,Correct
1,relearn,23,738,A,25.866752632179733,47.302335626711496,1.2933376316089866,0.7430233505125778,A,480,Correct
1,relearn,23,739,A,29.33385187452711,51.75317914880159,1.4666925937263553,0.8129370370689577,A,584,Correct
1,relearn,23,740,A,45.9761977131869,58.01497552792278,2.298809885659345,0.9112971045835693,A,961,Correct
1,relearn,23,741,A,34.964653457753556,43.590955523925416,1.748232672887678,0.6847251281846175,A,542,Correct
1,relearn,23,742,A,64.36290813817041,79.81185805301958,3.2181454069085205,1.2536817346435885,A,1162,Correct
1,relearn,23,743,A,21.880967745639303,40.93055087553111,1.0940483872819653,0.6429355896897591,A,860,Correct
1,relearn,23,744,A,14.799086952017262,31.806817295199494,0.7399543476008631,0.4996203177433575,A,509,Correct
1,relearn,23,745,A,32.18700449980589,50.28382815512698,1.6093502249902942,0.7898565256325927,A,746,Correct
1,relearn,23,746,B,81.21826125486807,64.9505986613654,4.060913062743404,1.020241618004023,A,2664,Incorrect
1,relearn,23,747,B,69.99202466556774,55.33518222449176,3.499601233278387,0.869203009807579,B,1147,Correct
1,relearn,23,748,B,72.27625885626688,44.80046683460655,3.6138129428133436,0.7037240874249655,B,556,Correct
1,relearn,23,749,A,62.426778128756204,87.54475252838932,3.12133890643781,1.3751497570176219,A,673,Correct
1,relearn,23,750,B,85.27324025024377,65.43312303277915,4.263662012512189,1.0278210931060803,B,581,Correct
1,relearn,23,751,A,19.823229094187795,39.733354532119,0.9911614547093898,0.6241300735029189,A,633,Correct
1,relearn,23,752,B,34.31177603945502,22.784039291797498,1.715588801972751,0.3578908522910611,A,1222,Incorrect
1,relearn,23,753,B,67.57741465938548,44.60702565473464,3.3788707329692738,0.7006855204770289,B,754,Correct
1,relearn,23,754,B,36.06333408278344,25.929351410418697,1.8031667041391721,0.40729729951659754,B,720,Correct
1,relearn,23,755,B,68.35411816860206,55.408754366026166,3.4177059084301025,0.8703586783043458,B,545,Correct
1,relearn,23,756,A,67.16910808284,89.10255465119133,3.358455404142,1.3996196555413285,A,655,Correct
1,relearn,23,757,A,18.75246831597994,33.63937086068544,0.937623415798997,0.5284060018365597,A,947,Correct
1,relearn,23,758,B,34.16716254481149,11.738594064268991,1.7083581272405746,0.18438940437890108,B,737,Correct
1,relearn,23,759,B,45.91943902455994,32.72519484672199,2.295971951227997,0.5140461585887818,B,693,Correct
1,relearn,23,760,A,61.224741773908306,84.72090392935685,3.061237088695415,1.3307928469497705,A,1050,Correct
1,relearn,23,761,A,37.435562756811215,62.16765507643304,1.8717781378405607,0.9765272423951311,A,677,Correct
1,relearn,23,762,B,40.11992618012293,29.018422390678744,2.0059963090061466,0.45582031300660947,B,587,Correct
1,relearn,23,763,A,45.180141991395374,63.94133834106183,2.259007099569769,1.0043881939648962,A,2119,Correct
1,relearn,23,764,A,22.957378936176724,35.65926345208641,1.147868946808836,0.5601344004674884,A,576,Correct
1,relearn,23,765,A,63.60581219839041,83.87377041572992,3.1802906099195205,1.3174861048346704,A,981,Correct
1,relearn,23,766,A,31.389048727727566,58.49871798592933,1.5694524363863784,0.9188957133450836,A,900,Correct
1,relearn,23,767,A,48.357913701120985,68.4013216322369,2.4178956850560493,1.07444544767834,A,872,Correct
1,relearn,23,768,B,33.49771160394816,18.7674648968044,1.6748855801974083,0.2947986492315252,B,586,Correct
1,relearn,23,769,A,39.96128034821723,68.3539484150181,1.9980640174108615,1.0737013109223827,A,577,Correct
1,relearn,23,770,A,68.30773778947211,87.81751877029335,3.4153868894736057,1.3794343591261866,A,947,Correct
1,relearn,23,771,B,70.38352750257927,58.67253815285781,3.5191763751289638,0.9216260741424248,B,683,Correct
1,relearn,23,772,A,28.53807324277863,50.61859916601178,1.4269036621389315,0.7951150963747452,A,1673,Correct
1,relearn,23,773,A,59.039563279416804,79.96262437596657,2.95197816397084,1.2560499665064835,A,903,Correct
1,relearn,23,774,A,22.221963378115817,46.24911293681014,1.1110981689057908,0.726479367186637,A,541,Correct
1,relearn,23,775,A,17.807877047089523,45.16753879171035,0.8903938523544761,0.7094900402438462,A,557,Correct
1,relearn,23,776,B,63.81106963455576,42.30780858748167,3.190553481727788,0.6645695032395778,B,487,Correct
1,relearn,23,777,B,56.93589834134076,40.307552596067055,2.846794917067038,0.6331495555999422,B,605,Correct
1,relearn,23,778,A,35.431222996662996,48.33531457897368,1.7715611498331498,0.7592493459512767,A,2569,Correct
1,relearn,23,779,B,49.975889743263515,24.46706838498174,2.4987944871631758,0.3843278114656885,B,558,Correct
1,relearn,23,780,B,76.14593007902346,58.05492499239065,3.807296503951173,0.9119246293040048,B,1034,Correct
1,relearn,23,781,B,54.45017335847333,36.58393674699679,2.7225086679236665,0.574659134618794,B,577,Correct
1,relearn,23,782,B,80.23502137163241,64.18816655908608,4.011751068581621,1.0082653625471143,B,997,Correct
1,relearn,23,783,A,26.245516948959075,41.89827743004686,1.3122758474479537,0.6581366028615113,A,669,Correct
1,relearn,23,784,B,58.67844441821841,41.648261770741435,2.9339222209109206,0.6542093660687295,B,720,Correct
1,relearn,23,785,A,21.980650043960413,47.16205586654139,1.0990325021980205,0.7408198411925891,A,606,Correct
1,relearn,23,786,A,13.550776730422328,33.65659933800777,0.6775388365211163,0.5286766261255016,A,459,Correct
1,relearn,23,787,B,87.15541353433223,65.70403289781953,4.357770676716611,1.0320765353150596,B,895,Correct
1,relearn,23,788,A,18.891824444604765,48.25376703976541,0.9445912222302383,0.7579684002008015,A,517,Correct
1,relearn,23,789,B,52.91938787085126,30.758302569263442,2.645969393542563,0.4831502869424505,B,1041,Correct
1,relearn,23,790,B,48.50015501028323,29.10459655324219,2.4250077505141614,0.4571739335868024,B,756,Correct
1,relearn,23,791,A,51.96299816429184,67.74462051351937,2.5981499082145922,1.0641300106275042,A,1464,Correct
1,relearn,23,792,A,15.944649270365783,32.68767676494966,0.7972324635182892,0.5134568259384181,A,519,Correct
1,relearn,23,793,B,58.196464272335646,51.40205302328797,2.9098232136167828,0.8074215607869726,B,2128,Correct
1,relearn,23,794,A,38.05420311221553,47.417659027078564,1.9027101556107766,0.7448348462494787,B,792,Incorrect
1,relearn,23,795,B,65.85671788945376,41.53915324649001,3.292835894472688,0.6524954933775681,B,526,Correct
1,relearn,23,796,B,53.22812416860228,26.692446350367923,2.661406208430114,0.41928396680327773,B,626,Correct
1,relearn,23,797,A,52.44349736088968,81.28332010267373,2.622174868044484,1.2767954064697367,A,555,Correct
1,relearn,23,798,B,45.228145149101515,36.64958264764779,2.2614072574550756,0.5756902980149113,B,390,Correct
1,relearn,23,799,A,36.465788509923456,44.76250875372511,1.823289425496173,0.7031278432847581,B,416,Incorrect
1,relearn,23,800,A,28.099855253995443,43.44461543627121,1.404992762699772,0.6824264234631168,A,718,Correct
1,relearn,23,801,B,70.37102520352724,52.20520630704969,3.5185512601763618,0.8200374630668343,B,769,Correct
1,relearn,23,802,A,34.89488938140977,53.098050401909504,1.7447444690704885,0.8340622253128973,A,1081,Correct
1,relearn,23,803,B,64.55908756867444,37.62206547521201,3.227954378433722,0.5909660225490012,B,600,Correct
1,relearn,23,804,B,47.011601418578266,20.458522137162724,2.3505800709289133,0.3213617142470728,B,930,Correct
1,relearn,23,805,B,35.542271728144584,14.854249758207647,1.7771135864072292,0.23333000957486552,B,760,Correct
1,relearn,23,806,B,71.63379330504237,58.01012929049456,3.581689665252119,0.9112209800640589,B,551,Correct
1,relearn,23,807,A,45.78272857307548,71.32397057476304,2.289136428653774,1.1203543099126505,A,827,Correct
1,relearn,23,808,A,65.56924359091019,86.83986420045939,3.27846217954551,1.3640773970544924,A,919,Correct
1,relearn,23,809,A,45.918478746092916,60.07940080126546,2.2959239373046456,0.9437250209466614,B,895,Incorrect
1,relearn,23,810,A,49.53967888990726,63.26136675474993,2.476983944495363,0.9937072252638596,A,943,Correct
1,relearn,23,811,A,46.609063837988174,74.71488118854862,2.3304531918994087,1.173618609278893,A,515,Correct
1,relearn,23,812,B,70.4834058144949,59.89588127075881,3.5241702907247454,0.9408423029025117,B,1010,Correct
1,relearn,23,813,B,81.29256694989633,59.94880759810313,4.064628347494817,0.9416736677083438,B,445,Correct
1,relearn,23,814,B,60.98169349493142,49.454989339251654,3.0490846747465707,0.7768371559577727,B,417,Correct
1,relearn,23,815,B,37.49343878922038,24.047491876030435,1.8746719394610187,0.37773711907498725,B,550,Correct
1,relearn,23,816,A,24.12629768386956,43.78207585661772,1.2063148841934779,0.6877272393503063,A,595,Correct
1,relearn,23,817,B,51.06670038607071,24.6568397344268,2.5533350193035353,0.38730873285208073,B,526,Correct
1,relearn,23,818,A,46.41192924202982,65.53550360609893,2.320596462101491,1.029429283391139,A,548,Correct
1,relearn,23,819,B,81.40709340161837,62.5364005165915,4.070354670080918,0.982319482224364,B,419,Correct
1,relearn,23,820,A,50.13734949439096,67.55484091867334,2.506867474719548,1.0611489597226564,B,1206,Incorrect
1,relearn,23,821,A,19.014976888212463,39.92945973605988,0.9507488444106231,0.6272104868430759,A,604,Correct
1,relearn,23,822,A,16.289608877601875,34.103476822728624,0.8144804438800938,0.5356961612407701,A,430,Correct
1,relearn,23,823,A,13.828964715041003,35.242959152006385,0.69144823575205,0.5535951078135422,A,361,Correct
1,relearn,23,824,A,19.482644359704274,46.19496600248288,0.9741322179852137,0.7256288291311523,A,404,Correct
1,relearn,23,825,B,82.6413013737168,63.88008054017135,4.13206506868584,1.0034259586786332,B,731,Correct
1,relearn,23,826,A,24.30657965720334,46.22098582145617,1.215328982860167,0.7260375474918235,A,738,Correct
1,relearn,23,827,A,28.310617645756817,54.27286262450359,1.4155308822878407,0.8525161325521425,A,492,Correct
1,relearn,23,828,A,51.1040375502098,59.781192193548094,2.55520187751049,0.9390407710904509,B,777,Incorrect
1,relearn,23,829,B,51.55734530056556,30.053104871815435,2.577867265028278,0.4720730674142949,B,461,Correct
1,relearn,23,830,A,48.24497979224485,59.70209986853128,2.4122489896122428,0.93779839175431,B,535,Incorrect
1,relearn,23,831,B,78.50572213031772,46.46370724536029,3.925286106515886,0.7298502067028536,B,449,Correct
1,relearn,23,832,A,37.535082550997096,56.136609201319594,1.8767541275498547,0.8817917953215341,A,763,Correct
1,relearn,23,833,B,74.2560353208833,43.799511490611785,3.7128017660441652,0.6880011176486386,B,553,Correct
1,relearn,23,834,A,46.63978736217362,68.35256225589549,2.331989368108681,1.0736795371858012,A,859,Correct
1,relearn,23,835,A,33.563781849651015,47.31165359191098,1.6781890924825507,0.7431697167676633,B,734,Incorrect
1,relearn,23,836,B,48.11917138477476,37.562473585423824,2.405958569238738,0.5900299553331407,B,565,Correct
1,relearn,23,837,B,52.90988710245379,34.17381962075662,2.6454943551226893,0.5368011033283586,B,423,Correct
1,relearn,23,838,A,61.68781924369988,83.77683235313025,3.084390962184994,1.3159634053080884,B,591,Incorrect
1,relearn,23,839,B,86.58726622315791,69.30708897539165,4.329363311157896,1.0886732078339227,B,526,Correct
1,relearn,23,840,A,17.587687685589472,48.22557906510926,0.8793843842794736,0.7575256245303047,A,554,Correct
1,relearn,23,841,A,43.62222855885465,53.10128326136602,2.181111427942733,0.8341130069504905,B,879,Incorrect
1,relearn,23,842,A,39.26097476688566,53.97569492264329,1.963048738344283,0.8478482332069004,A,683,Correct
1,relearn,23,843,A,47.16587425531599,63.075438201726485,2.3582937127657995,0.9907866663825046,A,476,Correct
1,relearn,23,844,A,49.3498393565044,78.35378738761376,2.46749196782522,1.2307784141893199,A,663,Correct
1,relearn,23,845,A,12.371259634279038,36.68174474752847,0.618562981713952,0.5761954990984571,A,465,Correct
1,relearn,23,846,B,50.89137908233772,25.990446487314458,2.544568954116886,0.4082569787403287,B,503,Correct
1,relearn,23,847,A,35.79680944008445,49.762427363475965,1.7898404720042225,0.781666381149459,A,789,Correct
1,relearn,23,848,A,40.48982972982501,61.99923088290874,2.0244914864912507,0.9738816413498177,A,553,Correct
1,relearn,23,849,A,31.954822818731593,64.21843891628073,1.5977411409365798,1.0087408796219621,A,550,Correct
1,relearn,23,850,B,39.005631842276884,29.98239561505968,1.9502815921138443,0.47096236900647154,B,556,Correct
1,relearn,23,851,A,50.58599429441338,63.068527833378624,2.5292997147206693,0.9906781185703283,A,991,Correct
1,relearn,23,852,A,31.771129914660644,51.1769258016066,1.5885564957330323,0.803885270658186,A,581,Correct
1,relearn,23,853,B,53.1767960595368,26.42188625089485,2.65883980297684,0.4150340186989821,B,412,Correct
1,relearn,23,854,B,67.09690221737846,38.42349504458194,3.3548451108689226,0.6035548487865122,B,432,Correct
1,relearn,23,855,B,62.103978961623504,37.74969668077621,3.105198948081175,0.5929708488378478,B,385,Correct
1,relearn,23,856,A,69.46067562317246,86.4413456909356,3.473033781158623,1.3578174829452954,A,663,Correct
1,relearn,23,857,A,54.87505946763337,62.49846977300644,2.7437529733816683,0.9817236674974039,B,504,Incorrect
1,relearn,23,858,B,55.452531165434316,46.04449622268475,2.772626558271716,0.7232652553571469,B,618,Correct
1,relearn,23,859,B,32.43552331238413,15.200448784614906,1.6217761656192065,0.23876809116507045,A,591,Incorrect
1,relearn,23,860,A,68.62598263737499,85.75852727141144,3.4312991318687494,1.3470917962927305,A,1898,Correct
1,relearn,23,861,A,27.823789613348985,42.18185289436556,1.3911894806674494,0.662590995838721,A,576,Correct
1,relearn,23,862,A,39.46639729672626,64.69481758381716,1.9733198648363128,1.0162238182332588,A,716,Correct
1,relearn,23,863,A,62.62292100542892,85.38611784411418,3.131146050271446,1.3412420026881073,A,665,Correct
1,relearn,23,864,A,26.299973901335196,53.67928566299773,1.3149986950667598,0.8431922474441079,A,482,Correct
1,relearn,23,865,A,43.37420993487033,74.52178797823206,2.1687104967435165,1.1705855082239498,A,596,Correct
1,relearn,23,866,B,53.85650732139031,45.075241900381094,2.6928253660695156,0.7080402440651004,B,645,Correct
1,relearn,23,867,A,62.147210340398296,84.49337862826121,3.107360517019915,1.3272188878776314,A,617,Correct
1,relearn,23,868,B,70.18214861568431,60.40624270900109,3.5091074307842156,0.9488590416277991,B,724,Correct
1,relearn,23,869,B,72.18760548797111,44.43716520908588,3.6093802743985552,0.6980173588361008,B,458,Correct
1,relearn,23,870,A,16.165655135567697,43.80112640250862,0.8082827567783849,0.688026484625395,A,398,Correct
1,relearn,23,871,B,54.15369185529176,30.093360043563173,2.707684592764588,0.4727053941734534,B,454,Correct
1,relearn,23,872,A,16.825477635234368,36.550315859513304,0.8412738817617184,0.5741310189531675,A,407,Correct
1,relearn,23,873,B,59.73107980299037,41.03019489990862,2.9865539901495186,0.6445007943645515,B,679,Correct
1,relearn,23,874,B,73.20631422881812,52.44762270416315,3.6603157114409055,0.8238453309282409,B,514,Correct
1,relearn,23,875,A,52.58884386999411,73.57836158575083,2.629442193499705,1.1557662011048413,A,634,Correct
1,relearn,23,876,B,57.70197604043401,36.63287318550449,2.8850988020217003,0.5754278263973371,B,517,Correct
1,relearn,23,877,B,70.07659825469679,41.66612368280786,3.50382991273484,0.6544899403273643,B,653,Correct
1,relearn,23,878,B,50.11415348077014,25.646868974073673,2.505707674038507,0.40286007578264915,A,540,Incorrect
1,relearn,23,879,A,46.06748244489225,59.605735462542896,2.3033741222446125,0.9362847032047068,A,790,Correct
1,relearn,23,880,B,83.48087826276426,67.3276557703329,4.174043913138213,1.0575803437575013,B,428,Correct
1,relearn,23,881,A,57.501872267359495,66.91791810676416,2.8750936133679748,1.0511441995886686,B,434,Incorrect
1,relearn,23,882,A,52.98044321442506,64.1931867441023,2.6490221607212527,1.0083442194289474,A,562,Correct
1,relearn,23,883,A,31.54151026496511,64.16651170179114,1.5770755132482555,1.0079252088441526,A,413,Correct
1,relearn,23,884,B,57.56788548160676,27.75375309875727,2.8783942740803377,0.435954934223004,B,600,Correct
1,relearn,23,885,A,52.17239752542686,70.16324940039652,2.6086198762713426,1.102121744341371,A,473,Correct
1,relearn,23,886,A,56.81235707101251,65.77095563394367,2.8406178535506252,1.0331277551958884,A,462,Correct
1,relearn,23,887,A,54.73232614921644,68.66494225055725,2.7366163074608223,1.07858639066759,A,468,Correct
1,relearn,23,888,B,76.71750525130781,50.655404500023295,3.8358752625653905,0.7956932332094627,B,397,Correct
1,relearn,23,889,B,46.744669527570906,27.97428401150632,2.3372334763785454,0.4394190256999133,A,1140,Incorrect
1,relearn,23,890,B,40.84073208651414,26.761780827921946,2.042036604325707,0.4203730702298988,B,447,Correct
1,relearn,23,891,A,44.08250360364803,60.971078386569324,2.2041251801824013,0.957731459703468,A,527,Correct
1,relearn,23,892,B,38.95967751136604,26.183359406797486,1.9479838755683019,0.4112872477934809,A,468,Incorrect
1,relearn,23,893,A,10.991635858744488,35.728055366895454,0.5495817929372244,0.5612149813384407,A,574,Correct
1,relearn,23,894,A,30.356774615243097,62.02670763035691,1.5178387307621548,0.9743132450894562,A,732,Correct
1,relearn,23,895,A,39.60738185478495,49.36096514932126,1.9803690927392472,0.7753602274360473,A,445,Correct
1,relearn,23,896,A,52.10135907639439,68.40891942978733,2.6050679538197192,1.0745647936031797,B,637,Incorrect
1,relearn,23,897,B,43.7864332359201,36.014824148677455,2.189321661796005,0.5657195348290668,A,637,Incorrect
1,relearn,23,898,B,85.06954132826678,69.4318646774282,4.253477066413339,1.0906331799782454,B,608,Correct
