experiment,condition,subject,trial,cat,x,y,xt,yt,resp,rt,fb
1,new_learn,22,0,B,69.24666555307796,39.73685583662574,3.4623332776538978,0.6241850718655007,A,29105,Incorrect
1,new_learn,22,1,A,49.106312669201216,74.69517921001132,2.4553156334600605,1.1733091313237232,B,1483,Incorrect
1,new_learn,22,2,B,38.768364718936574,28.45974454111294,1.9384182359468287,0.4470446218670131,A,588,Incorrect
1,new_learn,22,3,A,16.090837044939004,41.72864119512607,0.8045418522469503,0.6554719631144623,A,458,Correct
1,new_learn,22,4,B,79.41275482100095,52.623015852789855,3.970637741050047,0.8266004000643191,A,659,Incorrect
1,new_learn,22,5,B,38.59483834734178,19.022637519943974,1.9297419173670889,0.29880689142278777,B,756,Correct
1,new_learn,22,6,A,40.27701485114945,62.335876283302994,2.0138507425574725,0.9791696549335345,B,3213,Incorrect
1,new_learn,22,7,A,20.840479304508097,34.00359842701175,1.0420239652254049,0.5341272750695878,A,1051,Correct
1,new_learn,22,8,A,36.884104311983975,56.366895391936154,1.8442052155991988,0.8854091223448549,B,919,Incorrect
1,new_learn,22,9,B,42.47894709153041,15.866953217869188,2.1239473545765204,0.24923751832055382,A,342,Incorrect
1,new_learn,22,10,B,73.5957871947744,62.551141387329835,3.67978935973872,0.9825510312804594,A,431,Incorrect
1,new_learn,22,11,A,57.10666403362302,78.84286924859778,2.855333201681151,1.238460894096677,B,357,Incorrect
1,new_learn,22,12,A,48.600565550730465,61.718676347616764,2.430028277536523,0.9694747010147948,A,438,Correct
1,new_learn,22,13,A,18.439110171160625,47.03694564086524,0.9219555085580312,0.7388546143632234,B,2786,Incorrect
1,new_learn,22,14,B,58.46654751600146,32.82207785125708,2.923327375800073,0.5155679932653076,A,367,Incorrect
1,new_learn,22,15,A,55.5121520722415,74.56668854532074,2.775607603612075,1.171290804682489,A,292,Correct
1,new_learn,22,16,B,42.23727277986079,15.62173419552989,2.1118636389930394,0.24538562692504576,B,346,Correct
1,new_learn,22,17,B,59.21465719299627,44.6545937829997,2.9607328596498133,0.7014327188885415,B,1215,Correct
1,new_learn,22,18,A,62.102143975338876,78.57699188362673,3.105107198766944,1.2342845022139328,A,626,Correct
1,new_learn,22,19,B,67.6283293037522,43.161097892421445,3.38141646518761,0.6779729402985055,A,2953,Incorrect
1,new_learn,22,20,B,76.32309995857304,61.6016837416469,3.8161549979286518,0.9676369854575986,B,423,Correct
1,new_learn,22,21,A,35.69091075968109,61.51038839016188,1.7845455379840545,0.9662029214299372,A,336,Correct
1,new_learn,22,22,B,86.27161850193278,60.81661264054964,4.313580925096639,0.9553051174388347,B,1140,Correct
1,new_learn,22,23,A,22.239219930070746,41.75718409253574,1.1119609965035373,0.6559203138985342,A,562,Correct
1,new_learn,22,24,B,73.10159348124574,57.12788548966978,3.655079674062287,0.8973627268473277,B,421,Correct
1,new_learn,22,25,B,54.52297950530083,32.59363485498291,2.7261489752650414,0.5119796190710126,A,685,Incorrect
1,new_learn,22,26,A,38.922703862328994,62.307403616646674,1.94613519311645,0.9787224073315565,B,1652,Incorrect
1,new_learn,22,27,A,29.522955825789683,41.842519671071756,1.476147791289484,0.6572607620316272,A,351,Correct
1,new_learn,22,28,A,45.0011181028263,62.57779119304735,2.250055905141315,0.9829696454497681,B,484,Incorrect
1,new_learn,22,29,A,58.481115495895736,68.88846180737119,2.9240557747947866,1.0820974276556918,A,353,Correct
1,new_learn,22,30,A,43.365311052917725,50.51479745087492,2.1682655526458863,0.7934845828462254,A,663,Correct
1,new_learn,22,31,B,47.117071700452556,32.450070107068484,2.355853585022628,0.5097245092842005,A,394,Incorrect
1,new_learn,22,32,B,51.313806767242866,41.56894041096657,2.565690338362143,0.6529633890630222,B,464,Correct
1,new_learn,22,33,A,29.875294969606273,42.544737807997905,1.4937647484803136,0.6682911787325506,B,735,Incorrect
1,new_learn,22,34,A,46.87637002554477,74.61535051327525,2.3438185012772386,1.1720551850876648,A,406,Correct
1,new_learn,22,35,B,50.160673552294824,40.73994933739768,2.5080336776147414,0.6399416277299446,A,653,Incorrect
1,new_learn,22,36,A,24.144475592001022,44.43141105774197,1.2072237796000511,0.6979269728381523,B,264,Incorrect
1,new_learn,22,37,A,46.8278932919114,76.42718854312656,2.3413946645955703,1.200515470308042,A,305,Correct
1,new_learn,22,38,A,47.76275583285098,74.0967209235796,2.388137791642549,1.1639085705430539,A,463,Correct
1,new_learn,22,39,A,20.709883588714803,33.29264250470397,1.0354941794357402,0.5229596055568464,A,473,Correct
1,new_learn,22,40,A,58.29636085547526,71.0467180493968,2.9148180427737627,1.1159992374282517,B,795,Incorrect
1,new_learn,22,41,B,33.62211560086642,14.527113595543831,1.6811057800433213,0.2281913667481245,A,455,Incorrect
1,new_learn,22,42,B,87.31907256387876,62.599862828390194,4.365953628193938,0.9833163458869971,B,271,Correct
1,new_learn,22,43,B,78.67385031190567,54.50006864257523,3.933692515595283,0.8560850763382689,B,286,Correct
1,new_learn,22,44,B,39.58989188620975,17.494991198249956,1.9794945943104876,0.2748106791152008,B,323,Correct
1,new_learn,22,45,A,27.239795805654097,44.193963879387866,1.361989790282705,0.694197161282488,B,497,Incorrect
1,new_learn,22,46,A,22.268894355500088,43.37995871827901,1.1134447177750044,0.6814107981118692,A,840,Correct
1,new_learn,22,47,B,71.92950884045696,61.668104687210786,3.596475442022848,0.9686803232307385,A,272,Incorrect
1,new_learn,22,48,B,52.74201657914482,24.025384633456433,2.637100828957241,0.3773898593206791,B,650,Correct
1,new_learn,22,49,B,66.66308403420446,40.82950191909906,3.333154201710223,0.6413483163938598,B,497,Correct
1,new_learn,22,50,B,63.05613915004388,35.5925556928672,3.1528069575021944,0.5590865574359859,B,480,Correct
1,new_learn,22,51,B,63.76215916030973,42.46682802510578,3.1881079580154865,0.6670673747246673,A,476,Incorrect
1,new_learn,22,52,B,55.54713017085719,28.88735011762894,2.7773565085428595,0.45376143455609663,B,499,Correct
1,new_learn,22,53,B,44.18639717679382,35.20019812615545,2.209319858839691,0.5529234191901758,A,535,Incorrect
1,new_learn,22,54,B,72.49225497860718,43.5365127382762,3.624612748930359,0.6838699429074347,B,247,Correct
1,new_learn,22,55,A,47.46088244218023,62.51978521266642,2.3730441221090115,0.9820584896406231,B,869,Incorrect
1,new_learn,22,56,B,38.77822434475054,19.7205496307572,1.938911217237527,0.30976966922369864,A,525,Incorrect
1,new_learn,22,57,A,29.5170074521508,53.28522114815674,1.47585037260754,0.8370022965197835,B,2068,Incorrect
1,new_learn,22,58,A,45.43633729301945,53.15331951288715,2.2718168646509724,0.8349303904779863,A,290,Correct
1,new_learn,22,59,A,63.72053904711817,78.48931789647185,3.186026952355909,1.2329073224441491,B,257,Incorrect
1,new_learn,22,60,B,85.52676683906807,62.57834510519282,4.276338341953403,0.9829783462814027,A,252,Incorrect
1,new_learn,22,61,A,36.53858337883652,53.97225606771416,1.8269291689418259,0.8477942157999897,B,273,Incorrect
1,new_learn,22,62,B,86.5950598549164,69.21948450863472,4.32975299274582,1.0872971200879966,B,237,Correct
1,new_learn,22,63,B,42.13075550146367,19.34296099265445,2.1065377750731837,0.3038385207659858,B,264,Correct
1,new_learn,22,64,A,39.06298210176252,66.7335623718392,1.953149105088126,1.0482483464762313,B,277,Incorrect
1,new_learn,22,65,B,74.77781424121659,44.91450185984129,3.738890712060829,0.7055153454126124,A,316,Incorrect
1,new_learn,22,66,B,63.694320501250736,30.872941475179395,3.184716025062537,0.48495103066565604,B,299,Correct
1,new_learn,22,67,B,66.18272719285626,56.77946768227349,3.309136359642813,0.8918897927268473,B,356,Correct
1,new_learn,22,68,A,15.319005291439847,36.90819222375444,0.7659502645719924,0.5797525277371344,B,305,Incorrect
1,new_learn,22,69,A,43.242806932227445,60.87783875257042,2.162140346611372,0.9562668549574962,A,447,Correct
1,new_learn,22,70,B,47.972239389554204,36.571987001572445,2.3986119694777104,0.5744714284566069,A,334,Incorrect
1,new_learn,22,71,A,28.613914654535705,51.428905247721104,1.4306957327267853,0.8078433545420308,B,477,Incorrect
1,new_learn,22,72,A,16.639565873152677,37.06417204364956,0.8319782936576339,0.5822026530185883,A,477,Correct
1,new_learn,22,73,B,48.58817382594094,33.78219087976184,2.429408691297047,0.5306494134501396,A,405,Incorrect
1,new_learn,22,74,B,31.95418306700763,13.112099723035005,1.5977091533503816,0.20596438081511767,B,326,Correct
1,new_learn,22,75,B,31.768117844711284,10.262217033797874,1.5884058922355644,0.1611985282146172,A,270,Incorrect
1,new_learn,22,76,A,35.908235729111574,46.776473974859464,1.7954117864555785,0.7347631350012632,B,274,Incorrect
1,new_learn,22,77,A,61.81216823023641,82.1776832470242,3.0906084115118206,1.2908440298894013,B,457,Incorrect
1,new_learn,22,78,B,51.32390409871629,29.710301025162146,2.5661952049358145,0.46668831718295345,A,266,Incorrect
1,new_learn,22,79,A,12.82352049912149,40.11122888464699,0.6411760249560744,0.6300657099523285,A,295,Correct
1,new_learn,22,80,A,15.77962862398416,40.16074634225155,0.788981431199208,0.6308435283575031,100,304,Correct
1,new_learn,22,81,A,13.576645459076143,37.67059011976613,0.6788322729538072,0.5917282458832476,A,322,Correct
1,new_learn,22,82,B,72.84105266285506,61.076185609973535,3.6420526331427534,0.9593824801078974,A,508,Incorrect
1,new_learn,22,83,A,40.724165939000876,48.266092542439466,2.036208296950044,0.7581620087440647,B,356,Incorrect
1,new_learn,22,84,B,68.93224861546217,56.128473023723956,3.4466124307731087,0.8816639925427203,A,311,Incorrect
1,new_learn,22,85,A,17.019277323491938,39.15170768854327,0.8509638661745969,0.6149935862491128,B,26,Incorrect
1,new_learn,22,86,B,43.02232651208214,28.842295371421088,2.151116325604107,0.45305371625761687,B,274,Correct
1,new_learn,22,87,A,12.319309738600111,32.91383497883765,0.6159654869300055,0.5170093108549155,B,236,Incorrect
1,new_learn,22,88,B,47.504990256358184,38.32217871662019,2.375249512817909,0.6019633756284457,A,222,Incorrect
1,new_learn,22,89,B,73.72307384596122,40.80883065926514,3.686153692298061,0.6410236130036864,A,294,Incorrect
1,new_learn,22,90,B,68.12218806031773,41.605817570939,3.4061094030158863,0.6535426541372955,B,270,Correct
1,new_learn,22,91,A,41.61973228727471,57.83727316383571,2.080986614363735,0.9085057623758619,B,338,Incorrect
1,new_learn,22,92,B,60.718006285393834,38.879994028507696,3.035900314269692,0.6107255180578741,B,289,Correct
1,new_learn,22,93,B,32.75248895880563,20.43066435102727,1.6376244479402815,0.32092412516573077,B,395,Correct
1,new_learn,22,94,A,67.5563137867554,82.50972606934312,3.3778156893377695,1.2960597463457728,B,313,Incorrect
1,new_learn,22,95,A,38.64458516476485,68.11462529589375,1.9322292582382425,1.0699420321580064,A,277,Correct
1,new_learn,22,96,A,31.61014601723256,60.519825320040006,1.580507300861628,0.9506431931098761,A,592,Correct
1,new_learn,22,97,B,69.6659082618812,49.18716393037911,3.4832954130940603,0.7726301642729793,A,361,Incorrect
1,new_learn,22,98,A,42.801860067047365,69.70537002329942,2.140093003352368,1.0949293919047784,B,554,Incorrect
1,new_learn,22,99,B,81.03051285200536,61.19181675944391,4.051525642600268,0.9611988099564088,A,359,Incorrect
1,new_learn,22,100,B,77.9750018337097,52.99116515390281,3.898750091685485,0.8323832757633225,B,18,Correct
1,new_learn,22,101,A,49.27482159929571,78.54642604530494,2.4637410799647856,1.2338043751483199,B,277,Incorrect
1,new_learn,22,102,A,29.555298608509823,49.986544300618405,1.477764930425491,0.7851868017658177,A,549,Correct
1,new_learn,22,103,A,32.265365597344015,51.15716591117505,1.6132682798672007,0.8035748830251086,B,290,Incorrect
1,new_learn,22,104,B,80.47847152650887,52.98686301449695,4.023923576325443,0.8323156979155616,A,272,Incorrect
1,new_learn,22,105,B,68.29044271497588,37.27335472275717,3.4145221357487943,0.5854884868583018,A,294,Incorrect
1,new_learn,22,106,A,30.877662543739127,50.8315430598382,1.5438831271869562,0.7984600112371045,A,213,Correct
1,new_learn,22,107,B,53.82258630379385,30.976523436397855,2.6911293151896922,0.4865780923076977,A,321,Incorrect
1,new_learn,22,108,B,64.08865561417765,51.23549925653584,3.2044327807088826,0.8048053403366915,B,239,Correct
1,new_learn,22,109,A,50.61055404973169,71.06924110068339,2.5305277024865847,1.1163530286905434,A,311,Correct
1,new_learn,22,110,A,31.365411450756156,61.49788615045781,1.5682705725378077,0.9660065367078985,B,662,Incorrect
1,new_learn,22,111,A,46.78650301465298,76.77099533954102,2.3393251507326487,1.2059159748373915,B,304,Incorrect
1,new_learn,22,112,B,65.5567196092099,42.947056590176686,3.277835980460495,0.674610787385021,B,287,Correct
1,new_learn,22,113,A,25.092317272403356,52.44321915317166,1.2546158636201679,0.8237761601110181,B,365,Incorrect
1,new_learn,22,114,A,24.553431658572663,36.46506929888821,1.227671582928633,0.5727919691101495,A,351,Correct
1,new_learn,22,115,B,67.54199946167725,34.5432434937747,3.3770999730838627,0.54260399995603,A,313,Incorrect
1,new_learn,22,116,A,60.07847737818632,85.45295120009169,3.0039238689093164,1.3422918185888757,B,396,Incorrect
1,new_learn,22,117,A,28.910100902098094,57.012457034594235,1.4455050451049047,0.8955495809149248,B,442,Incorrect
1,new_learn,22,118,B,49.34906782646539,21.89219506060105,2.4674533913232692,0.3438817958666951,B,138,Correct
1,new_learn,22,119,A,61.56024480991613,79.11923464029836,3.0780122404958066,1.242802031518042,B,415,Incorrect
1,new_learn,22,120,A,44.12153822350562,75.72544069950897,2.206076911175281,1.1894924409571346,107,394,Correct
1,new_learn,22,121,B,61.70813380626039,39.70904844360424,3.0854066903130195,0.6237482743573414,100,142,Correct
1,new_learn,22,122,B,74.06747240107717,50.21590697404031,3.7033736200538585,0.7887896222149673,107,242,Correct
1,new_learn,22,123,A,63.41887242578913,79.52830327349847,3.1709436212894566,1.2492276665824193,107,308,Incorrect
1,new_learn,22,124,B,41.830040305624124,16.612033420380417,2.0915020152812063,0.2609412107732762,107,295,Incorrect
1,new_learn,22,125,A,62.629080008597796,77.31001679974284,3.1314540004298896,1.214382904134878,107,281,Correct
1,new_learn,22,126,B,79.62180547803624,52.886642378335644,3.9810902739018115,0.8307414358440494,100,310,Correct
1,new_learn,22,127,A,55.77890113931774,79.7379633482184,2.7889450569658867,1.2525209993348756,107,318,Correct
1,new_learn,22,128,B,34.95095524421146,13.682685947073832,1.7475477622105728,0.2149271282635173,107,253,Incorrect
1,new_learn,22,129,B,59.33137296457152,52.03608833254446,2.966568648228576,0.817380964135356,107,308,Incorrect
1,new_learn,22,130,A,55.261454294549246,72.1385944554316,2.7630727147274623,1.1331503919073866,107,266,Correct
1,new_learn,22,131,B,49.71891622995676,31.431564310619947,2.485945811497838,0.49372585764539384,100,642,Correct
1,new_learn,22,132,A,59.176216431083304,86.72288034431521,2.958810821554165,1.3622398189392368,100,467,Incorrect
1,new_learn,22,133,A,66.11677798566629,86.8343688305773,3.3058388992833145,1.363991075986241,100,390,Incorrect
1,new_learn,22,134,B,66.06339146254172,44.613754638180914,3.3031695731270863,0.7007912191018335,100,512,Correct
1,new_learn,22,135,B,78.55783452885117,64.89308342300426,3.927891726442559,1.0193381707524987,107,357,Incorrect
1,new_learn,22,136,B,49.71005563218085,37.27625370656089,2.4855027816090423,0.5855340239894049,107,387,Incorrect
1,new_learn,22,137,A,27.55936695048463,49.788359897596216,1.3779683475242315,0.7820737284428647,100,408,Incorrect
1,new_learn,22,138,B,38.749881241827225,16.15444699503013,1.9374940620913612,0.25375346001196186,107,542,Incorrect
1,new_learn,22,139,B,69.31596855625004,36.066250124108606,3.465798427812502,0.5665273321621578,107,308,Incorrect
1,new_learn,22,140,B,71.42843433123613,52.013508081612876,3.5714217165618067,0.8170262743831417,100,303,Correct
1,new_learn,22,141,B,68.50774601211421,51.22756644988682,3.4253873006057107,0.8046807321012369,100,478,Correct
1,new_learn,22,142,B,42.06422211853924,21.437741253773524,2.1032111059269623,0.33674325216206874,100,632,Correct
1,new_learn,22,143,A,66.58704734258514,89.70152831950654,3.329352367129257,1.4090283119216924,107,480,Correct
1,new_learn,22,144,B,54.644295711455484,37.02462910138043,2.732214785572774,0.5815815139339181,107,437,Incorrect
1,new_learn,22,145,B,70.89382789313416,56.99129639336711,3.5446913946567076,0.895217190339803,100,507,Correct
1,new_learn,22,146,B,85.92105830759334,63.79955564235965,4.296052915379667,1.0021610765416515,100,523,Correct
1,new_learn,22,147,A,53.70826617037089,78.76317603238917,2.6854133085185445,1.2372090759837673,100,539,Incorrect
1,new_learn,22,148,A,46.53222170173983,67.48437709278087,2.3266110850869914,1.0600421165338185,B,274,Incorrect
1,new_learn,22,149,A,44.38956355309521,65.852301097142,2.2194781776547603,1.034405526743822,A,475,Correct
1,new_learn,22,150,B,38.791735728627486,17.12417225142018,1.9395867864313743,0.26898586871933916,A,431,Incorrect
1,new_learn,22,151,B,75.8130702097225,63.79531765091076,3.7906535104861248,1.0020945063276425,B,301,Correct
1,new_learn,22,152,B,53.81646332957708,35.53080558057754,2.6908231664788542,0.5581165889403482,B,624,Correct
1,new_learn,22,153,A,63.73448275800733,77.1686603604437,3.1867241379003666,1.212162482378679,B,610,Incorrect
1,new_learn,22,154,A,56.10636196303927,70.77172037394081,2.8053180981519636,1.1116795840434177,A,296,Correct
1,new_learn,22,155,A,45.050692384434996,62.410414545284134,2.2525346192217497,0.980340499214791,A,601,Correct
1,new_learn,22,156,A,15.65233134159006,32.56732910243602,0.7826165670795029,0.5115664092762704,A,1630,Correct
1,new_learn,22,157,B,71.40662246004574,56.3454211221939,3.570331123002287,0.8850718053045374,A,720,Incorrect
1,new_learn,22,158,A,13.875326354052206,41.74542076532802,0.6937663177026103,0.6557355359868465,B,277,Incorrect
1,new_learn,22,159,B,65.72283908169459,43.13534141464358,3.286141954084729,0.6775683584916591,A,425,Incorrect
1,new_learn,22,160,B,71.80556192858893,40.10698419181016,3.5902780964294463,0.629999034473164,B,337,Correct
1,new_learn,22,161,A,41.185190688657435,61.43179871927754,2.0592595344328717,0.9649684377664458,B,1121,Incorrect
1,new_learn,22,162,B,69.4208255116951,36.502461249754205,3.471041275584755,0.5733793205008696,A,363,Incorrect
1,new_learn,22,163,A,25.17533127607171,43.55469093809512,1.2587665638035856,0.6841554854024678,B,377,Incorrect
1,new_learn,22,164,B,45.13588580276888,16.337712969942608,2.256794290138444,0.25663219521415187,107,289,Incorrect
1,new_learn,22,165,B,83.04620977642077,65.31907110435019,4.152310488821039,1.0260295696036794,107,398,Incorrect
1,new_learn,22,166,A,51.729901708524224,73.43788917977211,2.586495085426211,1.1535596657115672,B,1022,Incorrect
1,new_learn,22,167,B,31.0860060506085,15.025167599674962,1.554300302530425,0.23601478075047125,A,303,Incorrect
1,new_learn,22,168,A,38.5248069847005,67.06224862512394,1.9262403492350249,1.053411338069508,B,380,Incorrect
1,new_learn,22,169,A,37.738701052604824,65.73692109598946,1.8869350526302413,1.0325931419238619,A,401,Correct
1,new_learn,22,170,B,83.53299909780192,63.43643295030225,4.176649954890096,0.9964571586330553,A,675,Incorrect
1,new_learn,22,171,A,28.567695196982136,38.94693502125384,1.4283847598491066,0.6117770247130505,B,347,Incorrect
1,new_learn,22,172,B,39.930233999489054,19.729409293194166,1.9965116999744525,0.3099088364758249,A,329,Incorrect
1,new_learn,22,173,B,76.14141608411514,44.37209249666779,3.8070708042057566,0.6969951990596915,B,636,Correct
1,new_learn,22,174,A,47.76272666772914,56.49520610632945,2.388136333386457,0.8874246223334291,B,956,Incorrect
1,new_learn,22,175,A,46.25402732574018,68.3578362147673,2.3127013662870093,1.0737623803380363,107,517,Correct
1,new_learn,22,176,A,63.99507294691519,87.32578444644471,3.199753647345759,1.3717102144295827,A,329,Correct
1,new_learn,22,177,A,58.54181227605235,73.3168466201565,2.9270906138026174,1.1516583336312665,A,329,Correct
1,new_learn,22,178,B,47.075894375203156,23.133004428413905,2.353794718760158,0.36337238383882636,A,533,Incorrect
1,new_learn,22,179,A,50.803593994699796,70.445371994048,2.5401796997349897,1.1065533156795069,A,1659,Correct
1,new_learn,22,180,B,67.72313219513988,34.5879160905492,3.3861566097569944,0.5433057154652479,B,658,Correct
1,new_learn,22,181,B,79.14502036648511,54.734451442169046,3.9572510183242557,0.8597667527449276,A,427,Incorrect
1,new_learn,22,182,B,86.97335716613482,64.83539138498578,4.348667858306741,1.0184319463384515,B,599,Correct
1,new_learn,22,183,A,30.389505184365127,48.53973367911526,1.5194752592182565,0.7624603536675677,100,321,Incorrect
1,new_learn,22,184,A,49.18069571636974,64.00443972331817,2.459034785818487,1.0053793881595354,107,408,Correct
1,new_learn,22,185,B,46.88570360812829,38.043607024596966,2.3442851804064144,0.5975875817226544,100,287,Correct
1,new_learn,22,186,A,35.05795465685944,67.13881855707857,1.7528977328429718,1.0546140957480805,107,454,Incorrect
1,new_learn,22,187,A,60.052192203465694,85.13762577254006,3.0026096101732844,1.3373386983554445,100,214,Incorrect
1,new_learn,22,188,A,26.923538836834148,43.22159918364946,1.3461769418417076,0.6789232923587787,B,320,Incorrect
1,new_learn,22,189,A,33.41285366886883,62.06824162085972,1.6706426834434414,0.9749656594866457,A,321,Correct
1,new_learn,22,190,A,25.030097061236326,56.80421194332852,1.2515048530618162,0.8922784746705924,A,366,Correct
1,new_learn,22,191,B,50.531259565436045,25.269664153594114,2.5265629782718024,0.396934956318063,107,411,Incorrect
1,new_learn,22,192,B,39.07846790824007,20.295567415142607,1.9539233954120037,0.31880202745924197,100,445,Correct
1,new_learn,22,193,A,50.86465392295962,79.51657490998812,2.543232696147981,1.2490434378792057,100,478,Incorrect
1,new_learn,22,194,B,41.74889701321453,29.47189335222142,2.0874448506607264,0.46294341821360335,100,318,Correct
1,new_learn,22,195,A,25.75802367505282,45.875928423670686,1.2879011837526408,0.7206173985620751,B,745,Incorrect
1,new_learn,22,196,B,75.52405293686472,50.485335651259014,3.7762026468432364,0.7930217979800509,A,456,Incorrect
1,new_learn,22,197,A,43.3556400442299,54.62299745226546,2.1677820022114953,0.8580160375654557,B,394,Incorrect
1,new_learn,22,198,A,21.769633490118462,35.14029791913359,1.0884816745059231,0.5519825089385338,A,326,Correct
1,new_learn,22,199,B,64.30810422244681,42.33734121893749,3.2154052111223406,0.6650334007296917,A,731,Incorrect
1,new_learn,22,200,B,80.63294316936725,66.72395529232327,4.031647158468362,1.048097438824083,B,481,Correct
1,new_learn,22,201,B,76.81754376211627,48.10621187830703,3.8408771881058135,0.7556506091446171,A,1052,Incorrect
1,new_learn,22,202,A,46.07348544989172,76.44555856459601,2.303674272494586,1.2008040259305155,B,681,Incorrect
1,new_learn,22,203,A,33.452220147517224,43.34054312841454,1.672611007375861,0.6807916594740936,107,733,Incorrect
1,new_learn,22,204,A,14.244587367676544,33.4188102386065,0.7122293683838272,0.5249414436865877,A,2655,Correct
1,new_learn,22,205,A,54.03255748853813,63.24446330472427,2.7016278744269067,0.9934417064917549,A,2868,Correct
1,new_learn,22,206,A,31.15786618619743,43.76122271362887,1.5578933093098715,0.6873996789462162,A,2083,Correct
1,new_learn,22,207,B,43.8705764959442,31.638300895226145,2.19352882479721,0.49697326832252925,A,1650,Incorrect
1,new_learn,22,208,B,48.89268456669062,19.097116812637417,2.4446342283345306,0.2999768094166392,B,2012,Correct
1,new_learn,22,209,A,49.4632970112431,61.70317345844509,2.473164850562155,0.969231182201139,100,1134,Incorrect
1,new_learn,22,210,B,46.22235046643232,17.66904986897646,2.3111175233216157,0.2775447863214407,107,424,Incorrect
1,new_learn,22,211,A,41.95805863039763,54.57441112356037,2.0979029315198816,0.8572528452988316,B,288,Incorrect
1,new_learn,22,212,A,16.51738054511648,45.77919958173959,0.825869027255824,0.7190979854660701,A,328,Correct
1,new_learn,22,213,B,52.62013367429794,31.664115672937555,2.631006683714897,0.4973787659025902,B,640,Correct
1,new_learn,22,214,B,68.5513019524082,38.562775159333036,3.42756509762041,0.6057426557129783,B,560,Correct
1,new_learn,22,215,B,80.98636607763169,65.58597678074848,4.049318303881584,1.030222114164551,B,746,Correct
1,new_learn,22,216,B,56.688276113246864,25.230163401469525,2.834413805662343,0.39631447995463365,B,920,Correct
1,new_learn,22,217,A,35.90636991982051,45.55544782342097,1.7953184959910258,0.715583301065262,B,577,Incorrect
1,new_learn,22,218,A,19.900315294060828,50.89373144392178,0.9950157647030414,0.7994368640899826,107,134,Incorrect
1,new_learn,22,219,A,28.032900172757792,55.96202589182913,1.4016450086378895,0.8790494471088609,B,635,Incorrect
1,new_learn,22,220,B,60.530762836471716,48.93811765503997,3.0265381418235857,0.7687181545279326,A,405,Incorrect
1,new_learn,22,221,B,65.35573820456577,44.07917389680364,3.267786910228289,0.6923940444525265,B,289,Correct
1,new_learn,22,222,B,70.77100269364945,61.51717804418384,3.5385501346824726,0.9663095730659164,B,475,Correct
1,new_learn,22,223,B,38.76024995758983,27.285904434709117,1.9380124978794913,0.4286059845931766,B,386,Correct
1,new_learn,22,224,B,34.857127180081704,22.20536669301947,1.7428563590040853,0.3488010843652872,B,753,Correct
1,new_learn,22,225,B,61.57076593696243,35.85726159039514,3.078538296848121,0.5632445479511642,B,703,Correct
1,new_learn,22,226,A,30.331653982778015,51.81504893827077,1.5165826991389009,0.8139088854493354,B,708,Incorrect
1,new_learn,22,227,B,47.53060677250926,21.068293542199573,2.376530338625463,0.3309399810792373,A,609,Incorrect
1,new_learn,22,228,A,46.20172546998198,55.93718176618007,2.310086273499099,0.8786591964957411,B,644,Incorrect
1,new_learn,22,229,A,27.005485295131212,58.30706993333175,1.3502742647565606,0.9158853127745068,A,611,Correct
1,new_learn,22,230,B,78.13584898238766,65.34732121583492,3.906792449119383,1.026473321317197,A,1247,Incorrect
1,new_learn,22,231,A,58.44220714288133,71.48724256587515,2.9221103571440663,1.1229189803517248,B,998,Incorrect
1,new_learn,22,232,A,35.87237520595238,54.519249101207826,1.793618760297619,0.8563863622779323,B,919,Incorrect
1,new_learn,22,233,A,35.33776111524555,50.712153196486575,1.7668880557622773,0.7965846396490118,A,1272,Correct
1,new_learn,22,234,B,64.89900266482059,37.77963546043436,3.2449501332410295,0.5934411260890051,A,411,Incorrect
1,new_learn,22,235,B,63.61367588442386,36.823731800636295,3.1806837942211934,0.5784258265131992,A,500,Incorrect
1,new_learn,22,236,A,66.80005579430221,89.48050125825716,3.3400027897151108,1.4055564269623648,B,337,Incorrect
1,new_learn,22,237,A,22.99933695437634,46.483282162304114,1.149966847718817,0.7301576887791804,A,263,Correct
1,new_learn,22,238,B,65.51083736218877,57.125721056808345,3.2755418681094386,0.8973287280154442,A,625,Incorrect
1,new_learn,22,239,A,33.71949068283582,65.46123203884385,1.6859745341417909,1.0282626283408431,A,300,Correct
1,new_learn,22,240,B,60.994368309533066,46.65126737107475,3.0497184154766535,0.7327963942681084,A,682,Incorrect
1,new_learn,22,241,A,42.65935669435119,61.42056111079897,2.1329678347175594,0.9647919178252448,A,446,Correct
1,new_learn,22,242,A,38.1338288590581,49.38826986537674,1.906691442952905,0.7757891289128888,A,537,Correct
1,new_learn,22,243,A,37.280025756039784,50.742833335119904,1.8640012878019891,0.7970665621397198,A,545,Correct
1,new_learn,22,244,A,65.27067030622982,77.5500791716741,3.263533515311491,1.218153795055191,A,1042,Correct
1,new_learn,22,245,A,36.25575436830081,50.09649593272035,1.8127877184150407,0.7869139179641261,A,443,Correct
1,new_learn,22,246,B,71.33835578857273,47.05044450995885,3.566917789428636,0.7390666541031048,A,490,Incorrect
1,new_learn,22,247,B,78.77866062602845,54.31977774315534,3.938933031301423,0.8532530735126359,B,526,Correct
1,new_learn,22,248,A,26.769400951230935,48.831492396217556,1.3384700475615465,0.7670432888789146,B,327,Incorrect
1,new_learn,22,249,B,67.52163498664771,41.278721912855424,3.3760817493323856,0.648404647555013,A,399,Incorrect
1,new_learn,22,250,A,22.460570052112217,43.99525418673005,1.1230285026056108,0.6910758367292337,B,517,Incorrect
1,new_learn,22,251,B,44.08558754378262,20.329267250579605,2.204279377189131,0.31933138323642224,B,510,Correct
1,new_learn,22,252,B,75.76309201728445,49.690719220952815,3.788154600864223,0.7805399922806924,B,602,Correct
1,new_learn,22,253,B,39.36078078794727,23.683494722191526,1.9680390393973637,0.37201946515284773,B,2264,Correct
1,new_learn,22,254,B,64.16790286633729,30.910706039487852,3.208395143316864,0.48554423505464345,B,993,Correct
1,new_learn,22,255,A,64.98190420398068,75.24847387803915,3.249095210199034,1.1820002636454563,100,1189,Incorrect
1,new_learn,22,256,B,48.91712439565918,41.706006557001295,2.445856219782959,0.6551164190502151,A,710,Incorrect
1,new_learn,22,257,B,83.65099078656267,57.846690309080294,4.182549539328133,0.9086536865474527,B,622,Correct
1,new_learn,22,258,A,29.771853918282545,44.94050605838468,1.4885926959141274,0.7059238184081444,B,994,Incorrect
1,new_learn,22,259,B,73.9284889998658,42.45445986980451,3.69642444999329,0.6668730961955025,A,441,Incorrect
1,new_learn,22,260,B,43.64560904949823,28.065320391064194,2.1822804524749118,0.44084902180605545,B,644,Correct
1,new_learn,22,261,B,65.84063332389815,46.071643839457494,3.2920316661949074,0.7236916891242254,B,1250,Correct
1,new_learn,22,262,B,72.73544236817604,45.18396577542629,3.636772118408802,0.7097480747006594,B,592,Correct
1,new_learn,22,263,A,28.620164052956856,58.35791764422644,1.4310082026478428,0.9166840267494997,B,861,Incorrect
1,new_learn,22,264,A,34.34584195324409,60.32743160165617,1.7172920976622044,0.9476210796485187,A,412,Correct
1,new_learn,22,265,A,45.01188004986612,62.504367007626755,2.2505940024933064,0.9818163010422023,A,422,Correct
1,new_learn,22,266,B,78.1113560597526,51.01367307571398,3.9055678029876297,0.8013209028364724,A,813,Incorrect
1,new_learn,22,267,A,19.07263569415626,33.57069284042156,0.9536317847078131,0.5273272100169392,B,407,Incorrect
1,new_learn,22,268,A,61.35919369795081,76.45064259214115,3.0679596848975406,1.200883885648448,B,568,Incorrect
1,new_learn,22,269,B,55.42880687500832,43.55576333180971,2.771440343750416,0.6841723305235454,A,404,Incorrect
1,new_learn,22,270,B,60.05793254387542,42.960314999529594,3.002896627193771,0.6748190499921278,B,450,Correct
1,new_learn,22,271,A,41.34243932732252,73.11493956853644,2.067121966366126,1.1484867850808789,B,284,Incorrect
1,new_learn,22,272,A,67.2340639248454,85.10029732613401,3.36170319624227,1.3367523444904486,A,242,Correct
1,new_learn,22,273,A,47.36991833078675,54.88910225200419,2.3684959165393376,0.8621960019851767,A,337,Correct
1,new_learn,22,274,B,36.663861053146675,24.40211619452949,1.8331930526573337,0.3833075448438918,A,248,Incorrect
1,new_learn,22,275,B,54.848810758987966,30.062433057320206,2.742440537949398,0.4722195942095605,107,399,Incorrect
1,new_learn,22,276,B,33.95354691504778,13.992136018676447,1.697677345752389,0.21978795862151534,B,692,Correct
1,new_learn,22,277,A,14.404950903393836,35.49745681315443,0.7202475451696918,0.5575927477266345,B,388,Incorrect
1,new_learn,22,278,A,15.64149190997524,36.583462066441214,0.782074595498762,0.5746516783540631,A,293,Correct
1,new_learn,22,279,A,18.7893589325288,49.36345657790153,0.93946794662644,0.7753993627046711,A,452,Correct
1,new_learn,22,280,A,32.815841927883476,54.25158262944001,1.6407920963941738,0.8521818671713419,A,481,Correct
1,new_learn,22,281,A,65.10791434311848,82.38100310813829,3.255395717155924,1.2940377707994257,A,662,Correct
1,new_learn,22,282,B,62.771998261207344,36.12542981919347,3.138599913060367,0.5674569246387593,A,735,Incorrect
1,new_learn,22,283,A,36.94719420016696,58.115818545164586,1.847359710008348,0.9128811429942326,B,403,Incorrect
1,new_learn,22,284,B,61.09920589078003,46.392177207984325,3.054960294539001,0.7287266155031968,A,390,Incorrect
1,new_learn,22,285,A,36.88533175208035,46.86845880931665,1.8442665876040172,0.7362080294021252,A,537,Correct
1,new_learn,22,286,B,57.40248781279006,33.645157884786514,2.870124390639503,0.5284969041985701,A,639,Incorrect
1,new_learn,22,287,A,55.62889596216623,75.19824722025326,2.781444798108312,1.1812113051498836,A,345,Correct
1,new_learn,22,288,A,26.921683110359425,43.79094498157686,1.3460841555179712,0.6878665552393833,A,540,Correct
1,new_learn,22,289,B,62.1505323610217,46.95710079479126,3.107526618051085,0.7376004144539583,A,672,Incorrect
1,new_learn,22,290,B,89.54232695691785,68.86296825765612,4.477116347845892,1.0816969759131978,A,512,Incorrect
1,new_learn,22,291,B,30.52546524683344,14.46127260320688,1.5262732623416722,0.2271571388589704,A,450,Incorrect
1,new_learn,22,292,B,54.94101291949988,41.755964811283874,2.747050645974994,0.6559011614734167,A,490,Incorrect
1,new_learn,22,293,A,31.544518842333844,49.48842046022396,1.577225942116692,0.7773622907780121,B,307,Incorrect
1,new_learn,22,294,B,34.20831592821838,18.708662206124348,1.7104157964109192,0.29387497872626633,A,433,Incorrect
1,new_learn,22,295,B,39.90232119619859,24.13522521957278,1.9951160598099296,0.3791152312127248,A,709,Incorrect
1,new_learn,22,296,A,42.024328340954334,74.15834742965707,2.1012164170477168,1.1648765974368507,A,386,Correct
1,new_learn,22,297,A,15.606615801071221,33.66346907638507,0.7803307900535611,0.5287845357235926,A,1041,Correct
1,new_learn,22,298,B,73.1589641620117,41.84634222160233,3.6579482081005845,0.6573208065149512,A,1243,Incorrect
1,new_learn,22,299,A,13.611370892963354,40.11684716289989,0.6805685446481676,0.630153961660754,A,564,Correct
1,new_learn,22,300,B,51.075578546045875,24.495704777352724,2.553778927302294,0.3847776308651786,A,401,Incorrect
1,new_learn,22,301,A,30.694953485582637,43.30708792045512,1.5347476742791317,0.6802661462963453,B,379,Correct
1,new_learn,22,302,B,42.39859451392828,14.208051759429253,2.119929725696414,0.22317955514623242,B,555,Correct
1,new_learn,22,303,B,46.82642313744103,26.215500454278335,2.3413211568720516,0.41179211818670347,B,402,Incorrect
1,new_learn,22,304,A,34.36262316705713,46.85916889214299,1.7181311583528567,0.736062103724399,A,444,Incorrect
1,new_learn,22,305,A,38.317743416482585,53.106295889883576,1.9158871708241292,0.8341917451351204,B,366,Correct
1,new_learn,22,306,A,47.83955844171566,76.39334510272984,2.391977922085783,1.1999838587894294,B,540,Correct
1,new_learn,22,307,B,66.6603174522547,52.22618706343726,3.3330158726127355,0.820367028017504,B,568,Incorrect
1,new_learn,22,308,B,60.3410031996776,28.882856100980366,3.01705015998388,0.45369084270765525,A,335,Incorrect
1,new_learn,22,309,A,47.77925833174894,78.32382510690269,2.388962916587447,1.2303077677844865,B,512,Incorrect
1,new_learn,22,310,B,41.71761388760184,24.34104981465843,2.085880694380092,0.38234831639197053,B,314,Incorrect
1,new_learn,22,311,B,83.21580987429212,54.90448654857029,4.160790493714606,0.8624376579505401,100,213,Correct
1,new_learn,22,312,A,62.87156222054023,81.72046291311115,3.1435781110270113,1.2836620296789356,B,414,Incorrect
1,new_learn,22,313,A,64.9690657081977,76.59494847533342,3.2484532854098855,1.203150637160981,100,638,Incorrect
1,new_learn,22,314,B,63.19258477906851,51.790298745131246,3.1596292389534257,0.813520110324625,A,375,Correct
1,new_learn,22,315,A,48.40117600428499,68.25914566347748,2.4200588002142496,1.0722121527834823,100,183,Incorrect
1,new_learn,22,316,B,64.79203812895572,34.62173153166601,3.239601906447786,0.5438368871722,107,389,Incorrect
1,new_learn,22,317,A,19.98261812943517,47.45945934256994,0.9991309064717585,0.745491444069806,100,266,Incorrect
1,new_learn,22,318,B,62.915222430842896,54.95919565046377,3.1457611215421446,0.8632970265135054,107,458,Correct
1,new_learn,22,319,A,49.420278021631425,66.48925434729213,2.4710139010815713,1.044410765000581,100,298,Incorrect
1,new_learn,22,320,B,41.14741091202474,22.91070590956557,2.0573705456012368,0.35988052687023736,B,180,Correct
1,new_learn,22,321,B,38.31116797612516,18.513978735722848,1.915558398806258,0.2908168979243227,A,683,Correct
1,new_learn,22,322,B,58.56028116275342,44.90884574514683,2.928014058137671,0.7054264993707524,100,448,Correct
1,new_learn,22,323,A,44.268953703929924,57.5184327330128,2.2134476851964964,0.9034974286001585,100,485,Incorrect
1,new_learn,22,324,A,47.07078234341942,69.21055985809677,2.3535391171709708,1.0871569320051673,B,140,Incorrect
1,new_learn,22,325,B,40.84783676614123,23.52867076783038,2.0423918383070614,0.36958749616474423,B,331,Correct
1,new_learn,22,326,B,63.79691400476864,54.68329488033182,3.1898457002384317,0.8589631873506739,107,668,Incorrect
1,new_learn,22,327,B,71.12918028738554,39.86713277769716,3.556459014369277,0.6262314572705111,100,393,Incorrect
1,new_learn,22,328,A,31.851611895342472,59.437155441118925,1.5925805947671237,0.9336366544204691,B,88,Incorrect
1,new_learn,22,329,A,35.633688026935985,43.60946598410402,1.7816844013467994,0.6850158898131758,A,58,Incorrect
1,new_learn,22,330,B,46.61709487942362,23.526238911965287,2.330854743971181,0.36954929666214237,100,290,Incorrect
1,new_learn,22,331,A,48.96972474033207,55.94180943707187,2.4484862370166036,0.8787318877801257,A,449,Incorrect
1,new_learn,22,332,B,46.32366732639471,36.747761145764585,2.3161833663197355,0.5772324822570323,B,306,Incorrect
1,new_learn,22,333,B,73.07775983703637,43.01027162319835,3.653887991851818,0.6756037668017074,A,104,Correct
1,new_learn,22,334,A,35.626924892265016,44.862557164643526,1.7813462446132506,0.7046994000484812,A,327,Incorrect
1,new_learn,22,335,A,36.004376387538294,54.853902408521165,1.8002188193769146,0.8616430841367079,A,317,Incorrect
1,new_learn,22,336,B,64.93373975950567,52.4406640224292,3.2466869879752833,0.8237360242111708,B,1012,Correct
1,new_learn,22,337,A,36.66799330301578,51.16179601810788,1.833399665150789,0.803647612574736,B,506,Incorrect
1,new_learn,22,338,A,20.886292334306244,33.18350009236673,1.0443146167153123,0.5212452005528777,A,639,Incorrect
1,new_learn,22,339,B,47.5914252417911,18.84722072201265,2.3795712620895553,0.29605145080430134,B,461,Incorrect
1,new_learn,22,340,B,61.01683646787692,32.3672288017296,3.050841823393846,0.5084232411028684,B,292,Correct
1,new_learn,22,341,A,17.14438884220196,33.24417604095423,0.857219442110098,0.522198296124538,B,332,Incorrect
1,new_learn,22,342,A,42.91450798249787,50.3028694922089,2.1457253991248932,0.7901556262560481,A,377,Incorrect
1,new_learn,22,343,A,42.1055704950957,64.69507263340766,2.1052785247547847,1.016227824542858,B,514,Correct
1,new_learn,22,344,B,48.458235279646644,28.393693077049747,2.4229117639823325,0.4460070878957143,A,317,Correct
1,new_learn,22,345,A,49.09741881279216,71.56495640787907,2.454870940639608,1.1241397065273333,A,290,Correct
1,new_learn,22,346,B,62.37996737276973,31.27941430508865,3.1189983686384863,0.4913358909472899,B,349,Incorrect
1,new_learn,22,347,A,38.837528400859384,59.21729839219222,1.9418764200429692,0.9301831479717289,A,249,Incorrect
1,new_learn,22,348,B,52.59832455315289,24.48503068478216,2.629916227657645,0.3846099626111614,B,381,Incorrect
1,new_learn,22,349,B,56.382045046402034,32.38367031179102,2.8191022523201017,0.5086815037389828,A,315,Incorrect
1,new_learn,22,350,A,49.893585638816916,70.17198425100882,2.494679281940846,1.1022589510539398,A,418,Correct
1,new_learn,22,351,A,33.55530560795745,55.284392039453536,1.6777652803978724,0.8684051994466262,A,268,Incorrect
1,new_learn,22,352,B,82.90876807544973,67.40936427797443,4.145438403772487,1.0588638179942134,A,366,Incorrect
1,new_learn,22,353,A,45.34137951314678,56.89265323020836,2.2670689756573386,0.893667707156271,A,268,Correct
1,new_learn,22,354,B,59.16632223597794,39.34593704973931,2.958316111798897,0.6180445339203374,A,325,Correct
1,new_learn,22,355,B,65.16678006800358,37.62271218145981,3.2583390034001787,0.5909761809869869,A,330,Incorrect
1,new_learn,22,356,A,42.8976818942216,63.30139286169141,2.1448840947110797,0.9943359538814556,A,289,Incorrect
1,new_learn,22,357,B,35.6511008513676,19.402685567053915,1.78255504256838,0.30477667218684645,B,224,Incorrect
1,new_learn,22,358,A,35.080364846944576,67.95886758708617,1.7540182423472288,1.0674953957893571,A,233,Incorrect
1,new_learn,22,359,B,69.1152390153673,38.805200907264066,3.455761950768365,0.6095506704566838,B,222,Correct
1,new_learn,22,360,A,36.254151970494,64.2581527917732,1.8127075985247,1.0093647037194255,B,325,Correct
1,new_learn,22,361,A,53.61374305435832,64.15349319046557,2.6806871527179164,1.0077207145464473,B,319,Incorrect
1,new_learn,22,362,B,45.77918650758613,26.549212746189014,2.288959325379307,0.4170340586100995,A,281,Correct
1,new_learn,22,363,B,72.11260021648702,56.12785055985847,3.605630010824351,0.8816542149031857,A,418,Incorrect
1,new_learn,22,364,B,64.82137475652452,53.13647200998348,3.2410687378262257,0.8346657505212188,B,1363,Correct
1,new_learn,22,365,A,21.39051291052824,47.68264317258941,1.0695256455264122,0.748997207473752,A,6334,Correct
1,new_learn,22,366,A,37.95774021942053,47.225203176796896,1.8978870109710266,0.7418117568225523,A,433,Incorrect
1,new_learn,22,367,B,79.9655579887629,60.6383512755653,3.9982778994381447,0.952504994465566,B,287,Incorrect
1,new_learn,22,368,A,57.49732037366688,70.96423510147262,2.8748660186833437,1.1147035983120266,A,14,Correct
1,new_learn,22,369,A,24.914747916584165,43.40950497422736,1.2457373958292082,0.6818749096150113,A,614,Correct
1,new_learn,22,370,A,26.84682688070898,41.13022696071464,1.3423413440354492,0.6460720943013097,A,757,Incorrect
1,new_learn,22,371,A,29.609433738305935,59.86651290222689,1.4804716869152967,0.9403809856483728,B,521,Correct
1,new_learn,22,372,A,13.341460909137314,30.87328172033006,0.6670730454568656,0.48495637522398477,100,468,Incorrect
1,new_learn,22,373,B,33.598504432827994,18.44499965227721,1.6799252216413998,0.28973337701530183,100,356,Incorrect
1,new_learn,22,374,B,32.330715205928946,19.14069705521254,1.6165357602964474,0.30066136626621753,B,862,Correct
1,new_learn,22,375,B,45.48229069797089,22.41468985105235,2.2741145348985445,0.3520891248427988,107,490,Incorrect
1,new_learn,22,376,B,77.16797491404762,60.41037408815246,3.8583987457023805,0.9489239371797548,B,482,Incorrect
1,new_learn,22,377,B,61.20440383185097,35.24803771418487,3.0602201915925487,0.5536748816816958,A,429,Incorrect
1,new_learn,22,378,A,57.670842234576945,74.12234175246692,2.8835421117288473,1.1643110215821104,A,281,Incorrect
1,new_learn,22,379,B,73.92212878198904,46.17608799037916,3.6961064390994522,0.7253322940104552,B,263,Incorrect
1,new_learn,22,380,A,22.492853423219913,47.94747097334617,1.1246426711609956,0.7531571128403708,B,354,Incorrect
1,new_learn,22,381,B,84.93720834767163,60.008141475002624,4.246860417383582,0.942605682067226,A,492,Correct
1,new_learn,22,382,B,74.69784596994046,49.77844959689261,3.7348922984970225,0.781918057803438,A,424,Incorrect
1,new_learn,22,383,A,22.052051970658308,33.965073073118916,1.1026025985329155,0.5335221202257544,A,380,Correct
1,new_learn,22,384,B,42.538186569257775,20.097188469587053,2.126909328462889,0.3156858982693209,A,278,Incorrect
1,new_learn,22,385,A,48.40230147864935,78.35441135634615,2.4201150739324673,1.2307882154672487,B,372,Correct
1,new_learn,22,386,A,52.04735339393034,67.6475201571294,2.602367669696517,1.062604761796026,B,718,Correct
1,new_learn,22,387,B,42.31216748132839,31.686941550316316,2.1156083740664196,0.4977373139460146,B,384,Incorrect
1,new_learn,22,388,A,39.682322075424175,47.046951635121104,1.9841161037712087,0.7390117881534539,A,381,Incorrect
1,new_learn,22,389,B,49.508308176559105,26.818796474206813,2.475415408827955,0.4212686699074399,B,492,Incorrect
1,new_learn,22,390,B,60.64300289252703,31.56423912852957,3.0321501446263515,0.4958099088117,A,531,Correct
1,new_learn,22,391,A,33.56275031165715,46.799062664582756,1.6781375155828573,0.7351179573097079,107,651,Incorrect
1,new_learn,22,392,B,81.88919934581648,64.20221565175282,4.094459967290824,1.0084860451786715,B,381,Correct
1,new_learn,22,393,B,45.88211336688403,26.78712839457593,2.2941056683442014,0.4207712288758314,B,810,Incorrect
1,new_learn,22,394,A,43.8133997427171,75.4166716469438,2.190669987135855,1.1846423080211612,A,581,Incorrect
1,new_learn,22,395,B,36.454752024401714,25.419488470777118,1.8227376012200858,0.3992883911890192,B,856,Incorrect
1,new_learn,22,396,B,81.31166802750094,67.87916348084927,4.065583401375047,1.0662434066162834,A,1168,Correct
1,new_learn,22,397,A,26.03488650341817,40.176095933423476,1.3017443251709084,0.6310846391718097,B,863,Correct
1,new_learn,22,398,B,45.57027164548502,33.61770384136586,2.2785135822742513,0.5280656570929618,B,514,Correct
1,new_learn,22,399,B,71.95419938401945,59.45528505174585,3.597709969200972,0.933921433678259,B,674,Correct
1,new_learn,22,400,B,43.06818664862428,31.158089157768572,2.153409332431214,0.48943011998970765,B,709,Correct
1,new_learn,22,401,B,60.097663389410044,30.544162637363893,3.0048831694705025,0.47978658475797126,B,482,Incorrect
1,new_learn,22,402,B,59.151473515428044,49.212787267812715,2.957573675771402,0.7730326547161888,A,389,Incorrect
1,new_learn,22,403,A,40.10234563038337,55.89093643659342,2.0051172815191682,0.8779327765572799,B,438,Correct
1,new_learn,22,404,A,61.513675740962555,81.3236531791835,3.0756837870481273,1.2774289569540356,B,691,Incorrect
1,new_learn,22,405,A,32.966784987316416,45.507758669143485,1.6483392493658209,0.7148342015815919,A,739,Incorrect
1,new_learn,22,406,B,81.20577913898376,63.30018276857918,4.060288956949188,0.9943169457832978,B,472,Correct
1,new_learn,22,407,B,67.63944312269345,50.92969217567874,3.381972156134673,0.8000017339435096,B,548,Incorrect
1,new_learn,22,408,B,66.86166733770143,46.733364974294965,3.3430833668850717,0.734085980403878,A,339,Correct
1,new_learn,22,409,A,35.26095752891886,50.83835717318113,1.7630478764459427,0.7985670470791989,A,717,Correct
1,new_learn,22,410,A,44.56766477400152,54.08050365346975,2.228383238700076,0.8494945649008825,A,846,Incorrect
1,new_learn,22,411,A,30.18642199431666,42.924774802875376,1.509321099715833,0.6742607858885477,B,480,Correct
1,new_learn,22,412,A,38.8155369791382,65.44904377186627,1.94077684895691,1.0280711754908594,B,719,Incorrect
1,new_learn,22,413,A,23.352612629560905,42.54109265128619,1.1676306314780454,0.6682339207448171,A,528,Correct
1,new_learn,22,414,B,39.165784845395805,28.891670864953326,1.9582892422697904,0.4538293046963582,A,1554,Correct
1,new_learn,22,415,A,49.803901608159904,57.10240699452903,2.490195080407995,0.8969625115815341,A,1133,Correct
1,new_learn,22,416,A,45.13527673556451,76.96255483027326,2.2567638367782252,1.2089249842814407,A,374,Incorrect
1,new_learn,22,417,B,66.35360704645291,55.73435562848643,3.3176803523226455,0.8754732109750696,B,665,Incorrect
1,new_learn,22,418,A,23.829845798902788,40.71480313445898,1.1914922899451394,0.6395466320978552,A,338,Correct
1,new_learn,22,419,A,64.76864057466382,88.40046296885588,3.2384320287331914,1.388591225184471,A,334,Incorrect
1,new_learn,22,420,A,48.97908707978645,68.34503679285305,2.4489543539893224,1.0735613274887563,B,694,Correct
1,new_learn,22,421,B,46.74530974835608,17.602204690800352,2.337265487417804,0.2764947847180109,A,280,Incorrect
1,new_learn,22,422,B,79.09554671517476,53.939773151710774,3.954777335758738,0.8472839753485728,A,616,Correct
1,new_learn,22,423,B,71.44616291217936,40.53130875730291,3.572308145608968,0.6366643091616123,A,485,Correct
1,new_learn,22,424,A,43.79804740357652,51.310145721146846,2.189902370178826,0.8059778842608836,A,826,Correct
1,new_learn,22,425,A,13.11780919335278,36.85145443831938,0.655890459667639,0.5788612926876155,A,691,Incorrect
1,new_learn,22,426,B,83.74464090409917,68.04712007274651,4.187232045204959,1.068881662592415,B,738,Incorrect
1,new_learn,22,427,B,43.30476730002522,18.84093338516711,2.1652383650012608,0.29595268954807835,A,314,Correct
1,new_learn,22,428,B,31.215097701535868,14.341439024846096,1.5607548850767932,0.22527479741181228,A,362,Incorrect
1,new_learn,22,429,A,36.66736383405986,66.48642610415993,1.8333681917029931,1.0443663390613473,B,690,Correct
1,new_learn,22,430,B,74.05020229611567,49.56065228256546,3.7025101148057837,0.7784969055901294,B,843,Correct
1,new_learn,22,431,A,57.82451874166636,81.60284605183395,2.891225937083318,1.281814508342302,B,528,Correct
1,new_learn,22,432,B,40.16705353233395,29.515345506133556,2.0083526766166977,0.4636259630511685,B,663,Correct
1,new_learn,22,433,A,34.40661684344677,60.55502195634164,1.7203308421723387,0.9511960605800577,B,1956,Incorrect
1,new_learn,22,434,B,54.48770845147771,27.282136197930242,2.724385422573885,0.4285467932682691,A,491,Correct
1,new_learn,22,435,A,26.825231900530028,49.648033394410646,1.3412615950265012,0.779869484885306,A,679,Incorrect
1,new_learn,22,436,A,54.51142214838217,71.50057108982355,2.7255711074191082,1.123128344316322,B,608,Correct
1,new_learn,22,437,A,56.04749774580836,65.97240065533437,2.802374887290418,1.0362920461924046,B,1920,Correct
1,new_learn,22,438,B,63.61400117159998,42.66522490654039,3.180700058579999,0.6701837856507177,B,623,Incorrect
1,new_learn,22,439,A,10.941206433068842,33.0964252009995,0.5470603216534421,0.5198774313577205,A,414,Incorrect
1,new_learn,22,440,B,41.650405927793244,19.382975575387857,2.0825202963896623,0.3044670683617444,B,460,Correct
1,new_learn,22,441,B,78.93160435445259,66.80329186156273,3.9465802177226292,1.0493436547395014,B,675,Correct
1,new_learn,22,442,B,61.05012052678028,37.870707913162555,3.052506026339014,0.5948716888311817,B,481,Incorrect
1,new_learn,22,443,A,37.12505674687624,49.13514823393986,1.8562528373438119,0.7718131036239548,A,468,Correct
1,new_learn,22,444,B,74.31136301731776,50.027142269406234,3.715568150865888,0.7858245131682902,A,897,Incorrect
1,new_learn,22,445,A,36.79125305225359,67.47286667024005,1.8395626526126794,1.0598613112393487,B,1284,Correct
1,new_learn,22,446,B,50.45228197959711,40.82774307308253,2.5226140989798553,0.6413206885052383,B,1257,Incorrect
1,new_learn,22,447,A,62.57289477414633,85.97173107470923,3.128644738707316,1.3504407938035192,B,572,Incorrect
1,new_learn,22,448,B,55.22777642630746,25.804675812962458,2.7613888213153728,0.40533889981134535,B,791,Correct
1,new_learn,22,449,A,23.150101868658453,50.14212281987815,1.1575050934329227,0.7876306234316316,B,6358,Incorrect
1,new_learn,22,450,A,44.49435393480961,65.68915977620887,2.2247176967404805,1.0318429088671195,A,98,Incorrect
1,new_learn,22,451,A,30.366420820403295,48.07335571434406,1.5183210410201646,0.7551345057279609,B,512,Correct
1,new_learn,22,452,B,54.740092770703825,42.7586190458521,2.737004638535191,0.6716508173604677,B,545,Correct
1,new_learn,22,453,A,67.16005729173074,80.13585259377919,3.3580028645865365,1.2587710289888565,100,928,Incorrect
1,new_learn,22,454,A,68.8224370267806,86.32682761128368,3.4411218513390303,1.3560186371566065,B,1263,Correct
1,new_learn,22,455,A,31.9216708061087,40.68515396665086,1.596083540305435,0.6390809040589999,B,1276,Correct
1,new_learn,22,456,A,50.301765768029014,71.54301937578524,2.5150882884014507,1.1237951204329957,B,1014,Correct
1,new_learn,22,457,A,19.535578726569486,48.49468896925032,0.9767789363284742,0.7617527930195939,A,181,Correct
1,new_learn,22,458,B,68.568285308333,47.28163752435493,3.42841426541665,0.7426982254810446,A,620,Incorrect
1,new_learn,22,459,A,22.408497374623927,38.999584921551175,1.1204248687311962,0.6126040474129822,B,198,Incorrect
1,new_learn,22,460,A,27.966600113316062,39.681996019639655,1.3983300056658032,0.6233233358753968,A,411,Incorrect
1,new_learn,22,461,A,43.66162129083381,52.35213125837079,2.1830810645416903,0.8223453548053312,100,359,Correct
1,new_learn,22,462,B,81.26852977185946,67.90945829009438,4.063426488592973,1.0667192763671147,100,314,Correct
1,new_learn,22,463,B,78.54254190915023,61.94319338259196,3.9271270954575117,0.9730014063532139,100,500,Correct
1,new_learn,22,464,B,71.45414514156299,54.05396470729742,3.5727072570781497,0.8490776921092378,100,725,Correct
1,new_learn,22,465,A,57.43855018848642,85.98299231783218,2.871927509424321,1.350617684996846,107,667,Correct
1,new_learn,22,466,A,26.270743843034783,41.52036139861339,1.3135371921517391,0.6522003117213853,107,736,Incorrect
1,new_learn,22,467,B,73.7893362652594,48.91410702943389,3.6894668132629698,0.7683409965028719,107,619,Incorrect
1,new_learn,22,468,A,37.01390028349615,49.1838638116166,1.8506950141748075,0.7725783261286778,107,540,Incorrect
1,new_learn,22,469,B,61.2387783327609,33.005781798785385,3.061938916638045,0.5184536081252594,100,512,Correct
1,new_learn,22,470,A,55.11930644579814,68.86476576783181,2.7559653222899065,1.0817252111370115,100,438,Incorrect
1,new_learn,22,471,B,68.68885137313421,59.055706458169865,3.4344425686567104,0.9276448678077088,100,595,Correct
1,new_learn,22,472,A,23.19167138202355,54.556714661867765,1.1595835691011773,0.8569748699285916,100,526,Incorrect
1,new_learn,22,473,B,62.83949032610549,38.73441271394067,3.1419745163052744,0.6084387321161554,107,559,Incorrect
1,new_learn,22,474,A,27.358148910696592,52.836553584066834,1.3679074455348297,0.8299546429035389,107,566,Correct
1,new_learn,22,475,B,66.8364829886253,50.891051410342115,3.3418241494312655,0.7993947662209563,107,799,Incorrect
1,new_learn,22,476,A,29.097017856317002,39.73994130219246,1.4548508928158501,0.6242335382452872,100,637,Correct
1,new_learn,22,477,B,42.751155031211255,34.738881079179606,2.137557751560563,0.5456770679614006,107,558,Correct
1,new_learn,22,478,B,47.85147249457917,21.872242649736954,2.392573624728959,0.34356838412973484,100,357,Incorrect
1,new_learn,22,479,B,76.69114018177413,60.296827253104695,3.8345570090887064,0.9471403476656326,100,350,Incorrect
1,new_learn,22,480,B,57.35490279522439,38.80442151087738,2.8677451397612197,0.6095384277268707,100,294,Incorrect
1,new_learn,22,481,A,21.091992150658477,40.47171168196144,1.054599607532924,0.6357281604912713,107,296,Correct
1,new_learn,22,482,B,67.05667501410916,57.77511272389269,3.3528337507054577,0.9075293484685173,100,469,Correct
1,new_learn,22,483,A,51.685306675421835,69.41039711455913,2.584265333771092,1.090295968289246,107,602,Incorrect
1,new_learn,22,484,A,31.936892418019212,53.58236251650352,1.5968446209009608,0.8416697822191629,100,586,Correct
1,new_learn,22,485,B,63.015259825744664,36.54767170679576,3.1507629912872335,0.5740894846994055,100,581,Correct
1,new_learn,22,486,A,45.97353417355633,72.47779768166927,2.298676708677817,1.1384785837254974,100,617,Incorrect
1,new_learn,22,487,A,43.92783100239978,55.42566529831652,2.196391550119989,0.8706243146075896,100,417,Correct
1,new_learn,22,488,B,54.93344622363083,42.35633621346884,2.7466723111815416,0.6653317734060652,100,354,Incorrect
1,new_learn,22,489,B,77.20200693197593,62.301586018929285,3.8601003465987964,0.9786310247203039,100,554,Incorrect
1,new_learn,22,490,A,47.49565227913002,66.52048772503873,2.374782613956501,1.0449013777509584,100,280,Correct
1,new_learn,22,491,A,36.63857386104659,48.33697816309038,1.8319286930523293,0.7592754774694749,100,602,Incorrect
1,new_learn,22,492,B,62.755717853320036,39.50299762567964,3.137785892666002,0.620511635678051,100,431,Incorrect
1,new_learn,22,493,A,20.55710427361657,45.784303357306825,1.0278552136808285,0.7191781553852081,100,469,Incorrect
1,new_learn,22,494,B,40.57219948637797,16.79582865499433,2.0286099743188983,0.2638282595674156,107,1747,Correct
1,new_learn,22,495,B,73.35201077331618,59.1837024577526,3.667600538665809,0.9296554242675987,100,2887,Correct
1,new_learn,22,496,B,64.26640420730382,42.830734912879855,3.213320210365191,0.6727836107507761,100,689,Correct
1,new_learn,22,497,B,71.07514712762648,59.73385732056215,3.5537573563813236,0.9382972366442947,100,2429,Incorrect
1,new_learn,22,498,A,52.01779838606383,79.58373939491122,2.6008899193031914,1.2500984551412884,100,1700,Incorrect
1,new_learn,22,499,A,38.27447550125791,51.28212406536261,1.9137237750628955,0.8055377211211175,100,539,Correct
1,new_learn,22,500,A,50.70417168205833,77.45794777765396,2.5352085841029166,1.2167065985020975,100,916,Correct
1,new_learn,22,501,A,52.521657098370795,68.10450848396017,2.6260828549185398,1.069783117647765,100,397,Correct
1,new_learn,22,502,A,30.383165261027777,58.52911770710484,1.519158263051389,0.9193732310486641,100,803,Correct
1,new_learn,22,503,B,52.81373068671518,31.63577835153427,2.640686534335759,0.49693364429887543,107,1001,Correct
1,new_learn,22,504,A,28.164384072272533,45.82183487647698,1.4082192036136265,0.7197676991097232,100,600,Incorrect
1,new_learn,22,505,A,37.42070103340701,48.60982590349788,1.8710350516703504,0.7635613597535389,107,1187,Correct
1,new_learn,22,506,B,40.551843160689046,31.248220471083904,2.027592158034452,0.4908458993485569,100,1633,Incorrect
1,new_learn,22,507,B,81.6408558579279,61.40693002124777,4.082042792896395,0.9645778011712725,100,5955,Incorrect
1,new_learn,22,508,B,45.4551885805468,20.908371782488306,2.27275942902734,0.3284279359519469,107,789,Correct
1,new_learn,22,509,B,71.4483854169243,39.99232681112029,3.572419270846215,0.6281980005488881,100,538,Correct
1,new_learn,22,510,B,81.97062555271627,60.96711316075739,4.098531277635813,0.9576691740820651,100,1987,Correct
1,new_learn,22,511,A,40.233988042398245,58.09077439854715,2.011699402119912,0.9124877504590887,100,655,Incorrect
1,new_learn,22,512,B,85.23138833435414,59.55845174659195,4.261569416717707,0.9355419723313773,107,912,Correct
1,new_learn,22,513,B,70.85014094865555,45.71195998528883,3.542507047432778,0.71804178835487,100,636,Incorrect
1,new_learn,22,514,A,53.99475573876122,82.87232356964525,2.6997377869380608,1.3017554145615688,100,703,Incorrect
1,new_learn,22,515,A,17.439156226694323,37.812243248058806,0.8719578113347162,0.593953328019259,100,2163,Incorrect
1,new_learn,22,516,A,14.23027751576112,38.198086393335174,0.7115138757880559,0.6000141379724501,107,338,Incorrect
1,new_learn,22,517,A,32.38528967607642,48.69550951644718,1.6192644838038208,0.7649072747984118,100,822,Incorrect
1,new_learn,22,518,A,35.672111812482115,50.21854135437579,1.7836055906241057,0.7888310029645109,107,582,Incorrect
1,new_learn,22,519,B,38.33434478937244,20.16699931516067,1.9167172394686218,0.3167824844672958,B,202,Incorrect
1,new_learn,22,520,B,65.91533781710214,56.23324962410912,3.295766890855107,0.8833098195329111,107,245,Incorrect
1,new_learn,22,521,B,62.35137902940892,45.69081384226719,3.117568951470446,0.7177096255170271,107,481,Incorrect
1,new_learn,22,522,B,66.49462497527213,45.94742142810561,3.3247312487636065,0.7217404080496542,100,414,Incorrect
1,new_learn,22,523,A,41.169469237877905,57.33247705196829,2.0584734618938954,0.900576443592845,107,524,Correct
1,new_learn,22,524,B,38.85100376985409,26.091642287474546,1.9425501884927043,0.4098465586521141,100,333,Incorrect
1,new_learn,22,525,A,35.43776751527712,47.62580485977109,1.7718883757638562,0.7481043933437896,107,455,Incorrect
1,new_learn,22,526,B,68.02087589778745,39.11835897532162,3.4010437948893726,0.6144697458867937,100,397,Incorrect
1,new_learn,22,527,A,34.11227279139449,64.15396393354904,1.7056136395697246,1.0077281089615109,107,344,Correct
1,new_learn,22,528,B,82.28769274449057,53.2203698007301,4.1143846372245285,0.8359836139365289,100,3778,Correct
1,new_learn,22,529,A,28.10768145831089,59.95233958297294,1.4053840729155445,0.9417291479969416,100,616,Correct
1,new_learn,22,530,B,41.24610427197791,19.77962430232986,2.0623052135988957,0.31069761199482815,100,761,Correct
1,new_learn,22,531,A,59.85105098051224,79.76536897853549,2.992552549025612,1.2529514859692314,107,494,Incorrect
1,new_learn,22,532,A,55.554375132592185,62.96792957103038,2.7777187566296093,0.9890979247605428,107,322,Incorrect
1,new_learn,22,533,A,50.98467847313282,78.11544720332812,2.549233923656641,1.2270345753292848,A,439,Incorrect
1,new_learn,22,534,B,58.45384411408439,33.39433222365762,2.9226922057042195,0.5245569439268984,B,1404,Incorrect
1,new_learn,22,535,B,60.29228840487118,28.969368249664782,3.014614420243559,0.4550497723614214,100,509,Correct
1,new_learn,22,536,A,25.445970809957917,48.092607863079465,1.2722985404978957,0.7554369177731257,107,564,Correct
1,new_learn,22,537,A,15.763963772502397,41.501150076039934,0.7881981886251198,0.6518985409720728,107,389,Correct
1,new_learn,22,538,B,47.44997945903789,24.709867612092268,2.3724989729518944,0.3881416928066272,107,424,Correct
1,new_learn,22,539,B,48.22742290814955,23.391741068459183,2.4113711454074775,0.3674366094767301,107,1111,Correct
1,new_learn,22,540,B,72.22738037382236,62.82814354310061,3.611369018691118,0.9869021709684493,107,525,Correct
1,new_learn,22,541,A,27.655189168468727,45.255215876985034,1.3827594584234364,0.7108672686787817,100,358,Correct
1,new_learn,22,542,B,54.25465844399099,27.727659646658847,2.7127329221995495,0.43554505923590797,107,484,Correct
1,new_learn,22,543,B,47.31367024549498,35.03439158218216,2.365683512274749,0.5503189360878579,107,901,Correct
1,new_learn,22,544,A,41.55009344378476,65.03069144187961,2.077504672189238,1.0214997124583682,107,433,Incorrect
1,new_learn,22,545,B,72.2023396602344,55.17788260492013,3.61011698301172,0.8667321531612856,100,548,Incorrect
1,new_learn,22,546,B,54.12659389465565,35.962074696430385,2.7063296947327826,0.5648909483707654,B,385,Incorrect
1,new_learn,22,547,A,17.449893256938466,40.35851771940627,0.8724946628469233,0.6339501138853012,100,252,Correct
1,new_learn,22,548,B,63.47381800847857,43.753415400380646,3.1736909004239284,0.6872770419564918,100,314,Incorrect
1,new_learn,22,549,B,68.53953899311446,44.1512221079843,3.4269769496557227,0.6935257751072738,100,483,Correct
1,new_learn,22,550,B,58.836390831959214,45.92291034549295,2.941819541597961,0.7213553888643169,107,654,Correct
1,new_learn,22,551,A,46.1536467836829,62.326783098123784,2.3076823391841454,0.9790268195147508,107,801,Correct
1,new_learn,22,552,A,34.51943345513876,53.88134052492953,1.725971672756938,0.8463661177934431,107,694,Correct
1,new_learn,22,553,A,33.819595788081934,61.652149510651384,1.6909797894040965,0.9684296999034097,100,640,Correct
1,new_learn,22,554,B,64.64674672880531,39.41834274130413,3.232337336440265,0.619181879863828,107,397,Correct
1,new_learn,22,555,B,66.54194818071376,43.236683049962096,3.3270974090356877,0.6791602291767562,107,576,Incorrect
1,new_learn,22,556,A,40.024079026806284,67.724645937723,2.001203951340314,1.0638162507246018,107,416,Correct
1,new_learn,22,557,A,61.982942978624145,75.74365463269372,3.0991471489312072,1.1897785447505655,100,328,Correct
1,new_learn,22,558,A,12.463955286041031,32.61032353046605,0.6231977643020515,0.5122417641724925,107,806,Incorrect
1,new_learn,22,559,B,70.31586268250317,58.35906733333141,3.5157931341251585,0.9167020860237303,107,384,Correct
1,new_learn,22,560,B,86.35108048749015,65.59750102006095,4.317554024374507,1.0304031364923623,107,700,Correct
1,new_learn,22,561,A,44.97100764177089,69.9193407369161,2.248550382088544,1.098290436014686,107,437,Incorrect
1,new_learn,22,562,B,51.75346564007171,42.44353262603247,2.587673282003585,0.6667014514517116,107,421,Correct
1,new_learn,22,563,B,41.113818752405315,32.49445011676407,2.0556909376202657,0.5104216288463299,100,618,Incorrect
1,new_learn,22,564,B,67.06391612507912,54.99483107111888,3.353195806253956,0.863856786392194,107,393,Correct
1,new_learn,22,565,A,54.859560867017166,79.64265942157117,2.7429780433508584,1.2510239687558096,100,388,Incorrect
1,new_learn,22,566,A,24.88784753690318,51.791404398178365,1.244392376845159,0.8135374778820763,107,467,Correct
1,new_learn,22,567,A,64.37654101225247,83.50977288910067,3.2188270506126235,1.3117684450567535,100,622,Correct
1,new_learn,22,568,B,74.39093399993797,42.390214570323714,3.7195466999968985,0.6658639333911199,107,488,Correct
1,new_learn,22,569,B,45.98247916482799,34.336398463787724,2.2991239582414,0.5393548858228367,107,435,Correct
1,new_learn,22,570,A,40.518765295359614,55.31543121433926,2.025938264767981,0.8688927616655988,107,777,Correct
1,new_learn,22,571,B,75.60636748751257,59.6450842364379,3.7803183743756286,0.9369027922996884,107,488,Correct
1,new_learn,22,572,B,60.12773092774538,49.83521202192063,3.006386546387269,0.7828096798907781,100,685,Incorrect
1,new_learn,22,573,B,45.09671026660844,16.213801139523678,2.254835513330422,0.254685792733467,107,462,Incorrect
1,new_learn,22,574,B,66.98446369292708,47.59409019909394,3.349223184646354,0.7476062206188174,100,667,Correct
1,new_learn,22,575,A,61.37600481881253,83.56848058627891,3.0688002409406265,1.3126906234075753,100,995,Correct
1,new_learn,22,576,B,87.37467420608186,62.93284768047661,4.3687337103040935,0.988546859712354,107,667,Correct
1,new_learn,22,577,A,22.191975843213115,41.33552815088418,1.1095987921606558,0.649296957855359,107,671,Correct
1,new_learn,22,578,B,47.48892335742803,34.55248659159235,2.3744461678714015,0.5427491901970317,100,2454,Incorrect
1,new_learn,22,579,A,49.31000876837489,73.17073818599445,2.465500438418745,1.1493632677143115,100,766,Correct
1,new_learn,22,580,A,43.453837752298746,62.284715872045,2.172691887614937,0.9783660290727207,107,1258,Correct
1,new_learn,22,581,A,17.92843251312997,36.3178000007607,0.8964216256564984,0.5704786683846659,107,883,Incorrect
1,new_learn,22,582,A,31.9339081076835,60.7763191491466,1.5966954053841749,0.9546721887559381,107,625,Correct
1,new_learn,22,583,A,42.30321116655123,68.88327050392164,2.1151605583275614,1.0820158828517936,107,575,Incorrect
1,new_learn,22,584,A,54.25470549038337,83.12880322522109,2.712735274519168,1.3057841875703304,107,1312,Incorrect
1,new_learn,22,585,A,56.12125695115668,78.04880401090213,2.806062847557834,1.2259877465105986,100,1088,Correct
1,new_learn,22,586,A,47.557970238812906,58.9331802795457,2.3778985119406455,0.9257202310945183,100,719,Incorrect
1,new_learn,22,587,B,63.981533354706336,40.68728136852625,3.1990766677353166,0.6391143212095147,107,425,Correct
1,new_learn,22,588,B,35.38017307007297,17.31763192030245,1.7690086535036484,0.27202472609197137,107,395,Correct
1,new_learn,22,589,B,47.51627523126972,28.488836529436565,2.375813761563486,0.44750159775099224,100,528,Incorrect
1,new_learn,22,590,A,31.495649021405107,62.43930340751578,1.5747824510702555,0.9807942844015786,107,358,Incorrect
1,new_learn,22,591,A,41.90036681693802,55.80719160514624,2.0950183408469005,0.876617315821027,107,340,Incorrect
1,new_learn,22,592,B,41.3637838691197,18.186574674130718,2.068189193455985,0.28567404695105625,107,286,Incorrect
1,new_learn,22,593,A,35.47786006686213,56.963754418033915,1.7738930033431064,0.8947845620029423,107,309,Correct
1,new_learn,22,594,B,68.48953969407832,54.26867539188272,3.4244769847039156,0.8524503596559397,107,561,Incorrect
1,new_learn,22,595,B,69.74132746769278,44.982324148011585,3.487066373384639,0.7065806954239398,100,703,Incorrect
1,new_learn,22,596,A,67.98483377389708,85.50421667824897,3.399241688694854,1.3430970948366843,100,612,Correct
1,new_learn,22,597,B,31.678359388624326,14.534253441073073,1.5839179694312162,0.22830351917943667,107,2753,Correct
1,new_learn,22,598,A,63.75593682794364,84.87582937299517,3.187796841397182,1.333226410127712,100,647,Correct
1,new_learn,22,599,A,45.588269130638835,63.14417028904796,2.2794134565319415,0.9918663074854799,100,752,Incorrect
1,new_learn,22,600,B,50.485335651259014,24.47594706313528,2.524266782562951,0.3844672774159923,107,469,Incorrect
1,new_learn,22,601,B,48.59394909876568,28.12421045536739,2.429697454938284,0.44177406477297715,107,2091,Correct
1,new_learn,22,602,A,68.10450848396017,47.478342901629205,3.4052254241980084,0.745788066321877,100,330,Incorrect
1,new_learn,22,603,B,32.450070107068484,52.882928299547444,1.6225035053534242,0.8306830952308701,A,281,Incorrect
1,new_learn,22,604,A,51.16179601810788,63.33200669698422,2.558089800905394,0.994816834881726,B,245,Incorrect
1,new_learn,22,605,A,68.26314291791668,58.81473584716839,3.413157145895834,0.9238597103014424,B,109,Incorrect
1,new_learn,22,606,A,51.28212406536261,61.72552449874209,2.5641062032681305,0.9695822715211246,A,450,Correct
1,new_learn,22,607,B,56.128473023723956,31.06775138453783,2.8064236511861975,0.48801109756609085,A,442,Incorrect
1,new_learn,22,608,A,68.41549196200704,50.90965761487551,3.4207745981003517,0.7996870317983229,A,318,Correct
1,new_learn,22,609,A,52.35213125837079,56.33837870916619,2.617606562918539,0.8849611833393807,A,553,Correct
1,new_learn,22,610,A,53.58236251650352,68.06310758198079,2.679118125825176,1.0691327938002129,A,462,Correct
1,new_learn,22,611,B,24.025384633456433,47.25798342085518,1.2012692316728217,0.7423266676921344,A,325,Incorrect
1,new_learn,22,612,B,60.296827253104695,23.30885981822587,3.014841362655235,0.3661347138424635,B,329,Correct
1,new_learn,22,613,A,49.48842046022396,68.45548115766616,2.474421023011198,1.0752961835143924,B,277,Incorrect
1,new_learn,22,614,A,59.86651290222689,70.39056626169406,2.9933256451113444,1.105692429248818,100,264,Incorrect
1,new_learn,22,615,B,30.095663897135434,47.788124704936585,1.5047831948567716,0.7506541075093084,B,169,Correct
1,new_learn,22,616,A,40.22659424543592,83.19375547887054,2.011329712271796,1.3068044551848264,100,288,Incorrect
1,new_learn,22,617,A,53.97225606771416,63.46141662116348,2.698612803385708,0.9968496012172419,107,534,Correct
1,new_learn,22,618,B,26.818796474206813,50.491691823440895,1.3409398237103405,0.7931216404992086,100,315,Correct
1,new_learn,22,619,A,32.61032353046605,87.53604471395897,1.6305161765233023,1.375012974988406,100,466,Incorrect
1,new_learn,22,620,A,49.986544300618405,70.44470139149018,2.4993272150309203,1.106542781879161,100,297,Incorrect
1,new_learn,22,621,B,17.494991198249956,60.41010811379025,0.8747495599124977,0.948919759264243,100,284,Correct
1,new_learn,22,622,A,42.54109265128619,76.64738737043909,2.1270546325643096,1.2039743453991127,100,495,Incorrect
1,new_learn,22,623,B,59.45528505174585,28.045800615980554,2.972764252587292,0.440542405896043,107,550,Incorrect
1,new_learn,22,624,A,69.21812332840295,55.0943619956038,3.4609061664201475,0.865420214498028,107,660,Correct
1,new_learn,22,625,B,30.872941475179395,36.305679498749264,1.5436470737589698,0.5702882799842813,100,1225,Correct
1,new_learn,22,626,B,37.27335472275717,31.70955728502412,1.8636677361378586,0.49809256107608235,100,816,Correct
1,new_learn,22,627,A,50.408325710627636,65.30644592716924,2.520416285531382,1.0258312537842698,100,561,Incorrect
1,new_learn,22,628,A,78.76317603238917,46.29173382962911,3.938158801619459,0.7271488546054846,100,515,Incorrect
1,new_learn,22,629,B,24.25812945768022,55.55273666426522,1.2129064728840109,0.8726203469563197,107,470,Incorrect
1,new_learn,22,630,B,63.30018276857918,18.794220861016242,3.165009138428959,0.29521893093456336,107,425,Incorrect
1,new_learn,22,631,A,86.72288034431521,40.823783568916696,4.336144017215761,0.6412584927592418,100,661,Correct
1,new_learn,22,632,B,38.80442151087738,42.64509720477561,1.9402210755438691,0.6698676204507283,100,477,Incorrect
1,new_learn,22,633,B,69.34953175410848,13.395163602152081,3.4674765877054243,0.21041073783077183,100,2749,Correct
1,new_learn,22,634,B,24.15482289316304,54.86612189978999,1.207741144658152,0.8618350274567115,100,687,Correct
1,new_learn,22,635,A,83.12880322522109,45.74529450961663,4.156440161261054,0.7185654058385653,100,357,Incorrect
1,new_learn,22,636,B,31.431564310619947,50.28108377004324,1.5715782155309972,0.7898134169325041,107,60,Incorrect
1,new_learn,22,637,B,40.152860652806275,48.562251245385006,2.007643032640314,0.7628140587714166,107,355,Incorrect
1,new_learn,22,638,B,17.317631920302446,64.61982692992703,0.8658815960151223,1.015045867796513,107,417,Incorrect
1,new_learn,22,639,A,48.53973367911526,69.61049481563487,2.426986683955763,1.0934390956277444,B,356,Incorrect
1,new_learn,22,640,A,75.1963922286943,41.0952355831314,3.759819611434715,0.6455224510275372,A,352,Correct
1,new_learn,22,641,A,40.68515396665086,68.0783291938913,2.034257698332543,1.0693718943209822,A,79,Correct
1,new_learn,22,642,B,34.5432434937747,32.45800053832275,1.7271621746887351,0.5098490802070416,A,612,Incorrect
1,new_learn,22,643,A,63.87608538538049,61.46898807340672,3.193804269269025,0.9655526067750658,B,2228,Incorrect
1,new_learn,22,644,B,40.68728136852625,36.018466645293664,2.0343640684263122,0.5657767510321178,B,716,Correct
1,new_learn,22,645,B,57.12788548966978,26.898406518754257,2.856394274483489,0.4225191815629508,B,1074,Correct
1,new_learn,22,646,B,39.474937082416545,45.338102924799564,1.9737468541208272,0.7121692553812412,B,967,Correct
1,new_learn,22,647,B,60.008141475002624,15.062791652328372,3.0004070737501314,0.23660577798754234,B,816,Correct
1,new_learn,22,648,B,61.93145169707294,15.392827602551137,3.096572584853647,0.24178997057074422,B,3149,Correct
1,new_learn,22,649,B,43.361207518807134,42.36770763631894,2.1680603759403567,0.6655103952984989,B,514,Correct
1,new_learn,22,650,B,62.93284768047661,12.625325793918137,3.1466423840238305,0.19831815381675474,B,547,Correct
1,new_learn,22,651,A,77.82675537557243,40.11384623935953,3.8913377687786213,0.6301068232640122,B,4767,Incorrect
1,new_learn,22,652,A,45.255215876985034,72.34481083153128,2.2627607938492518,1.1363896311684099,B,1824,Incorrect
1,new_learn,22,653,A,83.56848058627891,38.62399518118747,4.178424029313946,0.6067042975675305,A,800,Correct
1,new_learn,22,654,A,69.9193407369161,55.02899235822911,3.4959670368458045,0.8643933906353073,B,1095,Incorrect
1,new_learn,22,655,B,52.22618706343726,33.3396825477453,2.611309353171863,0.5236985088250623,B,585,Correct
1,new_learn,22,656,B,36.571987001572445,52.027760610445796,1.8285993500786222,0.8172501525825246,B,536,Correct
1,new_learn,22,657,B,38.879994028507696,39.281993714606166,1.9439997014253847,0.6170401143608358,B,645,Correct
1,new_learn,22,658,A,44.30069738769655,72.19539294704718,2.2150348693848274,1.134042580527359,B,1023,Incorrect
1,new_learn,22,659,A,79.7379633482184,44.22109886068226,3.98689816741092,0.6946233965719367,B,631,Incorrect
1,new_learn,22,660,B,23.133004428413905,52.924105624796844,1.156650221420695,0.83132990714336,A,445,Incorrect
1,new_learn,22,661,A,33.66346907638507,84.39338419892877,1.6831734538192535,1.325648179054678,B,417,Incorrect
1,new_learn,22,662,B,12.19012587977214,68.82835315347825,0.609506293988607,1.0811532431282556,A,545,Incorrect
1,new_learn,22,663,A,82.9674374404472,37.885568085648934,4.14837187202236,0.595105111874753,A,331,Correct
1,new_learn,22,664,B,46.95710079479126,37.8494676389783,2.3478550397395628,0.5945380473844942,A,361,Incorrect
1,new_learn,22,665,A,33.24417604095423,82.85561115779804,1.6622088020477117,1.301492896610154,B,708,Incorrect
1,new_learn,22,666,B,47.28163752435493,31.431714691666997,2.3640818762177465,0.49372821982535703,A,1198,Incorrect
1,new_learn,22,667,B,43.582928335119085,31.19758327286442,2.179146416755954,0.49005049209893337,B,5205,Correct
1,new_learn,22,668,A,76.61976879642214,43.104722393729695,3.8309884398211067,0.6770873960358432,A,1296,Correct
1,new_learn,22,669,A,74.69517921001132,50.893687330798784,3.7347589605005655,0.799436171162667,A,827,Correct
1,new_learn,22,670,A,54.08050365346975,55.43233522599848,2.7040251826734876,0.8707290855866177,A,800,Correct
1,new_learn,22,671,A,43.40950497422736,75.08525208341584,2.170475248711368,1.1794363816909845,A,3085,Correct
1,new_learn,22,672,B,44.90884574514683,41.43971883724658,2.2454422872573416,0.6509335813296021,A,1065,Incorrect
1,new_learn,22,673,A,65.17139532592648,46.971144877173785,3.258569766296324,0.7378210183841549,A,986,Correct
1,new_learn,22,674,B,40.10698419181016,28.19443807141107,2.0053492095905083,0.44287719758618693,B,696,Correct
1,new_learn,22,675,B,41.755964811283874,45.05898708050012,2.0877982405641937,0.7077849139514828,A,709,Incorrect
1,new_learn,22,676,B,57.125721056808345,34.48916263781123,2.8562860528404173,0.5417544998570567,B,980,Correct
1,new_learn,22,677,A,55.31543121433926,59.481234704640386,2.765771560716963,0.9343290498727423,A,811,Correct
1,new_learn,22,678,A,43.369119728942934,66.4724763240536,2.168455986447147,1.0441472164278411,B,1603,Incorrect
1,new_learn,22,679,A,47.45945934256994,80.01738187056483,2.372972967128497,1.256910095220278,B,1221,Incorrect
1,new_learn,22,680,A,54.57441112356037,58.04194136960237,2.7287205561780183,0.9117206830341615,A,556,Correct
1,new_learn,22,681,A,36.94828295475211,77.68479457330915,1.8474141477376054,1.2202698996357013,B,775,Incorrect
1,new_learn,22,682,A,52.836553584066834,72.6418510893034,2.6418276792033417,1.1410555286265962,A,643,Correct
1,new_learn,22,683,B,34.81808540916491,34.55922155652203,1.7409042704582454,0.5428549827787581,B,694,Correct
1,new_learn,22,684,B,61.24208865715852,17.805521764107567,3.062104432857926,0.27968848183726747,B,850,Correct
1,new_learn,22,685,A,60.481651804769854,58.939789854761294,3.0240825902384927,0.9258240540592215,A,788,Correct
1,new_learn,22,686,B,26.549212746189014,54.22081349241387,1.3274606373094509,0.8516985466971487,A,1095,Incorrect
1,new_learn,22,687,A,85.13762577254006,39.947807796534306,4.256881288627003,0.6274986975030461,B,845,Incorrect
1,new_learn,22,688,A,72.6700976081831,57.647483461426404,3.6335048804091548,0.9055245527017814,A,879,Correct
1,new_learn,22,689,A,30.87328172033006,86.65853909086269,1.543664086016503,1.3612291488933908,B,1186,Incorrect
1,new_learn,22,690,B,38.50216349556925,33.09845569686928,1.9251081747784624,0.5199093263122588,B,1060,Correct
1,new_learn,22,691,B,52.4406640224292,35.06626024049433,2.62203320112146,0.5508195278020243,B,852,Correct
1,new_learn,22,692,A,55.89093643659342,59.89765436961663,2.794546821829671,0.940870154674241,B,1319,Incorrect
1,new_learn,22,693,A,37.24075842036352,81.31135696210141,1.8620379210181761,1.2772358084277753,A,660,Correct
1,new_learn,22,694,B,49.83521202192063,39.87226907225462,2.4917606010960314,0.6263121379967531,B,722,Correct
1,new_learn,22,695,A,43.55469093809512,74.82466872392828,2.177734546904756,1.1753431478519152,A,1046,Correct
1,new_learn,22,696,B,52.623015852789855,20.587245178999055,2.6311507926394926,0.32338369105997655,B,629,Correct
1,new_learn,22,697,A,62.06824162085972,66.58714633113118,3.103412081042986,1.0459484486869512,A,804,Correct
1,new_learn,22,698,A,48.69550951644718,67.61471032392359,2.434775475822359,1.0620893861412013,A,932,Correct
1,new_learn,22,699,B,64.99427530159582,11.799623867480562,3.2497137650797914,0.1853480582859986,B,589,Correct
1,new_learn,22,700,A,50.09649593272035,63.74424563169919,2.5048247966360178,1.001292268925847,A,696,Correct
1,new_learn,22,701,B,27.009326902345688,53.38684676989578,1.3504663451172843,0.8385986280531428,A,1001,Incorrect
1,new_learn,22,702,A,76.42718854312656,53.1721067080886,3.8213594271563283,0.8352254990501187,B,595,Incorrect
1,new_learn,22,703,A,67.48437709278087,53.46777829826017,3.3742188546390435,0.8398698975279097,A,781,Correct
1,new_learn,22,704,A,86.32682761128368,31.177562973219395,4.316341380564183,0.489736013967496,A,975,Correct
1,new_learn,22,705,A,58.09077439854715,59.766011957601755,2.9045387199273573,0.9388023205018071,A,1045,Correct
1,new_learn,22,706,B,42.35965526964195,43.84118879802138,2.1179827634820976,0.6886557832625354,A,1317,Incorrect
1,new_learn,22,707,A,53.157196114455715,63.804925036186184,2.6578598057227856,1.00224541878265,A,900,Correct
1,new_learn,22,708,A,46.72518873742407,61.450415297048494,2.3362594368712037,0.9652608662862471,A,701,Correct
1,new_learn,22,709,A,64.2581527917732,63.745848029506,3.21290763958866,1.0013174393317372,A,674,Correct
1,new_learn,22,710,A,46.427851444887615,77.19967752131885,2.3213925722443807,1.212649698802382,B,1126,Incorrect
1,new_learn,22,711,B,33.39433222365762,41.54615588591561,1.669716611182881,0.652605490580444,B,853,Correct
1,new_learn,22,712,B,29.710301025162146,48.67609590128371,1.4855150512581075,0.7646023264445257,B,785,Correct
1,new_learn,22,713,B,49.56065228256546,25.94979770388433,2.478032614128273,0.4076184691433215,B,837,Correct
1,new_learn,22,714,B,28.882856100980366,39.6589968003224,1.4441428050490182,0.6229620649831699,B,2176,Correct
1,new_learn,22,715,B,24.48503068478216,47.40167544684711,1.224251534239108,0.7445837767583127,B,766,Correct
1,new_learn,22,716,A,68.25914566347748,51.59882399571501,3.4129572831738746,0.810512431994055,B,1126,Incorrect
1,new_learn,22,717,B,25.230163401469525,43.311723886753136,1.2615081700734763,0.6803389678846661,A,728,Incorrect
1,new_learn,22,718,A,47.03694564086524,81.56088982883938,2.351847282043262,1.2811554615326413,B,1372,Incorrect
1,new_learn,22,719,B,43.69705838677086,24.62799312031939,2.1848529193385433,0.38685561129727675,A,947,Incorrect
1,new_learn,22,720,A,69.22143483129923,50.936630323108794,3.461071741564962,0.8001107181084884,B,604,Incorrect
1,new_learn,22,721,B,26.12047721810898,41.55415062605386,1.306023860905449,0.6527310716648725,A,658,Incorrect
1,new_learn,22,722,B,56.99129639336711,29.10617210686584,2.8495648196683554,0.45719868232524935,A,1566,Incorrect
1,new_learn,22,723,A,42.544737807997905,70.12470503039373,2.127236890399895,1.1015162907931808,B,624,Incorrect
1,new_learn,22,724,B,21.872242649736954,52.14852750542083,1.0936121324868477,0.8191471545327768,A,373,Incorrect
1,new_learn,22,725,A,61.95726738084326,65.27966709896697,3.0978633690421633,1.0254106129345097,A,3296,Correct
1,new_learn,22,726,A,82.38100310813829,34.89208565688152,4.1190501554069145,0.5480835998404239,A,942,Correct
1,new_learn,22,727,A,58.115818545164586,63.05280579983304,2.9057909272582294,0.9904311574448968,A,667,Correct
1,new_learn,22,728,B,41.56894041096657,48.686193232757134,2.0784470205483285,0.7647609349564145,B,2978,Correct
1,new_learn,22,729,A,35.49745681315443,85.59504909660616,1.7748728406577214,1.3445238871277778,A,1455,Correct
1,new_learn,22,730,B,18.186574674130718,58.6362161308803,0.909328733706536,0.9210555291553844,B,1302,Correct
1,new_learn,22,731,A,60.32743160165617,65.65415804675591,3.0163715800828084,1.0312931029865577,A,1620,Correct
1,new_learn,22,732,A,63.14417028904796,54.411730869361165,3.1572085144523983,0.85469746984145,A,1662,Correct
1,new_learn,22,733,A,72.47779768166927,54.02646582644367,3.6238898840834635,0.8486457406988772,A,1058,Correct
1,new_learn,22,734,A,39.681996019639655,72.03339988668394,1.9840998009819828,1.1314979994855106,A,2054,Correct
1,new_learn,22,735,A,46.483282162304114,77.00066304562367,2.324164108115206,1.209523586728372,A,1385,Correct
1,new_learn,22,736,A,41.501150076039934,84.2360362274976,2.0750575038019967,1.3231765628991505,A,846,Correct
1,new_learn,22,737,B,63.79955564235965,14.078941692406659,3.1899777821179827,0.22115149895591904,B,1042,Correct
1,new_learn,22,738,A,70.17198425100882,50.106414361183084,3.5085992125504415,0.7870697162740945,A,715,Correct
1,new_learn,22,739,B,20.908371782488306,54.5448114194532,1.0454185891244152,0.856787894233974,A,1923,Incorrect
1,new_learn,22,740,B,66.36526124082054,17.347761467397802,3.318263062041027,0.27249799991102513,B,721,Correct
1,new_learn,22,741,A,51.81504893827077,69.66834601722198,2.590752446913539,1.0943478201772814,A,729,Correct
1,new_learn,22,742,B,16.833766248468407,68.0874868987674,0.8416883124234203,1.0695157432127946,A,1760,Incorrect
1,new_learn,22,743,A,72.1385944554316,44.738545705450754,3.60692972277158,0.7027514326026765,B,381,Incorrect
1,new_learn,22,744,A,36.992838958609184,72.54376130706589,1.849641947930459,1.1395147379302484,A,696,Correct
1,new_learn,22,745,B,21.068293542199573,52.46939322749074,1.0534146771099786,0.8241873015089949,A,734,Incorrect
1,new_learn,22,746,A,70.77172037394081,43.89363803696073,3.5385860186970404,0.6894796539812268,B,445,Incorrect
1,new_learn,22,747,A,61.4557550207906,54.740485940154315,3.0727877510395296,0.8598615424176207,A,378,Correct
1,new_learn,22,748,B,26.091642287474546,61.14899623014591,1.3045821143737273,0.9605261866550817,A,940,Incorrect
1,new_learn,22,749,A,50.8315430598382,69.12233745626088,2.54157715299191,1.0857711377577188,A,696,Correct
1,new_learn,22,750,A,77.31001679974284,37.370919991402204,3.8655008399871416,0.5870210385144056,B,734,Incorrect
1,new_learn,22,751,A,67.6475201571294,47.95264660606966,3.3823760078564704,0.7532384114890799,A,448,Correct
1,new_learn,22,752,B,42.45445986980451,26.071511000134194,2.1227229934902256,0.40953033713003534,A,1085,Incorrect
1,new_learn,22,753,A,41.33552815088418,77.80802415678689,2.066776407544209,1.2222055854064942,B,710,Incorrect
1,new_learn,22,754,B,37.14105016512204,35.987242997686735,1.857052508256102,0.5652862911224168,107,3559,Incorrect
1,new_learn,22,755,A,74.61535051327525,53.12362997445523,3.7307675256637625,0.8344640282988554,100,380,Incorrect
1,new_learn,22,756,B,42.511389118313225,29.319626243472044,2.1255694559156613,0.4605516120624514,B,887,Correct
1,new_learn,22,757,B,24.13522521957278,60.09767880380141,1.2067612609786391,0.9440121311391076,B,1089,Correct
1,new_learn,22,758,B,57.92968314404991,16.706579669485265,2.8964841572024955,0.2624263397813375,B,1011,Correct
1,new_learn,22,759,A,73.43788917977211,48.270098291475776,3.671894458988606,0.7582249309027875,A,821,Correct
1,new_learn,22,760,A,63.37624222966543,61.973339273842434,3.1688121114832715,0.9734749369056559,A,747,Correct
1,new_learn,22,761,B,30.976523436397855,46.17741369620615,1.5488261718198928,0.7253531181488897,A,1610,Incorrect
1,new_learn,22,762,B,42.7586190458521,45.259907229296175,2.137930952292605,0.7109409602685622,B,669,Correct
1,new_learn,22,763,A,54.81571798411231,52.35205452331206,2.7407858992056156,0.8223441494538476,A,757,Correct
1,new_learn,22,764,B,37.452788229267355,44.96888137586417,1.8726394114633678,0.7063695368528288,A,1135,Incorrect
1,new_learn,22,765,A,64.69507263340766,57.8944295049043,3.234753631670383,0.9094035720818976,A,866,Correct
1,new_learn,22,766,A,43.76122271362887,68.84213381380258,2.1880611356814432,1.0813697092344383,A,1288,Correct
1,new_learn,22,767,A,41.75718409253574,77.76078006992925,2.087859204626787,1.2214634770255068,A,1081,Correct
1,new_learn,22,768,A,55.94180943707187,51.03027525966793,2.7970904718535934,0.8015816893321888,A,894,Correct
1,new_learn,22,769,A,73.1404494182574,45.400735653212045,3.65702247091287,0.7131530879785158,A,1114,Correct
1,new_learn,22,770,A,71.48724256587515,41.55779285711867,3.574362128293757,0.652788283696652,A,598,Correct
1,new_learn,22,771,B,13.992136018676447,66.04645308495222,0.6996068009338223,1.037455259036744,B,828,Correct
1,new_learn,22,772,A,42.23515320011667,69.28484410301726,2.1117576600058334,1.0883237861957658,A,1517,Correct
1,new_learn,22,773,A,75.4166716469438,56.1866002572829,3.7708335823471897,0.8825770529923318,A,936,Correct
1,new_learn,22,774,B,52.99116515390281,22.024998166290302,2.64955825769514,0.3459678621727314,A,1026,Incorrect
1,new_learn,22,775,B,56.3454211221939,28.59337753995426,2.817271056109695,0.4491437241041985,A,1103,Incorrect
1,new_learn,22,776,A,43.34054312841454,66.54777985248278,2.167027156420727,1.0453300814863535,A,924,Correct
1,new_learn,22,777,B,29.515345506133556,59.83294646766605,1.4757672753066777,0.9398537253272551,B,649,Correct
1,new_learn,22,778,B,39.50299762567964,37.244282146679964,1.975149881283982,0.5850318159011764,B,1313,Correct
1,new_learn,22,779,A,50.3028694922089,57.08549201750213,2.5151434746104453,0.8966968117437173,A,777,Correct
1,new_learn,22,780,B,42.390214570323714,25.60906600006203,2.1195107285161856,0.40226626805545507,A,1055,Incorrect
1,new_learn,22,781,A,68.57822793225415,61.94119665771958,3.4289113966127074,0.9729700418722624,A,752,Correct
1,new_learn,22,782,B,36.902907054026215,30.523618627323515,1.8451453527013109,0.47946388020288055,B,510,Correct
1,new_learn,22,783,B,67.4125245363559,19.516717413698473,3.3706262268177953,0.3065678802453155,A,2004,Incorrect
1,new_learn,22,784,A,36.46506929888821,75.44656834142734,1.8232534649444105,1.185111924199942,B,502,Incorrect
1,new_learn,22,785,B,41.97487479064863,25.660788936310055,2.0987437395324315,0.40307873003814954,A,1045,Incorrect
1,new_learn,22,786,B,42.66522490654039,36.38599882840002,2.1332612453270197,0.5715499330641416,B,400,Correct
1,new_learn,22,787,A,69.21055985809677,52.92921765658058,3.4605279929048383,0.8314102067508438,B,803,Incorrect
1,new_learn,22,788,B,40.80883065926514,26.276926154038776,2.040441532963257,0.41275699082224854,B,676,Correct
1,new_learn,22,789,A,78.02854462459426,52.390837218250866,3.9014272312297127,0.8229533466013782,A,620,Correct
1,new_learn,22,790,A,75.24847387803915,35.018095796019324,3.7624236939019573,0.5500629624773896,A,1385,Correct
1,new_learn,22,791,A,57.33247705196829,58.830530762122095,2.8666238525984147,0.9241078162453555,A,3319,Correct
1,new_learn,22,792,A,40.77931307557401,79.60376170462685,2.0389656537787006,1.2504129648468412,A,1655,Correct
1,new_learn,22,793,B,53.13647200998348,35.17862524347548,2.656823600499174,0.5525845531414552,A,869,Incorrect
1,new_learn,22,794,B,49.44248358998555,19.91256093780254,2.4721241794992777,0.31278577578179767,B,677,Correct
1,new_learn,22,795,A,45.507758669143485,67.03321501268358,2.275387933457174,1.052955279151759,A,687,Correct
1,new_learn,22,796,A,48.33697816309038,63.36142613895341,2.416848908154519,0.9952789543955416,A,1168,Correct
1,new_learn,22,797,A,62.57779119304735,54.9988818971737,3.128889559652367,0.8639204166190677,A,627,Correct
1,new_learn,22,798,B,55.217044177432214,32.950680404870084,2.760852208871611,0.5175880774536251,A,1234,Incorrect
1,new_learn,22,799,B,13.112099723035001,68.04581693299237,0.6556049861517501,1.0688611929210239,B,700,Correct
1,new_learn,22,800,A,66.71701316296802,45.149685475439405,3.3358506581484004,0.7092096010076512,B,853,Incorrect
1,new_learn,22,801,A,54.17089861085512,62.403632485997605,2.708544930542756,0.9802339668766371,A,1893,Correct
1,new_learn,22,802,B,50.21590697404031,25.93252759892283,2.5107953487020156,0.40734719096895267,A,639,Incorrect
1,new_learn,22,803,B,40.82774307308253,49.54771802040289,2.0413871536541266,0.7782937346751818,B,557,Correct
1,new_learn,22,804,A,37.67059011976613,86.42335454092385,1.8835295059883066,1.3575348786217623,B,592,Incorrect
1,new_learn,22,805,A,79.52830327349847,36.58112757421087,3.976415163674923,0.5746150082358593,A,1148,Correct
1,new_learn,22,806,A,44.74600728902641,65.18213122946922,2.2373003644513205,1.0238785230791316,B,647,Incorrect
1,new_learn,22,807,B,61.89093386129673,23.93495819238362,3.0945466930648364,0.37596944410585603,100,469,Incorrect
1,new_learn,22,808,B,35.962074696430385,45.87340610534435,1.7981037348215194,0.7205777780784549,100,527,Correct
1,new_learn,22,809,A,41.74542076532802,86.1246736459478,2.087271038266401,1.3528432100946404,100,315,Incorrect
1,new_learn,22,810,A,68.18172785676231,50.23581134639478,3.4090863928381157,0.7891022793647832,107,355,Incorrect
1,new_learn,22,811,B,31.158089157768572,56.93181335137572,1.5579044578884287,0.8942828329011363,107,162,Correct
1,new_learn,22,812,A,75.74365463269372,38.017057021375855,3.787182731634686,0.5971705352472934,107,221,Incorrect
1,new_learn,22,813,B,59.1837024577526,26.64798922668382,2.95918512288763,0.4185856359374492,100,4,Correct
1,new_learn,22,814,B,65.63346366538954,23.511074991744664,3.281673183269477,0.3693111023603188,107,760,Correct
1,new_learn,22,815,B,61.94319338259196,21.45745809084977,3.097159669129598,0.3370529635146225,107,88,Incorrect
1,new_learn,22,816,A,82.19999725854234,41.002178177469176,4.109999862927117,0.6440607087175845,100,173,Correct
1,new_learn,22,817,A,57.83727316383571,58.38026771272529,2.8918636581917854,0.9170351008045159,107,463,Incorrect
1,new_learn,22,818,A,85.98299231783218,42.56144981151358,4.29914961589161,0.6685536902699089,107,587,Incorrect
1,new_learn,22,819,B,16.79582865499433,59.42780051362203,0.8397914327497165,0.9334897075629734,100,422,Incorrect
1,new_learn,22,820,A,79.58373939491122,47.98220161393617,3.979186969745561,0.7537026604670308,B,223,Incorrect
1,new_learn,22,821,A,40.66772632182474,81.76969870882007,2.033386316091237,1.2844354237493998,107,26,Correct
1,new_learn,22,822,A,82.87232356964525,46.00524426123878,4.1436161784822625,0.7226486869885588,100,1148,Incorrect
1,new_learn,22,823,B,35.845403718568186,55.964741582289804,1.7922701859284091,0.8790921050748642,107,120,Incorrect
1,new_learn,22,824,A,57.407645103718394,51.00127234727803,2.8703822551859197,0.8011261126497047,100,476,Incorrect
1,new_learn,22,825,B,46.071643839457494,34.159366676101854,2.3035821919728745,0.5365740770046078,107,340,Correct
1,new_learn,22,826,B,46.733364974294965,33.138332662298566,2.3366682487147483,0.5205357122204594,100,374,Correct
1,new_learn,22,827,B,28.488836529436565,52.48372476873028,1.4244418264718284,0.8244124208323586,100,356,Correct
1,new_learn,22,828,B,13.682685947073836,65.04904475578854,0.6841342973536918,1.0217880056390947,100,224,Correct
1,new_learn,22,829,B,61.668104687210786,28.07049115954304,3.083405234360539,0.44093024404738823,107,991,Incorrect
1,new_learn,22,830,A,38.99208014679718,69.82120627112057,1.9496040073398588,1.09674894343065,107,53,Correct
1,new_learn,22,831,A,78.10441485499621,34.53762226210375,3.9052207427498105,0.5425157018554222,100,339,Incorrect
1,new_learn,22,832,B,52.38235209002852,17.063725689469877,2.619117604501426,0.26803637634454996,107,388,Correct
1,new_learn,22,833,A,62.335876283302994,59.72298514885055,3.1167938141651494,0.9381264569704061,100,269,Incorrect
1,new_learn,22,834,B,30.119840249938704,44.049199612659955,1.5059920124969353,0.6919232094982144,100,436,Incorrect
1,new_learn,22,835,B,18.513978735722848,61.68883202387484,0.9256989367861423,0.9690059074736997,A,12,Incorrect
1,new_learn,22,836,A,49.832314710959345,77.54941896561786,2.4916157355479673,1.2181434245627103,100,331,Incorrect
1,new_learn,22,837,B,61.51717804418384,29.22899730635055,3.0758589022091916,0.45912801604713366,B,366,Correct
1,new_learn,22,838,B,31.248220471083904,59.448156839310954,1.562411023554195,0.9338094639791655,107,567,Incorrect
1,new_learn,22,839,A,46.85916889214299,65.63737683294286,2.342958444607149,1.0310295042963908,107,36,Incorrect
1,new_learn,22,840,B,51.22756644988682,31.49225398788579,2.561378322494341,0.4946791688666293,B,918,Correct
1,new_learn,22,841,B,31.416453937959357,39.17010933715693,1.570822696897968,0.6152826386696059,100,689,Correct
1,new_learn,22,842,A,76.75582704745719,49.25289120416072,3.837791352372859,0.7736626058752434,107,636,Correct
1,new_learn,22,843,B,61.6016837416469,23.67690004142696,3.080084187082345,0.37191587614963406,100,226,Correct
1,new_learn,22,844,B,16.612033420380413,58.169959694375876,0.8306016710190207,0.9137315901773282,100,166,Correct
1,new_learn,22,845,B,49.690719220952815,24.23690798271555,2.4845359610476407,0.3807124603211549,B,1605,Correct
1,new_learn,22,846,B,50.027142269406234,25.68863698268224,2.5013571134703114,0.40351616612764807,107,143,Incorrect
1,new_learn,22,847,A,68.3578362147673,53.74597267425982,3.4178918107383653,0.8442397645674622,107,643,Correct
1,new_learn,22,848,B,42.830734912879855,35.73359579269618,2.1415367456439927,0.5613020101434073,107,1201,Incorrect
1,new_learn,22,849,A,65.2107717560772,67.59173326674193,3.2605385878038593,1.0617284633709863,107,175,Incorrect
1,new_learn,22,850,A,48.11030462277204,74.88057135225748,2.4055152311386023,1.176221264284292,100,420,Incorrect
1,new_learn,22,851,B,34.62173153166601,35.207961871044276,1.7310865765833003,0.5530453718097113,107,3540,Incorrect
1,new_learn,22,852,A,39.640137749388984,68.85755407681516,1.9820068874694494,1.081611930159422,107,527,Correct
1,new_learn,22,853,A,88.9250288423086,30.77982315795343,4.446251442115431,0.4834883315590974,107,446,Correct
1,new_learn,22,854,A,41.72864119512607,83.90916295506099,2.0864320597563037,1.3180420495424423,100,1652,Incorrect
1,new_learn,22,855,A,60.61339468621605,50.34470245576114,3.030669734310802,0.790812736910916,107,212,Correct
1,new_learn,22,856,B,14.208051759429253,57.60140548607172,0.7104025879714626,0.9048007615574486,107,1117,Incorrect
1,new_learn,22,857,A,39.15170768854327,82.98072267650807,1.9575853844271633,1.3034581437504484,107,613,Correct
1,new_learn,22,858,A,46.776473974859464,64.09176427088843,2.3388236987429734,1.0067510789451595,107,1413,Correct
1,new_learn,22,859,B,62.301586018929285,22.79799306802407,3.1150793009464643,0.3581100376954772,107,21,Incorrect
1,new_learn,22,860,B,44.70958082575699,39.89338185736611,2.2354790412878494,0.6266437768497685,A,639,Incorrect
1,new_learn,22,861,B,24.894775810005214,48.00320414230071,1.2447387905002607,0.7540325674111151,107,256,Incorrect
1,new_learn,22,862,B,30.91217624433738,36.21183512584046,1.5456088122168692,0.568814176021726,107,327,Incorrect
1,new_learn,22,863,B,23.904450095475806,60.548257996187914,1.1952225047737903,0.9510898125424169,B,291,Correct
1,new_learn,22,864,B,57.846690309080294,16.349009213437327,2.8923345154540145,0.25680963619203273,B,930,Correct
1,new_learn,22,865,B,43.161097892421445,32.371670696247804,2.1580548946210723,0.5084930142188004,B,430,Correct
1,new_learn,22,866,B,34.82857979474684,37.3609721285603,1.7414289897373418,0.5868647778502902,B,335,Correct
1,new_learn,22,867,B,35.24803771418487,38.79559616814903,1.7624018857092434,0.6093997995674667,B,1841,Correct
1,new_learn,22,868,B,61.19181675944391,18.96948714799464,3.059590837972195,0.2979720073325298,107,26,Correct
1,new_learn,22,869,A,80.77299113283887,44.78294705003105,4.038649556641944,0.7034488872923913,B,716,Incorrect
1,new_learn,22,870,B,65.31907110435019,16.953790223579233,3.2659535552175094,0.2663095140844949,B,703,Correct
1,new_learn,22,871,A,58.35791764422644,71.37983594704315,2.917895882211322,1.1212318411283768,107,1501,Incorrect
1,new_learn,22,872,B,61.74733849144077,24.527054808874013,3.0873669245720383,0.385270076008764,107,353,Incorrect
1,new_learn,22,873,B,20.347757649387184,61.27075465357119,1.0173878824693592,0.9624387634978093,107,373,Incorrect
1,new_learn,22,874,B,22.41468985105235,54.51770930202911,1.1207344925526175,0.8563621751689928,B,201,Correct
1,new_learn,22,875,A,67.95886758708617,64.91963515305542,3.3979433793543086,1.019755244352843,107,313,Incorrect
1,new_learn,22,876,B,62.04530735501315,26.187568887845686,3.1022653677506575,0.41135337016716317,107,521,Incorrect
1,new_learn,22,877,B,18.84093338516711,56.69523269997478,0.9420466692583553,0.8905666327190229,A,1189,Incorrect
1,new_learn,22,878,B,13.721517280602,62.07606448751852,0.6860758640301,0.9750885407887722,B,331,Correct
1,new_learn,22,879,A,49.13514823393986,62.87494325312376,2.4567574116969926,0.9876372990944435,B,326,Incorrect
1,new_learn,22,880,B,19.022637519943974,61.40516165265822,0.9511318759971986,0.9645500237024237,100,359,Correct
1,new_learn,22,881,A,76.40613998437647,55.31595602468347,3.820306999218823,0.8689010053672083,A,621,Correct
1,new_learn,22,882,B,25.078137162316125,64.69008078883246,1.2539068581158062,1.0161494128316313,B,926,Correct
1,new_learn,22,883,B,16.337712969942608,54.86411419723112,0.8168856484971303,0.8618034905386638,B,485,Correct
1,new_learn,22,884,A,47.23774170121429,74.44920208439297,2.3618870850607148,1.1694453316697542,A,1015,Correct
1,new_learn,22,885,B,39.41834274130413,35.35325327119469,1.9709171370652063,0.5553276037864228,B,801,Correct
1,new_learn,22,886,A,48.517951797879775,72.53548300935284,2.4258975898939887,1.1393847027338506,A,934,Correct
1,new_learn,22,887,B,23.683494722191526,60.63921921205273,1.1841747361095762,0.9525186279800295,A,1664,Incorrect
1,new_learn,22,888,B,28.065320391064194,56.35439095050177,1.4032660195532096,0.8852127030381172,B,445,Correct
1,new_learn,22,889,B,14.527113595543831,66.37788439913358,0.7263556797771915,1.0426613699457528,B,584,Correct
1,new_learn,22,890,A,89.70152831950654,33.41295265741486,4.485076415975327,0.5248494330163904,A,565,Correct
1,new_learn,22,891,B,23.908492622407344,52.72243783916969,1.1954246311203673,0.8281621169744001,B,856,Correct
1,new_learn,22,892,B,39.99232681112029,28.551614583075704,1.9996163405560146,0.4484877131115891,B,1647,Correct
1,new_learn,22,893,A,43.22159918364946,73.07646116316585,2.161079959182473,1.1478823677027081,B,2033,Incorrect
1,new_learn,22,894,A,85.10029732613401,32.7659360751546,4.2550148663067,0.5146861203084924,A,571,Correct
1,new_learn,22,895,B,48.014389439119014,33.49849451369843,2.400719471955951,0.5261931213527649,A,734,Incorrect
1,new_learn,22,896,B,31.409491302599935,48.82689175693652,1.5704745651299967,0.766971022206079,B,4478,Correct
1,new_learn,22,897,B,15.866953217869188,57.52105290846959,0.7933476608934594,0.9035385862199894,A,403,Incorrect
1,new_learn,22,898,B,14.534253441073076,68.32164061137567,0.7267126720536539,1.0731938211294993,B,559,Correct
