experiment,condition,subject,trial,cat,x,y,xt,yt,resp,rt,fb
1,new_learn,14,0,B,54.08759112527597,34.27691562973078,2.7043795562637984,0.5384205316503969,A,1710,Incorrect
1,new_learn,14,1,B,52.57756102635917,27.545588076273003,2.6288780513179586,0.43268508569614933,B,984,Correct
1,new_learn,14,2,A,59.48625200433453,81.610434786723,2.9743126002167264,1.2819337119111895,A,778,Correct
1,new_learn,14,3,B,79.24979001900043,62.00211299906556,3.9624895009500216,0.9739269135245429,A,1006,Incorrect
1,new_learn,14,4,B,41.299179667979686,26.682219627525882,2.0649589833989843,0.41912332581652345,A,2561,Incorrect
1,new_learn,14,5,A,20.639242424738345,42.87338492590331,1.0319621212369172,0.6734535555887261,B,4066,Incorrect
1,new_learn,14,6,B,51.27018335733228,31.691415841050862,2.563509167866614,0.4978075959405229,A,5127,Incorrect
1,new_learn,14,7,A,42.59113829146418,50.1085229535846,2.129556914573209,0.7871028379660844,A,1216,Correct
1,new_learn,14,8,B,70.26630291371862,57.3818266709611,3.513315145685931,0.9013516255952712,A,1320,Incorrect
1,new_learn,14,9,A,63.249456215497176,86.6580803975969,3.1624728107748585,1.3612219437564204,A,1923,Correct
1,new_learn,14,10,B,61.01626740446331,45.062668423798776,3.0508133702231657,0.7078427403567948,B,873,Correct
1,new_learn,14,11,A,39.221154081204,51.43350518928131,1.9610577040601997,0.8079156102550935,B,1261,Incorrect
1,new_learn,14,12,B,42.41310495063093,24.808208740628537,2.1206552475315466,0.3896864316414035,A,2624,Incorrect
1,new_learn,14,13,B,51.375686339496816,22.090423378417213,2.5687843169748406,0.3469955590016187,B,1265,Correct
1,new_learn,14,14,B,77.11099482743883,59.84700863912411,3.8555497413719415,0.940074613399986,B,1446,Correct
1,new_learn,14,15,A,27.601280659177952,49.58775801587388,1.3800640329588976,0.7789226814532888,A,1504,Correct
1,new_learn,14,16,B,52.62375960803238,31.546443840301656,2.6311879804016187,0.49553038107787334,B,1033,Correct
1,new_learn,14,17,A,55.284338180172995,68.402633789792,2.76421690900865,1.0744660590010175,B,904,Incorrect
1,new_learn,14,18,B,66.14776545175721,50.26780127403456,3.3073882725878603,0.7896047759730931,B,1008,Correct
1,new_learn,14,19,B,57.18161577311439,45.823480447367395,2.8590807886557195,0.7197935476768246,B,1827,Correct
1,new_learn,14,20,B,61.32533415055145,38.4250248577792,3.0662667075275727,0.6035788790360216,B,1567,Correct
1,new_learn,14,21,A,28.200960694652313,60.795537899865494,1.4100480347326156,0.9549740761862864,A,689,Correct
1,new_learn,14,22,B,54.2531701851603,45.13937649284795,2.7126585092580147,0.7090476678877747,B,858,Correct
1,new_learn,14,23,A,13.623454647496793,36.2357213412686,0.6811727323748397,0.5691893798162816,A,870,Correct
1,new_learn,14,24,B,72.94042523556116,52.21570896176751,3.6470212617780584,0.8202024383813576,B,904,Correct
1,new_learn,14,25,A,61.11451085244043,83.27859887689615,3.055725542622022,1.3081371721645407,A,1062,Correct
1,new_learn,14,26,A,31.50016973563956,47.555649265169336,1.575008486781978,0.7470023918407441,B,681,Incorrect
1,new_learn,14,27,B,42.48291062730152,19.144062932202992,2.124145531365076,0.30071423733834796,B,767,Correct
1,new_learn,14,28,A,25.872658076477926,53.63893340591387,1.2936329038238963,0.8425583956720558,A,666,Correct
1,new_learn,14,29,B,48.49619652175102,17.993346050767226,2.424809826087551,0.28263881883294617,B,692,Correct
1,new_learn,14,30,B,56.44616113921323,42.80544151573884,2.8223080569606616,0.6723863029975634,B,1391,Correct
1,new_learn,14,31,A,58.87229179699975,86.30538530061371,2.9436145898499877,1.3556818221282225,A,849,Correct
1,new_learn,14,32,A,56.488167532735716,79.81689274534044,2.824408376636786,1.2537608194056298,A,1164,Correct
1,new_learn,14,33,A,69.79171360707524,85.3306507484007,3.4895856803537617,1.3403707275860601,B,639,Incorrect
1,new_learn,14,34,A,31.243823372739037,47.29271663739091,1.5621911686369518,0.7428722557816553,A,1367,Correct
1,new_learn,14,35,B,37.342411014261685,16.230859964689444,1.8671205507130844,0.2549537521325652,B,5500,Correct
1,new_learn,14,36,B,84.74270389093756,60.38621789558046,4.237135194546878,0.9485444925941402,A,2436,Incorrect
1,new_learn,14,37,A,20.944832676031076,50.99198403032915,1.0472416338015538,0.8009802121082505,A,1461,Correct
1,new_learn,14,38,B,35.62898983941824,18.152777539897155,1.7814494919709118,0.2851431628079535,A,1305,Incorrect
1,new_learn,14,39,B,69.93638334238747,43.96203133103711,3.4968191671193734,0.6905539733323525,B,2225,Correct
1,new_learn,14,40,A,41.244958194911185,55.432335643698956,2.0622479097455595,0.8707290921478413,A,691,Correct
1,new_learn,14,41,B,42.17206777299083,28.89262119061671,2.1086033886495414,0.4538442323769712,B,1477,Correct
1,new_learn,14,42,A,51.688670447374285,60.88477858129159,2.5844335223687143,0.9563758655321343,B,1787,Incorrect
1,new_learn,14,43,A,42.410432609061615,71.477921414921,2.120521630453081,1.1227725640549218,A,775,Correct
1,new_learn,14,44,B,72.09486704994038,59.658092204900356,3.6047433524970187,0.9371071209904872,A,717,Incorrect
1,new_learn,14,45,B,50.59809049717835,31.569198364532944,2.5299045248589174,0.49588780830867807,B,1068,Correct
1,new_learn,14,46,B,72.43790746421223,56.733125597178855,3.6218953732106116,0.8911618529564207,B,1134,Correct
1,new_learn,14,47,A,47.01905054572928,63.480758103976996,2.3509525272864638,0.9971534165188243,A,943,Correct
1,new_learn,14,48,A,68.81030552141256,88.11884820492844,3.4405152760706277,1.3841676308169863,A,961,Correct
1,new_learn,14,49,A,33.78488847268897,42.597886546581556,1.6892444236344486,0.6691260371659604,B,932,Incorrect
1,new_learn,14,50,B,41.523629879760975,32.17035094720582,2.0761814939880487,0.5053306909957362,B,1297,Correct
1,new_learn,14,51,A,27.959696360776526,43.03383100215092,1.3979848180388261,0.67597383666091,A,843,Correct
1,new_learn,14,52,A,47.29580309771967,56.13163348314119,2.3647901548859833,0.8817136369231561,B,1751,Incorrect
1,new_learn,14,53,A,62.67843657142423,86.12031936011448,3.1339218285712116,1.3527748131327124,A,797,Correct
1,new_learn,14,54,A,29.662482376654836,47.72026327634364,1.483124118832742,0.7495881426816599,A,1910,Correct
1,new_learn,14,55,A,26.1074112038285,35.97780319088335,1.3053705601914252,0.5651380109838927,A,1816,Correct
1,new_learn,14,56,A,25.25323839083025,46.052577001229125,1.2626619195415125,0.7233921879296983,A,721,Correct
1,new_learn,14,57,A,36.57498771735245,54.50398721286601,1.8287493858676225,0.8561466290964593,B,870,Incorrect
1,new_learn,14,58,B,56.47520802343429,25.162822766696937,2.8237604011717146,0.3952566957371854,B,660,Correct
1,new_learn,14,59,A,16.10542410870792,38.340919847707255,0.805271205435396,0.6022577606271611,A,1309,Correct
1,new_learn,14,60,B,69.1798646902616,48.370561164696625,3.4589932345130796,0.7598029980251334,B,2329,Correct
1,new_learn,14,61,B,83.39630096541623,68.94367376310234,4.169815048270811,1.0829646950282685,A,1311,Incorrect
1,new_learn,14,62,B,69.68059713243716,44.99445748553855,3.4840298566218575,0.7067712854441309,B,886,Correct
1,new_learn,14,63,A,51.26718998083407,78.69200925400673,2.5633594990417032,1.2360911908430379,A,734,Correct
1,new_learn,14,64,A,34.38711634591518,51.01541851580296,1.7193558172957593,0.8013483201452766,A,2349,Correct
1,new_learn,14,65,B,73.8216436350074,42.38041639214169,3.69108218175037,0.6657100239681439,B,760,Correct
1,new_learn,14,66,B,49.77809077535248,25.88372488998281,2.488904538767624,0.4065805998095464,B,913,Correct
1,new_learn,14,67,B,66.9793188303603,47.17698669095066,3.348965941518015,0.7410543740339703,B,1106,Correct
1,new_learn,14,68,B,49.986283122359715,25.95701224663509,2.4993141561179857,0.4077317949158455,B,877,Correct
1,new_learn,14,69,B,42.83515386575317,19.943936087408655,2.1417576932876585,0.313278615479337,A,1217,Incorrect
1,new_learn,14,70,B,87.87627699930363,67.78248981698042,4.3938138499651815,1.0647248602552533,B,714,Correct
1,new_learn,14,71,A,14.654484116288668,36.52689484019585,0.7327242058144334,0.5737631224420311,A,1186,Correct
1,new_learn,14,72,A,39.07463333317074,54.15528370273187,1.953731666658537,0.8506692071678674,B,1866,Incorrect
1,new_learn,14,73,A,54.889869049973086,65.28616069518918,2.744493452498654,1.0255126141054451,A,1258,Correct
1,new_learn,14,74,B,39.40974582875516,25.232949295693547,1.970487291437758,0.39635824067877296,B,1164,Correct
1,new_learn,14,75,B,50.172455047568576,30.490461166070034,2.508622752378429,0.47894304401945254,B,2635,Correct
1,new_learn,14,76,B,81.77323641243328,59.85876909122388,4.088661820621664,0.9402593461495835,B,725,Correct
1,new_learn,14,77,B,35.45763857671503,21.914673511670443,1.7728819288357514,0.34423488655041345,A,596,Incorrect
1,new_learn,14,78,A,48.39021852109151,58.31500417333954,2.419510926054576,0.9160099435251081,B,750,Incorrect
1,new_learn,14,79,A,49.36624697970323,74.22435349699974,2.4683123489851613,1.1659134183181314,A,1189,Correct
1,new_learn,14,80,B,74.7467903688148,48.140724114474025,3.73733951844074,0.756192726082623,B,1048,Correct
1,new_learn,14,81,A,51.04289986882468,63.66408654489992,2.5521449934412344,1.0000331329348118,B,2049,Incorrect
1,new_learn,14,82,B,46.4439147406876,28.416949643752375,2.32219573703438,0.4463724011912177,B,2252,Correct
1,new_learn,14,83,A,24.984342386116545,37.62294812210794,1.2492171193058272,0.590979887134021,A,1495,Correct
1,new_learn,14,84,B,44.689815281078374,25.112250460609964,2.234490764053919,0.39446230781079583,B,1139,Correct
1,new_learn,14,85,B,57.38076095056143,45.19009969924796,2.8690380475280715,0.7098444261507386,B,1598,Correct
1,new_learn,14,86,A,14.402300037275342,36.13273593903807,0.7201150018637671,0.5675716889009094,A,1543,Correct
1,new_learn,14,87,A,33.640504804024445,44.67398955606069,1.6820252402012221,0.701737386979337,B,6372,Incorrect
1,new_learn,14,88,B,75.29789550882606,42.82895956344667,3.764894775441303,0.6727557236270919,51,591,Correct
1,new_learn,14,89,B,63.805228937825646,40.719431416609154,3.190261446891282,0.6396193329838636,B,1389,Correct
1,new_learn,14,90,B,47.1495616156814,22.15692860575855,2.35747808078407,0.348040220669823,B,1014,Correct
1,new_learn,14,91,B,70.0372224032355,47.03211571821649,3.501861120161775,0.7387787461156697,B,1657,Correct
1,new_learn,14,92,A,24.64705484635319,49.434302101347946,1.2323527423176595,0.7765122015846658,A,790,Correct
1,new_learn,14,93,B,46.6683232599243,26.90532317125436,2.333416162996215,0.4226278280863597,B,909,Correct
1,new_learn,14,94,A,64.3961259958503,74.41205165847651,3.219806299792515,1.16886177414407,A,720,Correct
1,new_learn,14,95,B,74.21280439025361,54.54678107101089,3.7106402195126806,0.856818833448293,B,1210,Correct
1,new_learn,14,96,B,49.03480317003822,41.1518792280056,2.451740158501911,0.646412207320584,B,1303,Correct
1,new_learn,14,97,B,43.26277408676903,30.138069072525273,2.163138704338451,0.4734076819581357,B,1412,Correct
1,new_learn,14,98,B,37.5264486866354,18.005643933678158,1.87632243433177,0.2828319935259846,B,940,Correct
1,new_learn,14,99,B,59.758553042467746,51.73167538765286,2.9879276521233873,0.8125992567787107,B,1353,Correct
1,new_learn,14,100,A,33.61557993145762,57.63906298333767,1.6807789965728808,0.905392284141265,A,1175,Correct
1,new_learn,14,101,B,71.90647524252014,55.59658293478647,3.5953237621260077,0.8733090825631041,B,1545,Correct
1,new_learn,14,102,A,28.407117439105185,51.51955939213545,1.4203558719552591,0.8092673465125788,A,752,Correct
1,new_learn,14,103,A,56.13901388893052,65.65092715569625,2.806950694446526,1.03124235226847,A,898,Correct
1,new_learn,14,104,B,44.96921600654041,20.023030025299672,2.2484608003270203,0.31452102015044653,B,747,Correct
1,new_learn,14,105,B,40.62473240784534,30.97658458580554,2.031236620392267,0.4865790528403476,B,1980,Correct
1,new_learn,14,106,B,38.28315058245928,20.40755708195379,1.914157529122964,0.32056115703190186,B,1273,Correct
1,new_learn,14,107,A,42.77592055239692,60.46347488453973,2.1387960276198457,0.949758042538905,A,713,Correct
1,new_learn,14,108,A,54.36252252129726,72.05869968386058,2.7181261260648633,1.1318954077702479,A,1495,Correct
1,new_learn,14,109,A,41.850211173226946,65.4449773593393,2.0925105586613473,1.0280073004322534,A,685,Correct
1,new_learn,14,110,B,40.01937476052939,12.416411164586055,2.0009687380264696,0.19503653049306918,B,716,Correct
1,new_learn,14,111,B,62.5507665401372,43.02622743288769,3.1275383270068597,0.6758544000742179,B,2458,Correct
1,new_learn,14,112,B,38.93095053552198,22.159577562028964,1.946547526776099,0.34808183037761703,B,2658,Correct
1,new_learn,14,113,B,80.8827889274175,52.36029241131265,4.044139446370875,0.8224735498959662,B,1555,Correct
1,new_learn,14,114,A,49.60875996080284,71.98291207281453,2.4804379980401423,1.130704938759771,A,784,Correct
1,new_learn,14,115,B,39.02575523367831,27.761953016594713,1.9512877616839155,0.4360837382311948,B,1031,Correct
1,new_learn,14,116,A,60.126431413243296,87.40171430968304,3.0063215706621644,1.3729029179322707,A,887,Correct
1,new_learn,14,117,B,44.176658868829975,15.792709491180517,2.208832943441499,0.24807130058885257,B,761,Correct
1,new_learn,14,118,A,50.936834550541434,74.96073016949717,2.546841727527072,1.1774803960410953,A,783,Correct
1,new_learn,14,119,B,47.29834992212521,34.575391176732886,2.3649174961062607,0.5431089745790869,B,615,Correct
1,new_learn,14,120,A,42.66942363978757,61.11257190698442,2.1334711819893784,0.9599540347248011,A,940,Correct
1,new_learn,14,121,B,65.01816596471993,53.14807947188645,3.2509082982359963,0.8348480801064248,B,1764,Correct
1,new_learn,14,122,B,87.79266547760581,69.79700930163439,4.38963327388029,1.0963688583227653,A,2779,Incorrect
1,new_learn,14,123,A,22.014454276590982,39.918763305642024,1.100722713829549,0.6270424677069739,A,756,Correct
1,new_learn,14,124,B,49.49767898485344,41.289504619371975,2.474883949242672,0.648574021912904,B,642,Correct
1,new_learn,14,125,B,71.40671378529564,56.08559914235181,3.570335689264782,0.8809905311889723,B,454,Correct
1,new_learn,14,126,A,43.845234935097075,50.93046864859086,2.1922617467548537,0.8000139307514915,B,764,Incorrect
1,new_learn,14,127,B,59.82801507741794,37.54393711410779,2.991400753870897,0.589738785122591,B,1240,Correct
1,new_learn,14,128,B,81.49331666915695,65.09634286852153,4.074665833457848,1.022530962656548,B,1004,Correct
1,new_learn,14,129,A,49.25370098789078,72.68956986279872,2.462685049394539,1.1418050933678525,A,902,Correct
1,new_learn,14,130,B,65.61355620478561,35.48034073537539,3.2806778102392804,0.55732388900559,B,631,Correct
1,new_learn,14,131,B,50.914049964264464,34.45841018210933,2.545702498213223,0.5412714414124921,B,1299,Correct
1,new_learn,14,132,A,60.26752218947739,71.39589818867981,3.0133761094738696,1.1214841462300065,A,731,Correct
1,new_learn,14,133,A,16.699822489712542,46.336316542859265,0.8349911244856272,0.7278491582272894,A,1412,Correct
1,new_learn,14,134,A,46.284379854420834,61.8625315069212,2.3142189927210417,0.9717343725730537,B,577,Incorrect
1,new_learn,14,135,A,66.38784100935945,78.74860587752255,3.3193920504679726,1.2369802085263142,B,638,Incorrect
1,new_learn,14,136,A,39.98583879543897,59.64830966426811,1.9992919397719486,0.9369534572015689,A,3083,Correct
1,new_learn,14,137,A,43.907002254660405,74.03555289832164,2.19535011273302,1.1629477454491288,A,719,Correct
1,new_learn,14,138,A,53.8687908032797,65.2679295410227,2.6934395401639852,1.0252262398054657,B,1239,Incorrect
1,new_learn,14,139,B,69.22591708962022,59.703918446118195,3.461295854481011,0.9378269579042453,A,671,Incorrect
1,new_learn,14,140,B,67.25452540830898,56.08816989831976,3.3627262704154486,0.8810309125292878,B,1064,Correct
1,new_learn,14,141,B,52.41827741754015,29.677507850306284,2.6209138708770077,0.4661732031968782,B,1244,Correct
1,new_learn,14,142,B,45.15851383933907,22.927365297416216,2.2579256919669537,0.36014221192266177,B,669,Correct
1,new_learn,14,143,B,54.03014230045325,38.1417115094179,2.7015071150226624,0.5991286033666428,B,914,Correct
1,new_learn,14,144,A,22.889509940588987,42.49828045545973,1.1444754970294495,0.6675614283453549,A,705,Correct
1,new_learn,14,145,A,60.94394393808209,69.90419040037881,3.0471971969041043,1.098052455084861,A,952,Correct
1,new_learn,14,146,A,61.34341792799727,70.5497708277581,3.0671708963998636,1.1081932087246416,A,750,Correct
1,new_learn,14,147,B,51.80453750705486,35.25748668285799,2.590226875352743,0.553823305734533,B,673,Correct
1,new_learn,14,148,B,42.449694222391486,18.626476399730205,2.1224847111195744,0.29258400709828036,A,624,Incorrect
1,new_learn,14,149,A,53.17496225629178,81.02100538012617,2.658748112814589,1.2726749764433174,A,879,Correct
1,new_learn,14,150,B,73.9844635725078,44.24171466519898,3.6992231786253904,0.6949472288720245,B,791,Correct
1,new_learn,14,151,B,50.47381147086272,21.299585769736048,2.5236905735431363,0.33457311089354236,B,1007,Correct
1,new_learn,14,152,B,33.946325166980245,12.542211569471657,1.6973162583490122,0.19701259863210532,A,578,Incorrect
1,new_learn,14,153,B,75.17354101647832,58.54651821864246,3.7586770508239162,0.9196465576447407,B,1029,Correct
1,new_learn,14,154,B,63.336861402589236,45.69844306641917,3.166843070129462,0.7178294650897696,B,1367,Correct
1,new_learn,14,155,B,47.0440539592595,39.62812594098736,2.3522026979629747,0.622477146658685,B,1247,Correct
1,new_learn,14,156,A,29.899717528845745,63.18513859585095,1.4949858764422874,0.9925098361438913,A,560,Correct
1,new_learn,14,157,A,55.51048830272885,78.85297905564323,2.775524415136443,1.238619698574393,B,732,Incorrect
1,new_learn,14,158,B,63.78937292152293,36.95347114370556,3.1894686460761466,0.580463767348539,B,1281,Correct
1,new_learn,14,159,A,37.95978588857271,63.494778706427326,1.8979892944286354,0.9973736516271086,A,576,Correct
1,new_learn,14,160,B,59.78896395197638,42.600670445205786,2.989448197598819,0.6691697665432916,B,879,Correct
1,new_learn,14,161,A,38.2073206274465,53.96311732286919,1.910366031372325,0.8476506647316497,A,2136,Correct
1,new_learn,14,162,A,64.02439633383977,78.3468134035162,3.2012198166919887,1.230668867103284,B,657,Incorrect
1,new_learn,14,163,B,56.72080890766133,35.89691296293885,2.8360404453830665,0.5638673902546045,B,903,Correct
1,new_learn,14,164,B,50.2925981580092,30.928614234410656,2.51462990790046,0.48582553632268605,B,1310,Correct
1,new_learn,14,165,B,68.18156624273544,45.01436216913112,3.4090783121367725,0.7070839474828631,B,859,Correct
1,new_learn,14,166,B,52.97119489264507,45.158830830015376,2.6485597446322537,0.7093532559014027,B,883,Correct
1,new_learn,14,167,A,29.06441644650996,53.62538055887274,1.453220822325498,0.8423455080485577,A,1249,Correct
1,new_learn,14,168,A,64.5939736627208,78.95146850138579,3.22969868313604,1.2401667671703975,A,1099,Correct
1,new_learn,14,169,A,39.15732070907595,58.355116229034564,1.9578660354537973,0.9166400222225674,A,4369,Correct
1,new_learn,14,170,A,31.99081775217301,58.66640437066097,1.5995408876086505,0.9215297249169832,A,2658,Correct
1,new_learn,14,171,B,54.11695354571105,46.934161497243785,2.7058476772855524,0.73724008481069,B,1422,Correct
1,new_learn,14,172,A,21.163766034467262,40.501121554894,1.058188301723363,0.636190129695011,A,1127,Correct
1,new_learn,14,173,A,44.80244437314332,67.30598948436673,2.2401222186571657,1.0572400105333921,B,994,Incorrect
1,new_learn,14,174,B,81.56085468396655,66.39596418684738,4.078042734198328,1.0429453665870538,B,1220,Correct
1,new_learn,14,175,A,28.245459850290047,39.924201031059724,1.4122729925145023,0.6271278832980963,A,571,Correct
1,new_learn,14,176,A,25.632363347325075,38.237774919986805,1.281618167366254,0.6006375638912529,A,1239,Correct
1,new_learn,14,177,B,65.07721026399078,37.54754570454093,3.253860513199539,0.5897954687285639,B,633,Correct
1,new_learn,14,178,A,40.15422731003048,49.240702165969424,2.0077113655015237,0.7734711409110627,B,620,Incorrect
1,new_learn,14,179,B,64.31284752140486,41.51571455497416,3.2156423760702433,0.6521273192721885,B,684,Correct
1,new_learn,14,180,B,55.94874507311101,32.17334304751737,2.7974372536555507,0.505377690797524,B,702,Correct
1,new_learn,14,181,A,39.37551117460539,59.22772410539688,1.9687755587302695,0.9303469146917895,B,662,Incorrect
1,new_learn,14,182,B,65.43285759758585,49.82011958196704,3.2716428798792925,0.7825726083983633,B,629,Correct
1,new_learn,14,183,A,52.213148161337244,60.682737491227236,2.6106574080668623,0.9532022115107869,B,928,Incorrect
1,new_learn,14,184,A,55.97923154271587,76.2140629926395,2.7989615771357936,1.1971677019895297,A,988,Correct
1,new_learn,14,185,A,31.636121146100617,60.01056695818276,1.581806057305031,0.9426437814679267,A,641,Correct
1,new_learn,14,186,A,13.555761037332537,39.990102013464316,0.6777880518666268,0.6281630535090295,A,954,Correct
1,new_learn,14,187,B,57.9412224040408,50.413572071903594,2.8970611202020398,0.7918945383115595,B,550,Correct
1,new_learn,14,188,A,55.21234869605603,75.98296781836228,2.7606174348028016,1.193537667480583,A,1547,Correct
1,new_learn,14,189,B,50.02149005564975,24.247893511344586,2.501074502782487,0.38088502060133883,B,943,Correct
1,new_learn,14,190,A,15.216939854595715,43.5860543386464,0.7608469927297858,0.6846481405462852,A,482,Correct
1,new_learn,14,191,B,34.60698217135226,21.064625637115103,1.7303491085676128,0.33088236576090013,A,2171,Incorrect
1,new_learn,14,192,A,69.58274423092683,88.19077848056742,3.479137211546342,1.3852975089445771,A,751,Correct
1,new_learn,14,193,A,30.640326922912507,46.0399402035964,1.5320163461456253,0.7231936895766591,A,1105,Correct
1,new_learn,14,194,B,61.32275746230844,30.123076900158914,3.0661378731154216,0.4731721854652982,B,1131,Correct
1,new_learn,14,195,A,29.986242891403236,51.93002995655647,1.4993121445701618,0.8157150030610784,A,878,Correct
1,new_learn,14,196,B,61.935876481630814,29.75328552256829,3.0967938240815407,0.46736351608930043,B,596,Correct
1,new_learn,14,197,A,54.649218038846676,63.72510561186951,2.732460901942334,1.0009916181974148,B,674,Incorrect
1,new_learn,14,198,A,47.83865886076606,72.46928143396116,2.391932943038303,1.1383448108193177,A,846,Correct
1,new_learn,14,199,B,77.49529395934701,61.67274960957948,3.8747646979673505,0.9687532855006885,B,1092,Correct
1,new_learn,14,200,B,70.97925537610074,53.181033157538764,3.548962768805037,0.8353657153901949,B,3813,Correct
1,new_learn,14,201,A,26.990446741089364,52.35207022512358,1.3495223370544682,0.8223443960973259,A,555,Correct
1,new_learn,14,202,B,39.788653730058954,20.127069507704007,1.989432686502948,0.3161552685184702,B,2147,Correct
1,new_learn,14,203,A,47.34339647091543,77.23428683988345,2.367169823545771,1.2131933407071236,A,775,Correct
1,new_learn,14,204,B,53.562861702759974,43.129664129726386,2.6781430851379984,0.6774791799087181,B,1746,Correct
1,new_learn,14,205,A,53.4455030573748,72.07496915373054,2.67227515286874,1.1321509680053539,A,829,Correct
1,new_learn,14,206,B,36.129657878012864,19.770163044530808,1.8064828939006432,0.31054899490485205,B,808,Correct
1,new_learn,14,207,B,57.87927076192248,38.62417587107932,2.893963538096124,0.6067071358377147,B,1327,Correct
1,new_learn,14,208,A,39.92267697555509,67.51273548583616,1.9961338487777545,1.060487569130269,A,1257,Correct
1,new_learn,14,209,B,58.97470599094176,51.70927914740103,2.9487352995470877,0.8122474574594947,B,705,Correct
1,new_learn,14,210,A,60.925140466456774,86.07773572284268,3.046257023322839,1.3521059109226312,A,810,Correct
1,new_learn,14,211,B,33.94024481231578,11.137749005160675,1.697012240615789,0.17495135226069902,B,961,Correct
1,new_learn,14,212,B,72.43053903447093,50.049686499453585,3.6215269517235464,0.7861786371057782,B,1228,Correct
1,new_learn,14,213,A,12.828852930257039,39.110357787250976,0.641442646512852,0.6143440635184801,A,572,Correct
1,new_learn,14,214,B,50.58309798405562,35.560381246746765,2.5291548992027812,0.5585811624181594,B,1736,Correct
1,new_learn,14,215,A,24.45207581366359,53.27494155314856,1.2226037906831795,0.8368408250189856,A,999,Correct
1,new_learn,14,216,A,33.49969652500209,52.435945731255835,1.6749848262501046,0.823661909466732,B,624,Incorrect
1,new_learn,14,217,A,36.191374120623195,60.482489666538136,1.8095687060311598,0.9500567260360839,A,587,Correct
1,new_learn,14,218,B,69.36312321185966,45.30844222766425,3.468156160592983,0.7117033462401379,B,1001,Correct
1,new_learn,14,219,B,68.41986992639923,59.52663506482008,3.4209934963199613,0.9350421970627968,B,1217,Correct
1,new_learn,14,220,B,46.66775160038052,37.976799013811046,2.333387580019026,0.5965381639432245,B,1405,Correct
1,new_learn,14,221,A,41.54313486445572,59.98717896692428,2.0771567432227864,0.9422764037603274,A,798,Correct
1,new_learn,14,222,A,11.572572532451673,38.208447777195,0.5786286266225836,0.6001768942095252,A,665,Correct
1,new_learn,14,223,A,27.76646804543448,56.514542560870154,1.388323402271724,0.8877283586510869,A,1345,Correct
1,new_learn,14,224,B,47.41750497960773,29.46095871208923,2.3708752489803864,0.4627716572880587,B,1529,Correct
1,new_learn,14,225,B,67.95845478867749,57.99130005754218,3.3979227394338745,0.9109252111644792,B,597,Correct
1,new_learn,14,226,B,61.39552969023558,36.604379574634656,3.0697764845117788,0.5749802498044226,B,1343,Correct
1,new_learn,14,227,A,53.65136770885486,63.99967970219187,2.6825683854427433,1.005304617922529,B,839,Incorrect
1,new_learn,14,228,B,34.7406416206953,24.20725645917004,1.737032081034765,0.3802466952784633,B,1155,Correct
1,new_learn,14,229,A,53.979015119936676,62.19747622746468,2.6989507559968335,0.9769956719401443,B,819,Incorrect
1,new_learn,14,230,A,25.335536315299326,40.14836485362666,1.2667768157649661,0.6306490403889808,A,596,Correct
1,new_learn,14,231,A,49.20721156088918,74.19651685066995,2.4603605780444586,1.1654761613000801,B,1040,Incorrect
1,new_learn,14,232,B,57.13579744795037,49.17396755049071,2.8567898723975187,0.7724228760224224,B,678,Correct
1,new_learn,14,233,A,24.229913718583028,49.064111066257105,1.2114956859291512,0.770697254403335,A,584,Correct
1,new_learn,14,234,B,60.27254051835329,53.1106471226624,3.0136270259176645,0.8342600941397805,112,1652,Correct
1,new_learn,14,235,A,18.655936815670586,36.546680224676976,0.9327968407835293,0.5740739105347028,A,584,Correct
1,new_learn,14,236,A,43.06956699326326,63.29663808259524,2.153478349663163,0.9942612659860657,B,784,Incorrect
1,new_learn,14,237,B,77.28272517969468,59.826791209599136,3.8641362589847343,0.9397570387596352,B,616,Correct
1,new_learn,14,238,B,45.541237649686636,25.461274035333886,2.277061882484332,0.3999447573022074,A,1535,Incorrect
1,new_learn,14,239,B,73.46402157446884,51.84900181813953,3.6732010787234426,0.8144422160391549,B,1604,Correct
1,new_learn,14,240,B,72.38125721834743,46.1769443514468,3.619062860917371,0.7253457456986498,B,1720,Correct
1,new_learn,14,241,A,15.906033689165614,32.511990451714425,0.7953016844582806,0.5106971517834377,A,584,Correct
1,new_learn,14,242,B,54.93044563433175,34.36277829261767,2.7465222817165875,0.5397692592051123,B,1104,Correct
1,new_learn,14,243,A,14.752704794860719,34.88688385866271,0.7376352397430359,0.5480018901850755,A,442,Correct
1,new_learn,14,244,A,21.237991417762757,37.21692154561408,1.0618995708881378,0.5846020365846445,A,745,Correct
1,new_learn,14,245,B,72.38219551343887,60.8952158684351,3.619109775671944,0.9565398140552017,B,1109,Correct
1,new_learn,14,246,B,36.38377638014708,11.749818857613118,1.8191888190073542,0.18456572302044094,107,1780,Correct
1,new_learn,14,247,A,34.52134410471111,62.32075529032592,1.7260672052355557,0.9789321349312756,A,831,Correct
1,new_learn,14,248,A,49.54781608980232,72.22567088172025,2.477390804490116,1.1345181852130328,A,1587,Correct
1,new_learn,14,249,B,42.12743427027618,29.00364121665038,2.106371713513809,0.45558813086791483,B,1937,Correct
1,new_learn,14,250,B,57.27530116353032,44.936966122505,2.863765058176516,0.7058682132253756,B,1400,Correct
1,new_learn,14,251,A,29.410988600696506,39.72203839856991,1.4705494300348252,0.6239523200927946,A,1254,Correct
1,new_learn,14,252,B,46.70242334250477,29.030803440240305,2.3351211671252385,0.45601479407834117,B,887,Correct
1,new_learn,14,253,A,61.32209734535079,76.90097681145971,3.0661048672675393,1.2079577190238044,A,822,Correct
1,new_learn,14,254,A,18.592104780967517,42.13837074270017,0.9296052390483759,0.6619079797975497,A,801,Correct
1,new_learn,14,255,B,55.142193284231716,44.93421937193157,2.7571096642115855,0.7058250673682619,B,1337,Correct
1,new_learn,14,256,B,45.352705759332395,29.43563915207173,2.2676352879666197,0.46237393856934317,B,1306,Correct
1,new_learn,14,257,B,53.57424654957822,32.19004201217143,2.678712327478911,0.5056399975209229,B,706,Correct
1,new_learn,14,258,A,59.03349846631963,67.49473261705971,2.9516749233159816,1.0602047807288109,A,812,Correct
1,new_learn,14,259,A,51.1083647845291,68.88732550490812,2.555418239226455,1.0820795786583408,A,695,Correct
1,new_learn,14,260,A,21.786194310406103,44.54479045925507,1.089309715520305,0.6997079323124622,A,784,Correct
1,new_learn,14,261,B,74.88407283195491,48.22716138061097,3.7442036415977453,0.757550479484084,B,1436,Correct
1,new_learn,14,262,A,57.2696394440007,72.7981353883101,2.863481972200035,1.1435104366547508,A,824,Correct
1,new_learn,14,263,B,78.24419252894845,64.53663887300942,3.9122096264474227,1.0137391528541193,B,2412,Correct
1,new_learn,14,264,B,77.95578872856707,52.427193755304785,3.897789436428354,0.823524433749971,B,980,Correct
1,new_learn,14,265,A,35.26465793305868,67.10765976551419,1.763232896652934,1.0541246545947136,A,1012,Correct
1,new_learn,14,266,B,41.102485405619355,14.433348462627762,2.0551242702809676,0.22671850748446454,B,1431,Correct
1,new_learn,14,267,A,27.38061109720752,49.55795611642246,1.369030554860376,0.7784545543113908,A,528,Correct
1,new_learn,14,268,B,44.37868577983124,18.613979545602735,2.2189342889915618,0.2923877069726812,B,1369,Correct
1,new_learn,14,269,B,66.14290869572069,40.077965595208674,3.3071454347860345,0.6295432114236603,B,632,Correct
1,new_learn,14,270,A,48.479334408011276,60.37982349100936,2.4239667204005637,0.9484440495220171,B,815,Incorrect
1,new_learn,14,271,A,54.94374233655225,75.33411130755057,2.7471871168276123,1.1833454532425833,A,647,Correct
1,new_learn,14,272,B,46.477910173346544,37.53118322480956,2.323895508667327,0.589538447497971,B,725,Correct
1,new_learn,14,273,B,36.606287080258895,21.035966185685236,1.8303143540129445,0.3304321841505602,B,1428,Correct
1,new_learn,14,274,B,85.17707611987797,65.6351611616722,4.258853805993898,1.0309947006134574,B,695,Correct
1,new_learn,14,275,A,35.61276356101677,55.61989375339736,1.7806381780508387,0.8736752480455899,B,3153,Incorrect
1,new_learn,14,276,B,74.53885014949253,46.49891787926319,3.7269425074746265,0.7304032940468417,B,690,Correct
1,new_learn,14,277,A,42.56076856976194,54.0258413616872,2.128038428488097,0.8486359316294204,B,786,Incorrect
1,new_learn,14,278,B,73.26522191494756,57.011205216555716,3.6632610957473783,0.8955299174031576,A,996,Incorrect
1,new_learn,14,279,A,48.357449475648345,79.53623794274148,2.4178724737824173,1.249352304075432,A,854,Correct
1,new_learn,14,280,A,47.7746368455014,66.3215399348585,2.3887318422750696,1.041776313170568,A,761,Correct
1,new_learn,14,281,B,70.55076860087728,54.18648149202734,3.527538430043864,0.8511592608961619,A,564,Incorrect
1,new_learn,14,282,A,32.3114790582847,52.109744471495105,1.615573952914235,0.8185379520604518,A,771,Correct
1,new_learn,14,283,B,77.26277631837391,66.00190838632828,3.863138815918695,1.0367555525469774,B,2053,Correct
1,new_learn,14,284,B,71.01704058989334,54.418460876615384,3.550852029494667,0.8548031845481924,B,702,Correct
1,new_learn,14,285,A,59.64035362008798,77.72679578585284,2.982017681004399,1.220929653139547,A,658,Correct
1,new_learn,14,286,B,65.27683247800462,40.01785820559295,3.2638416239002312,0.6285990467554442,B,635,Correct
1,new_learn,14,287,B,68.14404324025756,52.66920246431961,3.407202162012878,0.8273258976616996,B,1585,Correct
1,new_learn,14,288,B,40.48566182037221,31.556480350743676,2.0242830910186105,0.49568803421523494,100,1127,Incorrect
1,new_learn,14,289,B,61.95579489969556,44.426273681474065,3.097789744984778,0.6978462751204424,B,850,Correct
1,new_learn,14,290,B,85.19227295065338,56.50777217262632,4.259613647532669,0.8876220096412429,B,1357,Correct
1,new_learn,14,291,B,72.85686841630812,48.940458095208214,3.6428434208154057,0.7687549180761263,B,666,Correct
1,new_learn,14,292,B,71.50680399318934,47.412512430303366,3.575340199659467,0.744754003696379,100,1002,Correct
1,new_learn,14,293,B,45.05552742257168,20.387898705084623,2.252776371128584,0.3202523639701335,B,1939,Correct
1,new_learn,14,294,B,58.407805010482974,44.664882814782075,2.920390250524149,0.7015943386218418,B,859,Correct
1,new_learn,14,295,B,53.97614881899464,36.187754631993656,2.698807440949732,0.5684359205089063,B,562,Correct
1,new_learn,14,296,A,56.695446320207424,66.30367807066723,2.8347723160103713,1.0414957396639541,A,923,Correct
1,new_learn,14,297,A,56.300003498795725,83.5396883812295,2.8150001749397866,1.3122383565082558,A,648,Correct
1,new_learn,14,298,A,69.34755185372248,87.90223075974004,3.467377592686124,1.3807650119447703,A,1858,Correct
1,new_learn,14,299,A,30.83948129825861,60.33252362779049,1.5419740649129308,0.9477010650079963,A,674,Correct
1,new_learn,14,300,B,79.03631462220976,52.15171004347054,3.951815731110488,0.8191971457235604,B,1003,Correct
1,new_learn,14,301,A,32.13910892924176,63.720843469262164,1.6069554464620879,1.0009246686178959,A,927,Correct
1,new_learn,14,302,B,71.29448536650034,46.70417591462628,3.564724268325017,0.7336274797267764,B,1106,Correct
1,new_learn,14,303,A,55.83370895574602,74.32186731933308,2.791685447787301,1.1674451618574606,B,686,Incorrect
1,new_learn,14,304,B,60.48779042032263,43.61703602124211,3.0243895210161313,0.6851347996784778,B,686,Incorrect
1,new_learn,14,305,A,67.29167839150034,81.96022122026989,3.364583919575017,1.2874281443609707,A,872,Correct
1,new_learn,14,306,A,39.254172092247586,46.84496109037624,1.9627086046123794,0.7358389280961283,A,734,Correct
1,new_learn,14,307,A,23.13200237799848,42.287158264559196,1.156600118899924,0.6642451287256405,A,612,Correct
1,new_learn,14,308,B,57.320839767329865,40.06013038081402,2.8660419883664936,0.629263056531073,B,776,Correct
1,new_learn,14,309,B,44.142168044581595,19.380883384573227,2.2071084022290797,0.3044342043052787,B,2019,Correct
1,new_learn,14,310,A,53.464474929868544,61.574546586525805,2.6732237464934268,0.9672107160217597,B,1082,Incorrect
1,new_learn,14,311,B,41.077613219933795,13.275155790254882,2.0538806609966898,0.20852565952962368,B,934,Correct
1,new_learn,14,312,B,52.625410802732794,33.58607935180733,2.6312705401366396,0.5275689007726088,B,1096,Incorrect
1,new_learn,14,313,B,54.427755726241315,27.71800869871314,2.721387786312066,0.43539346250007593,A,1503,Incorrect
1,new_learn,14,314,B,53.68914044720379,21.5760188035257,2.68445702236019,0.3389153108343579,B,1341,Incorrect
1,new_learn,14,315,B,48.74800610711321,19.249526548309905,2.4374003053556605,0.3023708559462604,B,1830,Incorrect
1,new_learn,14,316,B,82.73657740184831,59.859556028562935,4.136828870092415,0.9402717073323997,A,1585,Correct
1,new_learn,14,317,A,43.24491835166988,56.003711607353814,2.162245917583494,0.8797042447971208,A,588,Correct
1,new_learn,14,318,A,31.75902338142358,61.004144228706835,1.5879511690711792,0.9582508567371879,A,794,Incorrect
1,new_learn,14,319,B,51.20550461267196,39.12293276025665,2.5602752306335983,0.6145415907325488,B,1188,Correct
1,new_learn,14,320,A,37.19937039848998,66.7887143351994,1.859968519924499,1.0491146714908486,A,533,Correct
1,new_learn,14,321,A,66.93126565400883,80.91385567391104,3.3465632827004415,1.2709918727939187,A,1212,Correct
1,new_learn,14,322,A,43.804915581494264,52.601593918736604,2.190245779074713,0.8262639051110823,A,940,Correct
1,new_learn,14,323,B,47.59547964453644,32.94560785912554,2.3797739822268222,0.5175083980913947,B,981,Correct
1,new_learn,14,324,B,54.69927446255473,33.26864046466361,2.7349637231277364,0.5225825823935366,B,2127,Correct
1,new_learn,14,325,B,79.46309016864824,61.01902721548851,3.973154508432412,0.9584846381468716,B,956,Incorrect
1,new_learn,14,326,B,76.9539689612775,47.60245086597255,3.8476984480638747,0.7477375496670423,A,1222,Correct
1,new_learn,14,327,B,64.51956555527215,56.87361049399671,3.2259782777636077,0.893368584555337,A,644,Correct
1,new_learn,14,328,B,74.06103454295611,41.49536493577157,3.7030517271478054,0.6518076682012373,A,1092,Incorrect
1,new_learn,14,329,A,60.149457681407355,77.67138858878722,3.0074728840703675,1.22005931892326,A,715,Correct
1,new_learn,14,330,A,45.61436447274373,61.68441081505055,2.2807182236371863,0.9689364592878879,A,728,Correct
1,new_learn,14,331,B,66.85169025276439,37.65271227839997,3.3425845126382194,0.5914474214077577,B,2475,Incorrect
1,new_learn,14,332,A,12.924780198046133,37.88636065110239,0.6462390099023066,0.5951175614637835,A,775,Incorrect
1,new_learn,14,333,A,62.34082911811779,78.01385892043709,3.1170414559058894,1.2254388303131785,A,414,Incorrect
1,new_learn,14,334,A,47.73457559396916,64.1565499647428,2.386728779698458,1.0077687302445122,B,605,Correct
1,new_learn,14,335,A,66.4813615588022,79.6081581016681,3.32406807794011,1.2504820232900762,B,819,Correct
1,new_learn,14,336,B,64.30145273383516,55.80726993622242,3.215072636691758,0.8766185462426945,A,871,Correct
1,new_learn,14,337,B,70.81483651660635,49.1589452985118,3.5407418258303176,0.7721869070401358,A,1344,Incorrect
1,new_learn,14,338,B,74.77716423518227,59.408097267014966,3.738858211759114,0.9331802096890104,B,722,Incorrect
1,new_learn,14,339,A,33.85312091812914,42.338498178677725,1.6926560459064572,0.665051574210794,A,1965,Incorrect
1,new_learn,14,340,A,33.08594397430361,58.73969861913873,1.6542971987151804,0.9226810282798236,A,1653,Correct
1,new_learn,14,341,B,47.92989575061702,18.346313438617663,2.396494787530851,0.28818321759608473,A,1811,Correct
1,new_learn,14,342,B,65.87922107460852,57.02991228377855,3.293961053730426,0.895823767327945,A,1396,Correct
1,new_learn,14,343,A,60.84290536495212,87.71881407758327,3.042145268247606,1.3778839094387225,B,1759,Correct
1,new_learn,14,344,A,50.078495233166606,61.617339369648704,2.5039247616583307,0.9678829034871875,A,1195,Incorrect
1,new_learn,14,345,B,46.88567318213443,24.295367797972936,2.3442836591067215,0.381630744951869,A,715,Incorrect
1,new_learn,14,346,A,22.50801967588583,44.65429751795931,1.1254009837942915,0.7014280651681695,A,924,Incorrect
1,new_learn,14,347,A,18.8566185362594,46.729867358789406,0.9428309268129701,0.7340310399879915,B,403,Incorrect
1,new_learn,14,348,B,77.83637594546792,64.1386663185502,3.891818797273396,1.007487814587022,B,612,Correct
1,new_learn,14,349,A,25.384620021426212,55.996150211124046,1.2692310010713106,0.8795854706628894,A,985,Correct
1,new_learn,14,350,B,59.54227114096229,35.05485905355587,2.977113557048115,0.5506404383763839,A,739,Incorrect
1,new_learn,14,351,B,59.964969799949344,51.752506635775276,2.9982484899974673,0.8129264732590431,B,632,Incorrect
1,new_learn,14,352,A,46.54982279336514,68.73126843373365,2.3274911396682567,1.0796282399166284,A,531,Incorrect
1,new_learn,14,353,A,67.66471419913887,84.999650107061,3.3832357099569434,1.3351713816702284,A,733,Incorrect
1,new_learn,14,354,A,53.42869268733574,79.24693158775028,2.671434634366787,1.2448078904780462,B,463,Correct
1,new_learn,14,355,B,86.43474914248294,64.04309332734739,4.321737457124147,1.0059865575518003,B,816,Correct
1,new_learn,14,356,B,59.51314911232483,26.540865357746732,2.9756574556162416,0.4169029381390648,A,703,Correct
1,new_learn,14,357,B,52.31070448568533,25.65233324231022,2.615535224284266,0.4029459083073951,B,417,Correct
1,new_learn,14,358,B,80.76428594236681,49.5241084639792,4.038214297118341,0.7779228766301058,A,741,Incorrect
1,new_learn,14,359,A,29.42837976322,47.89578493008577,1.471418988161,0.7523452303713708,B,621,Correct
1,new_learn,14,360,A,31.824402509003377,43.41482397706939,1.591220125450169,0.6819584603162759,100,556,Incorrect
1,new_learn,14,361,B,37.80606030160731,23.13404145273787,1.8903030150803657,0.36338867337881514,A,740,Correct
1,new_learn,14,362,B,57.971685916873746,44.36652860978086,2.898584295843687,0.6969078017288446,A,1311,Correct
1,new_learn,14,363,B,72.03940823016161,49.58914670056522,3.6019704115080806,0.7789444948614114,B,736,Incorrect
1,new_learn,14,364,B,62.11914055205647,53.69568386986867,3.105957027602823,0.8434498298752967,A,668,Correct
1,new_learn,14,365,A,49.00560597225095,58.307556872984875,2.4502802986125474,0.9158929616046917,B,857,Correct
1,new_learn,14,366,A,40.54303329409902,60.83478519235288,2.027151664704951,0.9555905712150448,A,663,Correct
1,new_learn,14,367,A,27.753924504361937,44.26076167599318,1.3876962252180969,0.6952464186179441,B,1341,Incorrect
1,new_learn,14,368,A,28.694431011897628,49.810936407116394,1.4347215505948814,0.782428359425126,A,1065,Correct
1,new_learn,14,369,B,36.548067956783186,26.264562892515457,1.8274033978391595,0.4125627891643682,B,669,Correct
1,new_learn,14,370,A,31.830960336062184,45.18600736589051,1.5915480168031093,0.7097801439286795,B,626,Incorrect
1,new_learn,14,371,B,75.6461029047886,50.500782229194,3.7823051452394303,0.7932644322588692,A,1922,Correct
1,new_learn,14,372,B,37.742897719834275,22.67435267497028,1.8871448859917137,0.3561678989429535,B,767,Correct
1,new_learn,14,373,A,51.15337861146608,76.9093018110066,2.5576689305733042,1.2080884878108926,A,684,Incorrect
1,new_learn,14,374,B,64.63175817457824,31.755360544123604,3.231587908728912,0.4988120369875695,B,773,Correct
1,new_learn,14,375,B,51.186302614816015,22.872072624143303,2.5593151307408006,0.3592736766419041,A,784,Correct
1,new_learn,14,376,A,34.041623360469245,61.32894776788568,1.7020811680234624,0.9633528587999091,A,1427,Correct
1,new_learn,14,377,B,66.8899976459075,36.048974513993755,3.344499882295375,0.5662559675130423,A,673,Correct
1,new_learn,14,378,B,59.11999085621061,47.468513056497954,2.9559995428105306,0.7456336594756258,B,703,Incorrect
1,new_learn,14,379,A,13.409875863459696,33.675097951907524,0.6704937931729847,0.5289672016731468,B,888,Incorrect
1,new_learn,14,380,B,57.03239464027777,25.13551615680982,2.8516197320138885,0.39482776451210644,A,738,Incorrect
1,new_learn,14,381,A,15.44113467348868,38.856825393429105,0.772056733674434,0.610361585989091,A,661,Incorrect
1,new_learn,14,382,B,53.235481415169495,30.037711987858586,2.661774070758475,0.471831276558513,B,559,Incorrect
1,new_learn,14,383,B,65.42849955891182,32.31537752032398,3.2714249779455913,0.5076087630791528,A,1160,Correct
1,new_learn,14,384,A,35.33534144858745,65.61681777953096,1.7667670724293725,1.030706563440573,A,727,Correct
1,new_learn,14,385,A,63.088883709490496,88.92543394713724,3.154444185474525,1.3968374500280538,B,622,Incorrect
1,new_learn,14,386,B,36.303203577301375,13.801327301527806,1.8151601788650686,0.21679074230134002,B,964,Incorrect
1,new_learn,14,387,A,25.68633733857694,55.4225829197905,1.2843168669288472,0.870575896718925,A,253,Incorrect
1,new_learn,14,388,A,49.55618240228358,57.43787483860298,2.477809120114179,0.9022320281538256,B,402,Incorrect
1,new_learn,14,389,B,48.18845266214481,21.632679192191695,2.4094226331072406,0.339805330138271,B,1216,Correct
1,new_learn,14,390,B,72.8999694941705,40.65194489493605,3.644998474708525,0.638559257180341,B,1289,Correct
1,new_learn,14,391,A,51.529905861322554,77.82437479822532,2.5764952930661273,1.2224624206816166,A,1013,Correct
1,new_learn,14,392,B,44.104240430583125,30.01497135641862,2.205212021529156,0.471474067555164,B,791,Incorrect
1,new_learn,14,393,B,40.74642984917625,31.136406244948745,2.0373214924588128,0.4890895255915917,A,791,Incorrect
1,new_learn,14,394,B,31.884950227851558,12.002205776529106,1.5942475113925778,0.18853020747208407,A,992,Incorrect
1,new_learn,14,395,B,82.81942917185506,56.232497548812,4.1409714585927535,0.8832980059617692,B,860,Incorrect
1,new_learn,14,396,A,67.37882700710028,81.20150251015077,3.3689413503550143,1.2755102187317142,A,1302,Correct
1,new_learn,14,397,A,52.07340389486764,64.32362439336804,2.6036701947433816,1.0103931292323713,A,577,Correct
1,new_learn,14,398,A,61.56642129014791,76.274539615512,3.0783210645073957,1.1981176665601807,A,773,Correct
1,new_learn,14,399,B,61.92895293590745,41.81427324107377,3.0964476467953728,0.6568170681467682,B,2021,Incorrect
1,new_learn,14,400,B,39.387063556036225,14.65608336913819,1.9693531778018112,0.23021721921442043,100,594,Incorrect
1,new_learn,14,401,B,80.04774753209992,58.87972470423377,4.002387376604997,0.9248805528810513,A,871,Incorrect
1,new_learn,14,402,B,39.92716304717221,15.946371459193287,1.9963581523586102,0.2504850171380779,B,2551,Incorrect
1,new_learn,14,403,A,52.75425977129872,61.92135086237403,2.637712988564936,0.9726583048479513,A,771,Correct
1,new_learn,14,404,A,48.6455263173057,73.40105234720495,2.432276315865285,1.1529810340986946,A,694,Incorrect
1,new_learn,14,405,A,28.589642598212308,45.76042508739852,1.4294821299106155,0.7188030763985863,A,789,Incorrect
1,new_learn,14,406,B,78.17767630547146,65.40726609474329,3.908883815273573,1.0274149332731914,A,834,Correct
1,new_learn,14,407,A,14.967722277674874,40.11888071678715,0.7483861138837438,0.6301859046505187,A,961,Correct
1,new_learn,14,408,B,38.1807641591067,15.902496806402649,1.909038207955335,0.24979583570364852,B,693,Incorrect
1,new_learn,14,409,B,52.695067430371516,39.97649572807845,2.634753371518576,0.627949326477975,A,575,Correct
1,new_learn,14,410,A,62.948276713925196,82.62180006242706,3.14741383569626,1.297820200512428,A,919,Correct
1,new_learn,14,411,A,38.964267380937244,50.34649701131027,1.9482133690468624,0.7908409257235642,A,436,Correct
1,new_learn,14,412,A,27.791926329218892,40.400192199418356,1.3895963164609446,0.6346047350865418,A,462,Correct
1,new_learn,14,413,B,69.26705900220499,53.34662541062483,3.463352950110249,0.8379668324191276,B,607,Incorrect
1,new_learn,14,414,A,53.65950911805938,61.11289940435498,2.682975455902969,0.9599591790414682,A,794,Correct
1,new_learn,14,415,B,52.541554782083324,31.87512076149762,2.627077739104166,0.5006932260830421,B,733,Correct
1,new_learn,14,416,A,25.77498436023496,38.53709901567751,1.288749218011748,0.6053393357915746,A,686,Incorrect
1,new_learn,14,417,A,14.212442312962128,42.640158425868506,0.7106221156481064,0.669790042293067,A,872,Incorrect
1,new_learn,14,418,B,58.662860312048906,43.94742982129444,2.9331430156024454,0.690324613353658,A,711,Incorrect
1,new_learn,14,419,A,56.30695516601877,84.4275862657107,2.8153477583009385,1.3261854238633761,A,704,Incorrect
1,new_learn,14,420,A,20.749090779678607,44.44278414994192,1.0374545389839305,0.6981056209526721,B,1413,Correct
1,new_learn,14,421,A,58.598800450648866,67.92426858096375,2.9299400225324432,1.0669519158720786,B,543,Incorrect
1,new_learn,14,422,B,80.59183190578615,65.07020936827664,4.0295915952893075,1.022120458594638,A,620,Incorrect
1,new_learn,14,423,A,59.61439636707169,85.25194065052271,2.980719818353584,1.3391343522597758,A,753,Correct
1,new_learn,14,424,A,17.67922954039475,34.43655071398208,0.8839614770197375,0.5409280736900922,A,1014,Incorrect
1,new_learn,14,425,A,56.18383622270724,82.39768992149237,2.8091918111353618,1.294299886650651,A,685,Incorrect
1,new_learn,14,426,A,23.761901224148662,41.33125769870496,1.188095061207433,0.6492298777493904,B,447,Incorrect
1,new_learn,14,427,B,76.72792559241364,46.445057888878814,3.836396279620682,0.7295572632962718,B,1829,Incorrect
1,new_learn,14,428,B,51.54421767210208,35.14800260751842,2.577210883605104,0.5521035339006738,A,991,Incorrect
1,new_learn,14,429,B,38.930105621692086,24.21023807626095,1.9465052810846044,0.3802935304102064,B,1325,Incorrect
1,new_learn,14,430,B,56.49743892663921,40.173506840835266,2.8248719463319607,0.6310439698005369,A,473,Correct
1,new_learn,14,431,B,52.41040573649684,43.12013180112064,2.620520286824842,0.6773294464411213,A,758,Correct
1,new_learn,14,432,B,54.06136912140138,38.63339495638646,2.703068456070069,0.6068519488910833,A,481,Incorrect
1,new_learn,14,433,A,39.1421003473926,70.35636618124016,1.95710501736963,1.1051552156412872,B,689,Correct
1,new_learn,14,434,B,49.08890840816809,35.85643471329837,2.4544454204084043,0.5632315593961009,A,769,Incorrect
1,new_learn,14,435,A,25.05629638620626,40.4826014716766,1.252814819310313,0.6358992169081128,B,788,Correct
1,new_learn,14,436,B,74.17687662212934,50.7540908896903,3.708843831106467,0.7972433953933985,B,727,Correct
1,new_learn,14,437,B,53.27959967835598,32.243575795228054,2.6639799839177987,0.5064809042187707,B,1051,Incorrect
1,new_learn,14,438,A,18.35873462983611,48.173175794038585,0.9179367314918054,0.7567024758732064,A,651,Incorrect
1,new_learn,14,439,A,56.72128808527048,64.36550326640176,2.836064404263524,1.011050961031688,A,966,Incorrect
1,new_learn,14,440,B,61.27877658602725,34.223585322851115,3.063938829301362,0.5375828211488627,A,944,Correct
1,new_learn,14,441,A,63.27245788455029,84.57961219433035,3.163622894227515,1.3285734415659096,B,1171,Incorrect
1,new_learn,14,442,B,35.062464352203286,10.857297306778023,1.753123217610164,0.17054602728407042,B,1190,Correct
1,new_learn,14,443,A,56.47429217011485,75.0354586974553,2.8237146085057425,1.1786542290133295,A,754,Correct
1,new_learn,14,444,B,50.89652753557874,37.62164958674792,2.544826376778937,0.5909594897882836,B,792,Incorrect
1,new_learn,14,445,B,84.85404121663802,55.47997821792248,4.242702060831902,0.8714774599537349,A,1575,Incorrect
1,new_learn,14,446,B,67.31579015562926,52.332997049301,3.365789507781463,0.8220447953521017,B,1185,Incorrect
1,new_learn,14,447,B,58.74827829427272,36.9335374618716,2.937413914713636,0.5801506498064962,B,2160,Correct
1,new_learn,14,448,B,82.08061593410198,58.36440226168788,4.104030796705099,0.9167858868823908,B,865,Correct
1,new_learn,14,449,A,13.642697306815176,34.758747150195816,0.6821348653407588,0.5459891234752017,A,622,Correct
1,new_learn,14,450,B,46.07893545442248,31.932576386532375,2.3039467727211242,0.5015957369306251,B,774,Correct
1,new_learn,14,451,B,64.82405334269282,50.87243550354668,3.2412026671346412,0.7991023482408142,A,1294,Incorrect
1,new_learn,14,452,A,64.1234657502516,87.17451234684624,3.20617328751258,1.3693340378456245,A,739,Correct
1,new_learn,14,453,A,64.54315908512154,82.36244391584538,3.2271579542560773,1.293746243688606,A,995,Correct
1,new_learn,14,454,A,24.94074181725226,37.282584104675884,1.247037090862613,0.5856334616504667,A,988,Incorrect
1,new_learn,14,455,B,52.668189983341776,43.666942871769145,2.633409499167089,0.6859187346533757,B,645,Correct
1,new_learn,14,456,A,26.692291847687244,53.623503463892334,1.3346145923843622,0.8423160227095549,A,536,Correct
1,new_learn,14,457,A,61.409960998572856,83.25390276398318,3.0704980499286427,1.3077492465300424,B,2034,Incorrect
1,new_learn,14,458,A,30.73949944457619,62.669675680246336,1.5369749722288093,0.984412963599584,A,726,Incorrect
1,new_learn,14,459,A,63.785003454824334,79.50819008766736,3.189250172741217,1.248911729398183,A,1672,Correct
1,new_learn,14,460,A,45.04297398978268,52.6187941565459,2.252148699489134,0.8265340858147907,B,5712,Correct
1,new_learn,14,461,B,39.944697882931735,14.098186411061153,1.9972348941465867,0.22145379428964587,A,1578,Incorrect
1,new_learn,14,462,A,32.99888497112405,51.39249497961882,1.6499442485562026,0.8072714233881039,A,2496,Incorrect
1,new_learn,14,463,A,63.31212885856062,80.56913123023172,3.165606442928031,1.2655769538950397,A,674,Correct
1,new_learn,14,464,A,58.541432388514934,71.5847313321478,2.9270716194257465,1.1244503303113729,A,600,Incorrect
1,new_learn,14,465,B,66.1884300400943,35.803133817733354,3.3094215020047155,0.5623943108864169,B,3968,Incorrect
1,new_learn,14,466,A,51.127255609505404,58.591662473101664,2.55636278047527,0.920355681935545,A,744,Incorrect
1,new_learn,14,467,A,51.744213694881616,79.08667215880075,2.587210684744081,1.2422905412547642,A,686,Incorrect
1,new_learn,14,468,B,61.521101353375116,29.842702124593195,3.0760550676687557,0.46876806878945243,B,635,Correct
1,new_learn,14,469,A,46.936195104551395,76.98534575125194,2.3468097552275697,1.2092829832310166,B,444,Incorrect
1,new_learn,14,470,A,17.05755749565925,34.4394271236776,0.8528778747829625,0.5409732562279331,A,961,Correct
1,new_learn,14,471,A,37.577836732203444,61.56175129230418,1.8788918366101723,0.967009728010124,A,776,Correct
1,new_learn,14,472,A,33.48471638085179,46.452736610243775,1.67423581904259,0.7296778803694173,B,742,Correct
1,new_learn,14,473,A,36.91610312269093,44.98796173622724,1.8458051561345463,0.7066692504525511,A,682,Correct
1,new_learn,14,474,B,55.78603752351898,35.732346250776196,2.7893018761759487,0.5612823823848263,A,1020,Correct
1,new_learn,14,475,A,41.87146800008556,63.796443637023884,2.093573400004278,1.0021121932761476,A,847,Correct
1,new_learn,14,476,A,28.4739760676038,42.442092697731326,1.42369880338019,0.6666788331108487,107,600,Incorrect
1,new_learn,14,477,A,24.078040142050302,56.478960621543294,1.203902007102515,0.887169438855138,A,440,Correct
1,new_learn,14,478,A,22.879723552961373,54.88918851176739,1.1439861776480686,0.8621973569503684,A,1174,Incorrect
1,new_learn,14,479,B,39.41136097251595,24.842435175859006,1.9705680486257975,0.39022405922879655,B,1216,Incorrect
1,new_learn,14,480,B,39.85932589278576,22.70297353672459,1.992966294639288,0.35661747438808716,A,1651,Correct
1,new_learn,14,481,B,41.27922095947939,19.570879622420666,2.0639610479739696,0.30741865823043474,A,490,Correct
1,new_learn,14,482,A,61.930508044702236,78.12079033141943,3.096525402235112,1.2271185049890792,A,1180,Incorrect
1,new_learn,14,483,A,18.297945847576763,34.09800270632287,0.9148972923788381,0.5356101740213441,A,819,Correct
1,new_learn,14,484,B,54.40120963873037,37.51725297568712,2.7200604819365184,0.5893196316564424,B,781,Incorrect
1,new_learn,14,485,A,34.319936544744955,60.64371618907627,1.715996827237248,0.9525892663299321,A,721,Correct
1,new_learn,14,486,A,19.47678343663453,41.28904745300602,0.9738391718317265,0.6485668407604204,A,1162,Incorrect
1,new_learn,14,487,A,34.87868106724333,59.25124550984574,1.7439340533621663,0.9307163880488829,A,585,Correct
1,new_learn,14,488,B,52.93677329520512,38.98393648103522,2.6468386647602564,0.6123582422841569,B,969,Correct
1,new_learn,14,489,B,50.36222832626139,38.19751022749237,2.5181114163130696,0.6000050875805552,100,656,Incorrect
1,new_learn,14,490,A,40.58240885982487,71.03493749946108,2.029120442991243,1.1158141889825852,A,428,Correct
1,new_learn,14,491,B,69.54963844539748,49.218471328094836,3.477481922269874,0.7731219397263129,B,750,Incorrect
1,new_learn,14,492,A,25.154467455820164,54.95771002423168,1.2577233727910082,0.8632736903512218,A,280,Correct
1,new_learn,14,493,A,57.49526416677177,70.89380870304363,2.8747632083385883,1.11359734303241,A,473,Correct
1,new_learn,14,494,B,42.778810261945765,26.355084567398833,2.138940513097288,0.4139847003083895,B,739,Correct
1,new_learn,14,495,B,45.626126582236836,34.80127005138422,2.281306329111842,0.5466570716451157,100,846,Incorrect
1,new_learn,14,496,B,43.15123401129462,22.413144680645566,2.157561700564731,0.35206485336280635,B,668,Correct
1,new_learn,14,497,A,55.01651706334449,65.04219971561123,2.7508258531672243,1.0216804839994218,A,530,Correct
1,new_learn,14,498,A,18.76986952452257,41.7699990376906,0.9384934762261284,0.6561216105863077,A,734,Correct
1,new_learn,14,499,B,45.96580009692275,17.388438987966637,2.2982900048461374,0.2731369609099516,B,653,Incorrect
1,new_learn,14,500,A,50.35033397718046,65.86313043108653,2.517516698859023,1.034575633523639,B,532,Incorrect
1,new_learn,14,501,A,61.949559339648545,72.53043221893871,3.097477966982427,1.1393053651035516,B,560,Incorrect
1,new_learn,14,502,B,81.17666237290089,64.87013495131814,4.058833118645044,1.0189776970021975,A,1023,Correct
1,new_learn,14,503,A,19.25611300656642,49.30574279602783,0.962805650328321,0.7744927967389446,A,589,Correct
1,new_learn,14,504,B,66.63357842620245,54.52648707700813,3.3316789213101226,0.8565000561359375,B,789,Correct
1,new_learn,14,505,B,37.84599308807732,25.51970223825853,1.892299654403866,0.40086254536755994,32,967,Correct
1,new_learn,14,506,B,61.22815781762372,43.13504741314168,3.061407890881186,0.6775637403268665,A,1386,Correct
1,new_learn,14,507,B,74.1160258422274,52.37240886474214,3.70580129211137,0.8226638747013744,B,788,Incorrect
1,new_learn,14,508,B,35.49582692153657,10.846554540338438,1.7747913460768285,0.17037728030344124,A,1026,Correct
1,new_learn,14,509,A,21.701565694433192,52.57442843769954,1.0850782847216596,0.8258371907327958,B,6469,Incorrect
1,new_learn,14,510,B,79.94708566229922,53.97114664740256,3.997354283114961,0.8477767890664865,107,419,Incorrect
1,new_learn,14,511,A,28.83431908519373,59.77246530427811,1.4417159542596867,0.9389036894343544,A,634,Correct
1,new_learn,14,512,B,65.88108018174627,44.363797725664604,3.294054009087313,0.6968649051014575,B,706,Correct
1,new_learn,14,513,B,77.53773256553845,59.421143606943254,3.8768866282769228,0.9333851411173851,B,865,Correct
1,new_learn,14,514,A,60.0222162993343,68.29289034199944,3.0011108149667156,1.072742212954194,A,825,Correct
1,new_learn,14,515,A,36.60931242992248,59.726961207492906,1.8304656214961241,0.9381889127535114,A,583,Correct
1,new_learn,14,516,A,63.26099754155979,79.38493439914896,3.1630498770779893,1.24697563357037,107,467,Correct
1,new_learn,14,517,A,40.62743623905403,50.14317195799425,2.031371811952701,0.7876471032546224,A,920,Incorrect
1,new_learn,14,518,A,49.26762603176525,74.38672905299781,2.4633813015882624,1.1684640075873616,B,693,Incorrect
1,new_learn,14,519,A,36.78454103510629,50.25183507797618,1.8392270517553144,0.7893539795518792,A,621,Incorrect
1,new_learn,14,520,A,22.1848114225428,38.70043586601668,1.10924057112714,0.6079050250370047,B,450,Correct
1,new_learn,14,521,B,54.47055151413642,43.53943161205761,2.723527575706821,0.683915792469577,A,1359,Incorrect
1,new_learn,14,522,A,34.4373551239181,49.186735842705005,1.7218677561959053,0.772623439887519,B,884,Correct
1,new_learn,14,523,B,54.7387922299957,40.39428333346772,2.736939611499785,0.6345119188372341,B,591,Incorrect
1,new_learn,14,524,B,57.40389146938855,37.68321800797774,2.870194573469427,0.5919266042874273,B,606,Correct
1,new_learn,14,525,A,49.528470528826986,73.6998769268555,2.476423526441349,1.1576749596194058,A,578,Correct
1,new_learn,14,526,B,62.05505674229861,34.717656366270276,3.1027528371149304,0.5453436709506481,B,919,Correct
1,new_learn,14,527,A,40.76653748668602,64.86711124666905,2.038326874334301,1.0189302007606367,A,378,Correct
1,new_learn,14,528,B,71.3018219822988,55.64365557109172,3.56509109911494,0.8740484978051125,B,733,Incorrect
1,new_learn,14,529,B,72.37930940039827,59.89484410717593,3.6189654700199134,0.940826011175049,A,691,Incorrect
1,new_learn,14,530,A,19.54868237156787,41.73402503891523,0.9774341185783936,0.6555565323349428,A,569,Correct
1,new_learn,14,531,A,11.469246761127472,36.06595976932678,0.5734623380563736,0.5665227712799102,A,775,Correct
1,new_learn,14,532,A,58.52477360163094,74.65703676038153,2.926238680081547,1.1727099911259888,100,567,Incorrect
1,new_learn,14,533,B,31.76586257134837,14.994062879563955,1.5882931285674187,0.2355261889495077,107,980,Correct
1,new_learn,14,534,B,34.36139226178368,11.889924719652448,1.718069613089184,0.18676650075497905,A,905,Incorrect
1,new_learn,14,535,B,52.45742456688463,32.138185044558426,2.6228712283442315,0.5048254301784705,100,2079,Incorrect
1,new_learn,14,536,A,46.08742542954778,77.65523432899586,2.3043712714773887,1.2198055684038365,107,1032,Incorrect
1,new_learn,14,537,A,37.66773627788606,60.88846553632601,1.8833868138943028,0.9564337800863855,B,1181,Correct
1,new_learn,14,538,B,43.89520542483048,35.89689288959087,2.194760271241524,0.5638670749431919,B,1738,Incorrect
1,new_learn,14,539,A,43.880816743703825,62.484807161307295,2.194040837185191,0.9815090556946894,A,808,Correct
1,new_learn,14,540,A,31.66010370325901,50.27964092372251,1.5830051851629505,0.7897907527554968,A,721,Correct
1,new_learn,14,541,A,33.87485469707161,56.59115843363594,1.6937427348535805,0.8889318379662338,A,1060,Correct
1,new_learn,14,542,B,58.33517572916577,46.23189070688141,2.9167587864582885,0.7262088410315244,B,1265,Correct
1,new_learn,14,543,B,63.77651050880171,39.49734339681253,3.1888255254400857,0.6204228192586979,B,767,Correct
1,new_learn,14,544,A,27.872134216598887,44.757650977941566,1.3936067108299444,0.7030515375211863,A,717,Correct
1,new_learn,14,545,A,19.33035593548283,33.08988269276952,0.9665177967741415,0.5197746618787639,A,620,Correct
1,new_learn,14,546,A,66.85749875510714,83.06876348839606,3.342874937755357,1.3048410855896655,A,1014,Correct
1,new_learn,14,547,A,43.644644121144125,67.75655356131578,2.1822322060572064,1.064317454503965,A,565,Incorrect
1,new_learn,14,548,B,46.87612020676751,26.201589995470844,2.3438060103383753,0.4115736132107151,B,794,Correct
1,new_learn,14,549,A,56.51570715000926,74.72875101278149,2.825785357500463,1.1738364759684756,A,1003,Incorrect
1,new_learn,14,550,A,31.871328924990593,51.37282504848336,1.5935664462495296,0.8069624488323451,A,744,Correct
1,new_learn,14,551,A,31.789204868788016,59.49557690464086,1.5894602434394007,0.9345543366235314,A,965,Correct
1,new_learn,14,552,B,38.39827462093663,15.968167392518428,1.9199137310468317,0.2508273868581399,B,652,Correct
1,new_learn,14,553,A,45.5207519666681,55.10657897098007,2.276037598333405,0.865612118298484,A,570,Incorrect
1,new_learn,14,554,B,47.622787367880505,23.750867982903028,2.381139368394025,0.37307776185734587,100,927,Incorrect
1,new_learn,14,555,A,62.54706783706449,77.80738508179938,3.127353391853225,1.2221955468400652,100,666,Incorrect
1,new_learn,14,556,A,53.06216949003497,72.19753881637125,2.653108474501748,1.1340762877638793,A,521,Correct
1,new_learn,14,557,A,37.66312679216145,54.53259244374327,1.8831563396080724,0.8565959590123506,100,601,Incorrect
1,new_learn,14,558,A,62.62254196631844,73.6498399744231,3.1311270983159214,1.1568889810085574,A,456,Correct
1,new_learn,14,559,A,47.25322148754391,65.32915903890621,2.362661074377195,1.0261880305091349,107,1063,Correct
1,new_learn,14,560,A,63.81919900174334,88.06189381759319,3.1909599500871675,1.3832729933927759,100,707,Incorrect
1,new_learn,14,561,B,71.72522098284888,61.22955111897161,3.5862610491424443,0.9617915398898096,A,400,Incorrect
1,new_learn,14,562,A,26.15365923977484,36.736704312477315,1.307682961988742,0.5770588019258961,B,977,Correct
1,new_learn,14,563,A,21.49939799202343,40.01908226828981,1.0749698996011714,0.6286182742873241,A,453,Correct
1,new_learn,14,564,A,52.33041377326972,60.21165669445148,2.616520688663486,0.9458024916587972,100,947,Incorrect
1,new_learn,14,565,B,47.19768776807257,39.31174155321038,2.3598843884036285,0.6175073923169317,A,142,Incorrect
1,new_learn,14,566,A,46.76692046033379,68.94123687476784,2.3383460230166895,1.0829264164758219,A,1698,Incorrect
1,new_learn,14,567,A,27.504743491343373,51.30693996277462,1.3752371745671688,0.8059275283261267,A,523,Incorrect
1,new_learn,14,568,A,50.73920755309566,71.9031697976,2.536960377654783,1.1294523500297982,A,545,Incorrect
1,new_learn,14,569,B,50.37496503296442,32.15923332457319,2.518748251648221,0.5051560557877959,B,691,Incorrect
1,new_learn,14,570,A,23.01151195256665,40.22640295085283,1.1505755976283325,0.6318748599537101,A,488,Incorrect
1,new_learn,14,571,A,55.47274741485773,83.13592283312218,2.773637370742886,1.3058960221097229,A,814,Incorrect
1,new_learn,14,572,B,45.06370945084231,34.43532141170103,2.2531854725421154,0.5409087638550163,B,745,Correct
1,new_learn,14,573,A,46.80771130565477,75.07168029701883,2.3403855652827388,1.17922319656878,A,1175,Correct
1,new_learn,14,574,B,41.10167410694995,22.527496791467414,2.0550837053474975,0.3538610921192083,B,713,Correct
1,new_learn,14,575,B,58.61840382290887,43.88351512297785,2.930920191145443,0.6893206436202188,A,1202,Incorrect
1,new_learn,14,576,B,57.950335246784995,46.535841060805325,2.8975167623392495,0.7309832820262412,B,837,Incorrect
1,new_learn,14,577,B,56.005180225706866,29.905181678941965,2.800259011285343,0.46974949533416077,A,500,Incorrect
1,new_learn,14,578,B,71.67738733119899,45.38829417743379,3.5838693665599495,0.712957657733992,A,879,Incorrect
1,new_learn,14,579,A,38.75595192446492,50.89955945200407,1.9377975962232457,0.7995284102268645,A,860,Incorrect
1,new_learn,14,580,A,56.2685039142994,72.10985850497077,2.81342519571497,1.1326990086530782,B,691,Correct
1,new_learn,14,581,B,64.07008396390245,33.926572283213815,3.203504198195122,0.532917351232138,B,736,Incorrect
1,new_learn,14,582,A,13.25873191174389,30.27242615412567,0.6629365955871945,0.4755181580607036,A,639,Incorrect
1,new_learn,14,583,B,73.45045925888986,51.30667968155398,3.672522962944493,0.8059234398382735,107,2641,Incorrect
1,new_learn,14,584,B,70.52074861992098,37.95501665220206,3.526037430996049,0.5961960074071815,A,801,Correct
1,new_learn,14,585,A,65.50445546659546,88.2941415051071,3.275222773329773,1.3869211315373104,A,1016,Incorrect
1,new_learn,14,586,B,39.041818872924395,15.379336431563726,1.95209094364622,0.24157805175243235,B,1332,Correct
1,new_learn,14,587,A,24.957340981493605,35.887700410978795,1.2478670490746802,0.5637226798268119,A,885,Incorrect
1,new_learn,14,588,A,53.08937319944092,68.75836456139079,2.654468659972046,1.0800538648945706,B,465,Correct
1,new_learn,14,589,A,14.104566142773571,40.98098059728435,0.7052283071386785,0.6437277379066718,A,755,Incorrect
1,new_learn,14,590,A,24.031004608173767,53.99746257394805,1.2015502304086882,0.8481901586740248,B,1121,Incorrect
1,new_learn,14,591,A,66.61787064938044,89.64216330094932,3.330893532469022,1.4080958083907948,A,539,Correct
1,new_learn,14,592,B,64.46348411880486,51.407326640969586,3.223174205940243,0.8075043985798045,108,1089,Incorrect
1,new_learn,14,593,A,54.75766391915835,62.24759930025973,2.7378831959579175,0.9777830033264856,A,859,Correct
1,new_learn,14,594,A,40.541254028650876,61.72533224202505,2.027062701432544,0.9695792515596755,A,1289,Incorrect
1,new_learn,14,595,A,17.226998287807422,33.8584689331428,0.8613499143903711,0.5318475863107983,100,2072,Correct
1,new_learn,14,596,B,80.67341389213956,65.49577747043014,4.033670694606979,1.0288052667112761,A,1686,Correct
1,new_learn,14,597,B,44.68951199870449,29.2864797432684,2.2344755999352244,0.46003094805479144,100,1028,Incorrect
1,new_learn,14,598,B,46.32560415868217,22.440225307060054,2.316280207934108,0.3524902348477981,A,1471,Incorrect
1,new_learn,14,599,A,50.029760895796514,58.650372381995425,2.501488044789826,0.9212778950279127,A,754,Incorrect
1,new_learn,14,600,A,59.77246530427811,71.16568091480627,2.988623265213905,1.1178679017483537,A,444,Correct
1,new_learn,14,601,A,73.50695177633607,40.775916047760134,3.6753475888168032,0.6405065914951871,A,1825,Correct
1,new_learn,14,602,A,34.09800270632287,81.70205415242324,1.7049001353161435,1.2833728655422416,A,1031,Correct
1,new_learn,14,603,A,49.58775801587388,72.39871934082205,2.479387900793694,1.1372364240521793,A,1897,Correct
1,new_learn,14,604,A,53.07459401999622,72.59125431509474,2.653729700999811,1.1402607563558502,A,588,Correct
1,new_learn,14,605,A,63.402983278100855,69.31880683266964,3.1701491639050428,1.0888572715056244,A,739,Correct
1,new_learn,14,606,B,29.00364121665038,57.87256572972382,1.4501820608325189,0.9090601367044638,A,824,Incorrect
1,new_learn,14,607,A,60.88477858129159,48.311329552625715,3.04423892906458,0.758872590038422,A,633,Correct
1,new_learn,14,608,B,34.717656366270276,37.94494325770139,1.7358828183135138,0.5960377748963812,A,707,Incorrect
1,new_learn,14,609,B,32.138185044558426,47.54257543311537,1.6069092522279214,0.746797028567069,B,1954,Correct
1,new_learn,14,610,A,78.85297905564323,44.48951169727115,3.9426489527821618,0.6988396155497211,B,1252,Incorrect
1,new_learn,14,611,B,15.946371459193287,60.07283695282779,0.7973185729596644,0.9436219162565064,A,881,Incorrect
1,new_learn,14,612,B,50.87243550354668,35.17594665730718,2.5436217751773342,0.5525424780083134,A,1271,Incorrect
1,new_learn,14,613,A,76.274539615512,38.43357870985209,3.8137269807756002,0.6037132426301821,B,495,Incorrect
1,new_learn,14,614,B,48.370561164696625,30.820135309738404,2.4185280582348314,0.48412155335858775,A,588,Incorrect
1,new_learn,14,615,A,53.96311732286919,61.7926793725535,2.6981558661434595,0.970637137812218,A,650,Correct
1,new_learn,14,616,B,32.31537752032398,34.571500441088176,1.6157688760161988,0.5430478590464946,B,984,Correct
1,new_learn,14,617,B,31.556480350743676,59.51433817962779,1.5778240175371838,0.934849038041886,B,1392,Correct
1,new_learn,14,618,B,29.357874976559593,49.176470751325624,1.4678937488279797,0.7724621962091895,B,788,Correct
1,new_learn,14,619,A,36.96884420826199,82.83104281008812,1.8484422104130998,1.3011069779067728,A,672,Correct
1,new_learn,14,620,A,44.627171087387495,70.6821560273793,2.2313585543693746,1.1102727105775119,A,1476,Correct
1,new_learn,14,621,A,59.726961207492906,63.39068757007752,2.986348060374645,0.9957385918808067,B,605,Incorrect
1,new_learn,14,622,A,44.44278414994192,79.25090922032139,2.2221392074970963,1.2448703709843665,A,680,Correct
1,new_learn,14,623,A,60.986376230228935,67.77592806781738,3.049318811511447,1.0646217885404266,B,670,Incorrect
1,new_learn,14,624,A,49.58789525115762,66.10949286352044,2.479394762557881,1.0384454855629135,A,675,Correct
1,new_learn,14,625,A,46.0399402035964,69.35967307708749,2.30199701017982,1.0894991969718393,A,2071,Correct
1,new_learn,14,626,B,25.95701224663509,50.013716877640285,1.2978506123317546,0.7856136276075729,A,674,Incorrect
1,new_learn,14,627,B,62.00211299906556,20.75020998099957,3.100105649953278,0.3259435361837693,B,524,Correct
1,new_learn,14,628,A,75.33411130755057,45.05625766344775,3.7667055653775288,0.7077420403686813,B,1643,Incorrect
1,new_learn,14,629,B,56.87361049399671,35.48043444472785,2.843680524699835,0.5573253609886564,B,920,Correct
1,new_learn,14,630,B,50.41202192721393,27.665896273389308,2.5206010963606964,0.4345748824372854,100,809,Correct
1,new_learn,14,631,A,37.15866472840577,81.19395275903568,1.8579332364202883,1.275391627518516,A,955,Correct
1,new_learn,14,632,A,55.61989375339736,64.38723643898322,2.7809946876698683,1.0113923449082936,A,1042,Correct
1,new_learn,14,633,B,37.65271227839997,33.148309747235615,1.8826356139199985,0.5206924319041717,B,965,Correct
1,new_learn,14,634,B,44.936966122505,42.72469883646968,2.24684830612525,0.6711179999574475,B,864,Correct
1,new_learn,14,635,A,89.64216330094932,33.382129350619564,4.482108165047467,0.5243652616454532,A,2356,Correct
1,new_learn,14,636,B,30.80905703182577,51.12527452141457,1.5404528515912883,0.8030739342461871,B,1011,Correct
1,new_learn,14,637,A,49.19744864247062,72.61096000476795,2.459872432123531,1.1405702926054064,A,563,Correct
1,new_learn,14,638,A,60.33252362779049,69.16051870174138,3.0166261813895243,1.0863708873592512,B,3247,Incorrect
1,new_learn,14,639,B,68.94367376310234,16.60369903458377,3.4471836881551168,0.2608102945473216,B,908,Correct
1,new_learn,14,640,A,68.46454305362614,47.57914532127753,3.423227152681307,0.7473714670270334,107,1315,Incorrect
1,new_learn,14,641,B,38.00549190821958,36.36557268654697,1.9002745954109792,0.5712290799782079,B,3425,Correct
1,new_learn,14,642,A,46.84496109037624,60.745827907752414,2.342248054518812,0.954193233456124,A,928,Correct
1,new_learn,14,643,B,31.932576386532375,53.92106454557752,1.596628819326619,0.8469901012506369,A,675,Incorrect
1,new_learn,14,644,B,36.9335374618716,41.25172170572728,1.84667687309358,0.6479805292932171,A,1536,Incorrect
1,new_learn,14,645,B,52.032321843486095,29.450945594856904,2.6016160921743046,0.46261437161037566,107,528,Incorrect
1,new_learn,14,646,B,36.035669496979274,54.776900897661996,1.8017834748489636,0.8604335472325554,A,1386,Incorrect
1,new_learn,14,647,A,55.107441495267395,67.03532635853725,2.7553720747633696,1.052988444094874,A,891,Correct
1,new_learn,14,648,B,45.157960427655325,31.761723190468317,2.257898021382766,0.49891198120263913,B,686,Correct
1,new_learn,14,649,A,64.32362439336804,47.92659610513236,3.216181219668402,0.7528292111772452,B,723,Incorrect
1,new_learn,14,650,B,47.60245086597255,23.046031038722504,2.3801225432986275,0.36200620902826486,B,641,Correct
1,new_learn,14,651,A,79.08667215880075,48.255786305118384,3.9543336079400375,0.7580001187467943,B,2229,Incorrect
1,new_learn,14,652,B,47.468513056497954,40.88000914378939,2.373425652824898,0.6421416820240615,B,1321,Correct
1,new_learn,14,653,B,41.289504619371975,50.50232101514656,2.0644752309685988,0.7932886034520893,A,841,Incorrect
1,new_learn,14,654,A,39.110357787250976,87.17114706974296,1.9555178893625487,1.3692811761964994,A,4959,Correct
1,new_learn,14,655,A,30.60913982516191,86.76858026865666,1.5304569912580956,1.36295767167214,A,1649,Correct
1,new_learn,14,656,B,18.346313438617663,52.07010424938298,0.9173156719308833,0.817915284907581,A,2290,Incorrect
1,new_learn,14,657,B,65.49577747043014,19.326586107860436,3.274788873521507,0.30358130467712446,B,2186,Correct
1,new_learn,14,658,B,52.446610297107995,37.23687312758915,2.6223305148554,0.5849154353014463,B,2317,Correct
1,new_learn,14,659,A,52.435945731255835,66.5003034749979,2.6217972865627917,1.044584324292726,A,1994,Correct
1,new_learn,14,660,B,48.140724114474025,25.2532096311852,2.4070362057237014,0.39667648928447213,B,1806,Correct
1,new_learn,14,661,B,56.407018357542555,35.656905109644555,2.8203509178771276,0.5600973557110384,B,933,Correct
1,new_learn,14,662,A,42.70893617391466,75.63742936144845,2.135446808695733,1.1881099620917168,A,833,Correct
1,new_learn,14,663,B,56.08559914235181,28.593286214704364,2.8042799571175907,0.4491422895705277,B,564,Correct
1,new_learn,14,664,B,39.188482305800655,31.571492705459235,1.9594241152900327,0.4959238477316724,B,710,Correct
1,new_learn,14,665,B,29.670206531891314,44.136674053636575,1.4835103265945657,0.6932972548039594,B,1128,Correct
1,new_learn,14,666,A,58.650372381995425,49.970239104203486,2.9325186190997714,0.7849306803394553,B,847,Incorrect
1,new_learn,14,667,B,32.419893691936025,55.53508689816572,1.620994684596801,0.872343105078741,A,494,Incorrect
1,new_learn,14,668,A,79.53623794274148,51.642550524351655,3.976811897137074,0.8111992866997143,B,478,Incorrect
1,new_learn,14,669,B,26.355084567398833,57.221189738054235,1.3177542283699415,0.8988283465536941,A,1547,Incorrect
1,new_learn,14,670,A,86.07773572284268,39.074859533543226,4.303886786142134,0.6137864582531626,B,998,Incorrect
1,new_learn,14,671,B,32.17334304751737,44.05125492688899,1.6086671523758684,0.6919554942986281,B,2735,Correct
1,new_learn,14,672,B,60.38621789558046,15.257296109062437,3.019310894779023,0.23966104684937348,B,679,Correct
1,new_learn,14,673,A,38.237774919986805,74.36763665267492,1.9118887459993403,1.168164104864393,A,761,Correct
1,new_learn,14,674,A,41.09165688737134,84.64898897219754,2.0545828443685674,1.329663209444296,A,756,Correct
1,new_learn,14,675,B,35.89691296293885,43.27919109233867,1.7948456481469424,0.6798279439449999,B,1571,Correct
1,new_learn,14,676,A,35.97780319088335,73.8925887961715,1.7988901595441675,1.1607020705839193,A,545,Correct
1,new_learn,14,677,A,86.6580803975969,36.750543784502824,4.332904019879845,0.5772761918441205,B,1210,Incorrect
1,new_learn,14,678,B,55.21190763169861,30.6695815808731,2.7605953815849307,0.48175666091571884,B,677,Correct
1,new_learn,14,679,B,24.2582590326344,57.789073101322685,1.2129129516317199,0.9077486375643943,B,759,Correct
1,new_learn,14,680,A,74.15493569641174,40.93126915814692,3.707746784820587,0.6429468724467041,A,1135,Correct
1,new_learn,14,681,B,29.46095871208923,52.58249502039227,1.4730479356044615,0.8259639003174313,B,688,Correct
1,new_learn,14,682,B,56.08816989831976,32.74547459169102,2.8044084949159878,0.5143647120778387,B,514,Correct
1,new_learn,14,683,A,69.44133960794635,40.06841943414966,3.4720669803973174,0.6293932606763952,B,577,Incorrect
1,new_learn,14,684,B,43.12013180112064,47.58959426350316,2.156006590056032,0.7475355986277025,B,665,Correct
1,new_learn,14,685,A,67.92426858096375,41.401199549351134,3.396213429048188,0.6503285217702328,B,688,Incorrect
1,new_learn,14,686,B,43.53943161205761,45.52944848586358,2.176971580602881,0.7151749044259199,B,550,Correct
1,new_learn,14,687,A,51.30693996277462,72.49525650865662,2.5653469981387307,1.1387528263385165,A,817,Correct
1,new_learn,14,688,A,51.39249497961882,67.00111502887594,2.569624748980941,1.0524510537852068,A,708,Correct
1,new_learn,14,689,B,13.19244324333031,66.31016596772308,0.6596221621665154,1.0415976513125937,A,618,Incorrect
1,new_learn,14,690,B,11.889924719652448,65.63860773821632,0.5944962359826225,1.0310488393112127,B,765,Correct
1,new_learn,14,691,A,58.09567934428313,68.90527757915099,2.904783967214156,1.082361569181131,A,2412,Correct
1,new_learn,14,692,A,34.4394271236776,82.94244250434075,1.72197135618388,1.3028568402121534,A,661,Correct
1,new_learn,14,693,A,84.52851046516665,34.71546130439732,4.226425523258332,0.5453091909993768,B,1326,Incorrect
1,new_learn,14,694,A,52.258803347357876,78.09494546907567,2.612940167367894,1.226712534840718,A,752,Correct
1,new_learn,14,695,B,44.426273681474065,38.04420510030444,2.2213136840737033,0.5975969762738987,A,641,Incorrect
1,new_learn,14,696,B,65.07020936827664,19.40816809421385,3.253510468413832,0.3048627915220902,B,1613,Correct
1,new_learn,14,697,A,47.29271663739091,68.75617662726097,2.3646358318695455,1.0800194969056265,A,823,Correct
1,new_learn,14,698,A,55.10657897098007,54.4792480333319,2.7553289485490033,0.8557580269730584,B,968,Incorrect
1,new_learn,14,699,B,61.135383492095144,26.60402376155035,3.056769174604757,0.41789502802607437,B,546,Correct
1,new_learn,14,700,B,20.95144571861566,52.20294133449967,1.047572285930783,0.8200018849612156,B,1512,Correct
1,new_learn,14,701,A,39.72203839856991,70.5890113993035,1.9861019199284953,1.1088095981810904,A,575,Correct
1,new_learn,14,702,B,46.49891787926319,25.461149850507468,2.3249458939631595,0.39994280661151554,B,745,Correct
1,new_learn,14,703,B,45.01436216913112,31.818433757264557,2.2507181084565557,0.4998027887027791,B,675,Correct
1,new_learn,14,704,A,55.4225829197905,74.31366266142305,2.771129145989525,1.1673162833923838,A,720,Correct
1,new_learn,14,705,B,49.58914670056522,27.960591769838388,2.479457335028261,0.4392039484707375,B,670,Correct
1,new_learn,14,706,B,21.914673511670443,64.54236142328497,1.095733675583522,1.0138290424636467,B,737,Correct
1,new_learn,14,707,A,56.13163348314119,52.70419690228033,2.806581674157059,0.8278755890077691,B,1901,Incorrect
1,new_learn,14,708,A,78.12079033141943,38.069491955297764,3.906039516570971,0.597994181263296,B,1125,Incorrect
1,new_learn,14,709,A,58.31500417333954,51.60978147890849,2.9157502086669767,0.8106845517375675,A,1270,Correct
1,new_learn,14,710,A,63.480758103976996,52.98094945427072,3.17403790519885,0.8322228079287453,A,717,Correct
1,new_learn,14,711,A,39.76042520033717,84.34610914543491,1.9880212600168585,1.3249055842509059,A,536,Correct
1,new_learn,14,712,B,44.87589407073488,45.93495516204288,2.2437947035367443,0.7215445884002523,B,553,Correct
1,new_learn,14,713,A,40.14836485362666,74.66446368470068,2.007418242681333,1.1728266529803877,A,770,Correct
1,new_learn,14,714,B,55.64365557109172,28.698178017701196,2.7821827785545863,0.4507899261591108,B,782,Correct
1,new_learn,14,715,B,47.10471382200485,27.409554793736987,2.3552356911002423,0.43054827989085503,B,1312,Correct
1,new_learn,14,716,B,22.527496791467414,58.89832589305005,1.1263748395733706,0.9251727396717175,A,949,Incorrect
1,new_learn,14,717,A,53.99746257394805,75.96899539182624,2.6998731286974027,1.1933181891177909,B,453,Incorrect
1,new_learn,14,718,A,60.01056695818276,68.36387885389938,3.0005283479091376,1.0738572978915644,A,2116,Correct
1,new_learn,14,719,A,61.92135086237403,47.24574022870128,3.0960675431187012,0.7421343520794985,B,1190,Incorrect
1,new_learn,14,720,B,13.275155790254885,58.922386780066205,0.6637577895127442,0.9255506872011616,B,1317,Correct
1,new_learn,14,721,B,37.54393711410779,40.17198492258206,1.8771968557053895,0.6310200635645188,B,994,Correct
1,new_learn,14,722,B,38.19751022749237,49.63777167373861,1.9098755113746189,0.7797082941539238,B,464,Correct
1,new_learn,14,723,A,56.92020806670878,58.646243031482335,2.846010403335439,0.9212130313417327,B,652,Incorrect
1,new_learn,14,724,A,48.173175794038585,81.6412653701639,2.408658789701929,1.2824179975834085,A,557,Correct
1,new_learn,14,725,B,60.53467572680235,14.201257568182697,3.026733786340117,0.22307283223969607,B,670,Correct
1,new_learn,14,726,A,80.56913123023172,36.68787114143938,4.028456561511586,0.5762917322689747,B,953,Incorrect
1,new_learn,14,727,A,79.35845049897173,44.43578258179215,3.9679225249485865,0.6979956405773575,B,567,Incorrect
1,new_learn,14,728,A,83.27859887689615,38.88548914755957,4.163929943844807,0.6108118351860938,B,772,Incorrect
1,new_learn,14,729,B,10.857297306778023,64.93753564779672,0.5428648653389011,1.0200364246667175,A,661,Incorrect
1,new_learn,14,730,A,63.494778706427326,62.04021411142729,3.174738935321366,0.974525404397989,B,1526,Incorrect
1,new_learn,14,731,A,71.477921414921,57.589567390938385,3.5738960707460503,0.9046148091939317,B,2421,Incorrect
1,new_learn,14,732,B,26.682219627525882,58.700820332020314,1.3341109813762941,0.9220703295738468,A,858,Incorrect
1,new_learn,14,733,B,68.07918928281345,14.808098573988318,3.403959464140672,0.23260506846837595,B,796,Correct
1,new_learn,14,734,B,29.030803440240305,53.29757665749523,1.4515401720120154,0.8371963764066294,B,1578,Correct
1,new_learn,14,735,B,49.5241084639792,19.23571405763319,2.47620542319896,0.3021538898500717,B,787,Correct
1,new_learn,14,736,B,46.213039954061784,35.0240449092705,2.3106519977030895,0.5501564109298159,B,662,Correct
1,new_learn,14,737,B,50.35099350901868,31.501458451204698,2.517549675450934,0.4948237522383439,B,677,Correct
1,new_learn,14,738,A,74.38672905299781,50.73237396823475,3.71933645264989,0.7969022667888818,B,520,Incorrect
1,new_learn,14,739,B,29.391465787187272,40.551207735395245,1.4695732893593634,0.6369768815785566,B,1125,Correct
1,new_learn,14,740,A,79.38493439914896,36.73900245844021,3.969246719957448,0.5770949011182656,B,2771,Incorrect
1,new_learn,14,741,B,35.14800260751842,48.45578232789792,1.7574001303759212,0.7611416489263513,B,1028,Correct
1,new_learn,14,742,A,30.458725155869434,84.97080714800614,1.5229362577934717,1.334718317528856,A,951,Correct
1,new_learn,14,743,B,39.72538677404452,46.485509176810815,1.986269338702226,0.7301926706412487,B,720,Correct
1,new_learn,14,744,A,60.83478519235288,59.45696670590098,3.0417392596176445,0.9339478490399571,B,695,Incorrect
1,new_learn,14,745,A,56.656854501915646,69.7757104525614,2.832842725095782,1.0960342967838772,A,1333,Correct
1,new_learn,14,746,B,35.732346250776196,44.21396247648102,1.7866173125388098,0.6945112985110378,B,795,Correct
1,new_learn,14,747,B,44.99445748553855,30.319402867562843,2.249722874276927,0.47625606654982366,B,1430,Correct
1,new_learn,14,748,A,43.41482397706939,68.17559749099662,2.1707411988534693,1.0708997811590486,A,634,Correct
1,new_learn,14,749,B,25.112250460609964,55.310184718921626,1.2556125230304982,0.868810349908293,A,775,Incorrect
1,new_learn,14,750,B,55.47997821792248,15.145958783361976,2.773998910896124,0.2379121642269189,B,785,Correct
1,new_learn,14,751,B,69.79700930163439,12.207334522394191,3.4898504650817195,0.1917523622773333,B,1063,Correct
1,new_learn,14,752,A,67.10765976551419,64.73534206694131,3.3553829882757094,1.0168603753256256,B,692,Incorrect
1,new_learn,14,753,A,36.52689484019585,85.34551588371133,1.8263447420097925,1.3406042285854927,A,846,Correct
1,new_learn,14,754,B,15.963351272794881,62.80689042706557,0.7981675636397441,0.9865683278024415,A,466,Incorrect
1,new_learn,14,755,B,20.387898705084623,54.94447257742832,1.019394935254231,0.8630657570230734,B,1573,Correct
1,new_learn,14,756,B,41.1518792280056,50.96519682996178,2.05759396140028,0.8005594397488287,A,828,Incorrect
1,new_learn,14,757,A,38.22912705485557,79.45519898740834,1.9114563527427781,1.2480793471417861,B,638,Incorrect
1,new_learn,14,758,B,43.611926969918535,29.000312424225825,2.1805963484959268,0.4555358423187833,B,931,Correct
1,new_learn,14,759,B,57.02991228377855,34.12077892539148,2.8514956141889276,0.5359679420338564,B,1244,Correct
1,new_learn,14,760,B,12.203340960365438,68.7857276426351,0.6101670480182719,1.0804836831696538,B,1609,Correct
1,new_learn,14,761,B,45.062668423798776,38.98373259553669,2.253133421189939,0.612355039658235,B,687,Correct
1,new_learn,14,762,A,58.307556872984875,50.99439402774905,2.915377843649244,0.8010180682591981,B,786,Incorrect
1,new_learn,14,763,B,50.413572071903594,42.0587775959592,2.52067860359518,0.660657733572162,B,925,Correct
1,new_learn,14,764,A,81.20150251015077,32.621172992899716,4.060075125507539,0.5124121871298775,B,692,Incorrect
1,new_learn,14,765,B,48.940458095208214,27.143131583691883,2.4470229047604106,0.42636331389373744,A,572,Incorrect
1,new_learn,14,766,A,77.49073756994531,34.47350489708404,3.874536878497265,0.541508548640855,A,617,Correct
1,new_learn,14,767,A,40.26626078695563,76.35583261736544,2.013313039347781,1.1993946140472358,A,723,Correct
1,new_learn,14,768,B,50.41194004853605,27.149428454118294,2.5205970024268027,0.4264622249030986,B,1330,Correct
1,new_learn,14,769,A,68.94123687476784,53.23307953966621,3.4470618437383918,0.8361832580488823,B,1186,Incorrect
1,new_learn,14,770,B,60.24456393142597,19.13792474308258,3.0122281965712987,0.30061781888911276,B,1030,Correct
1,new_learn,14,771,B,15.873331560359205,67.65285412263734,0.7936665780179603,1.062688547530297,A,859,Incorrect
1,new_learn,14,772,A,42.13837074270017,81.40789521903248,2.1069185371350083,1.2787522278216006,A,694,Correct
1,new_learn,14,773,B,44.00539959452849,25.060849685438086,2.2002699797264245,0.3936549063224519,B,658,Correct
1,new_learn,14,774,B,56.251578909743756,25.414038502883585,2.812578945487188,0.39920278329353603,B,1729,Correct
1,new_learn,14,775,B,33.88251742319126,57.415011358900415,1.6941258711595628,0.9018728894544803,A,884,Incorrect
1,new_learn,14,776,B,52.21570896176751,27.059574764438835,2.610785448088375,0.42505080644612403,B,721,Correct
1,new_learn,14,777,B,39.97649572807845,47.304932569628484,1.9988247864039224,0.743064143196527,A,733,Incorrect
1,new_learn,14,778,A,40.01908226828981,78.50060200797657,2.0009541134144904,1.2330845728531767,A,660,Correct
1,new_learn,14,779,B,24.842435175859006,60.58863902748405,1.2421217587929503,0.9517241162987387,B,898,Correct
1,new_learn,14,780,B,44.36652860978086,42.028314083126254,2.218326430489043,0.6601792138315694,B,700,Correct
1,new_learn,14,781,A,43.03383100215092,72.04030363922348,2.1516915501075458,1.1316064433768127,100,747,Incorrect
1,new_learn,14,782,B,46.23189070688141,41.66482427083423,2.3115945353440703,0.6544695292118127,A,1085,Incorrect
1,new_learn,14,783,A,59.171117525031185,50.22373506393387,2.9585558762515594,0.7889125855634738,B,4316,Incorrect
1,new_learn,14,784,B,25.461274035333886,54.458762350313364,1.2730637017666944,0.8554362386166844,B,1201,Correct
1,new_learn,14,785,B,49.218471328094836,30.450361554602523,2.460923566404742,0.47831316079546177,B,777,Correct
1,new_learn,14,786,A,79.50819008766736,36.214996545175666,3.975409504383368,0.568863835480518,B,657,Incorrect
1,new_learn,14,787,B,18.626476399730205,57.550305777608514,0.9313238199865103,0.9039980892139058,B,1124,Correct
1,new_learn,14,788,B,43.61703602124211,39.51220957967737,2.1808518010621056,0.6206563367130734,B,812,Correct
1,new_learn,14,789,A,52.457347309632944,74.3451593978971,2.622867365481647,1.1678110329719789,A,771,Correct
1,new_learn,14,790,A,81.96022122026989,32.70832160849966,4.098011061013494,0.5137811143825741,B,975,Incorrect
1,new_learn,14,791,B,49.1589452985118,29.18516348339365,2.4579472649255902,0.4584394759662329,B,1391,Correct
1,new_learn,14,792,A,32.74388388721631,86.183988785891,1.6371941943608157,1.3537749301341013,A,1246,Correct
1,new_learn,14,793,B,34.309526224845584,34.77490866441235,1.715476311242279,0.5462429879468694,B,871,Correct
1,new_learn,14,794,A,60.46347488453973,57.22407944760308,3.0231737442269866,0.8988737380051426,A,1414,Correct
1,new_learn,14,795,B,25.88372488998281,50.22190922464752,1.2941862444991403,0.7888839053470305,A,955,Incorrect
1,new_learn,14,796,A,79.20828806627374,49.156882001312376,3.9604144033136865,0.7721544968435163,B,1627,Incorrect
1,new_learn,14,797,B,53.181033157538764,29.02074462389926,2.659051657876938,0.455856790560737,B,1207,Correct
1,new_learn,14,798,B,19.144062932202992,57.51708937269848,0.9572031466101495,0.9034763271456855,B,1102,Correct
1,new_learn,14,799,B,55.59658293478647,28.093524757479855,2.7798291467393232,0.44129205495770846,B,1445,Correct
1,new_learn,14,800,A,80.91385567391104,33.068734345991174,4.045692783695552,0.5194424644243918,B,805,Incorrect
1,new_learn,14,801,B,24.808208740628537,57.58689504936907,1.2404104370314268,0.9045728321507214,B,1034,Correct
1,new_learn,14,802,B,31.136406244948745,59.25357015082375,1.5568203122474373,0.9307529034239767,A,2280,Incorrect
1,new_learn,14,803,B,44.07897852445847,44.67284294641748,2.2039489262229237,0.7017193760771788,B,1341,Correct
1,new_learn,14,804,B,68.89028803778548,12.498489547921864,3.4445144018892737,0.19632581472360072,B,861,Correct
1,new_learn,14,805,B,18.152777539897155,64.37101016058176,0.9076388769948578,1.011137463123188,A,981,Incorrect
1,new_learn,14,806,B,29.677507850306284,47.58172258245985,1.4838753925153143,0.7474119505510173,B,745,Correct
1,new_learn,14,807,A,64.72817317054032,63.70518519905896,3.236408658527016,1.000678709084704,107,667,Incorrect
1,new_learn,14,808,A,75.07168029701883,53.19228869434523,3.7535840148509414,0.8355425169489119,B,747,Incorrect
1,new_learn,14,809,A,42.49828045545973,77.110490059411,2.1249140227729866,1.211248745426772,B,1172,Incorrect
1,new_learn,14,810,A,40.4826014716766,74.94370361379374,2.02413007358383,1.1772129435295264,A,831,Correct
1,new_learn,14,811,A,76.29733894746758,47.37645888618973,3.8148669473733787,0.7441876759497627,B,772,Incorrect
1,new_learn,14,812,B,40.06013038081402,42.679160232670135,2.003006519040701,0.6704026812416908,B,766,Correct
1,new_learn,14,813,B,11.749818857613121,63.61622361985292,0.5874909428806561,0.999281303866277,B,945,Correct
1,new_learn,14,814,B,39.454657919472155,42.0318837014231,1.9727328959736077,0.6602352852646567,B,824,Correct
1,new_learn,14,815,A,49.322195766071914,69.01195546527589,2.4661097883035956,1.0840372614978835,A,850,Correct
1,new_learn,14,816,A,36.2357213412686,86.3765453525032,1.81178606706343,1.3567996016094481,B,1031,Incorrect
1,new_learn,14,817,B,36.97942618116557,55.062785867292,1.8489713090582784,0.8649242178343621,B,620,Correct
1,new_learn,14,818,A,64.13761286566404,54.33459710566561,3.2068806432832018,0.8534858555146017,B,803,Incorrect
1,new_learn,14,819,A,77.23428683988345,52.65660352908457,3.8617143419941726,0.8271279940498123,B,1225,Incorrect
1,new_learn,14,820,A,79.34260087962718,35.720810284301166,3.967130043981359,0.5611011758471763,B,865,Incorrect
1,new_learn,14,821,B,38.1417115094179,45.96985769954675,1.9070855754708953,0.7220928361773212,A,1031,Incorrect
1,new_learn,14,822,A,87.27886351397125,40.83848911543402,4.363943175698562,0.6414894869437714,A,956,Correct
1,new_learn,14,823,B,38.98393648103522,47.06322670479488,1.949196824051761,0.7392674363500729,B,1067,Correct
1,new_learn,14,824,B,24.247893511344586,49.97850994435025,1.2123946755672292,0.7850605983926758,B,1361,Correct
1,new_learn,14,825,B,43.02622743288769,37.4492334598628,2.1513113716443844,0.5882511836003702,B,1078,Correct
1,new_learn,14,826,A,47.28728625420705,60.731168594337205,2.3643643127103524,0.9539629654994646,A,623,Correct
1,new_learn,14,827,B,40.65194489493605,27.100030505829494,2.0325972447468024,0.42568628374586615,B,808,Correct
1,new_learn,14,828,B,35.85643471329837,50.91109159183191,1.7928217356649185,0.7997095566556811,B,696,Correct
1,new_learn,14,829,A,71.03493749946108,59.41759114017513,3.551746874973054,0.933329339099881,A,562,Correct
1,new_learn,14,830,B,43.96203133103711,30.063616657612528,2.1981015665518555,0.4722381861594762,B,608,Correct
1,new_learn,14,831,B,25.13551615680982,42.96760535972223,1.256775807840491,0.6749335667022438,B,1028,Correct
1,new_learn,14,832,A,69.61642559046783,49.0332786151251,3.4808212795233913,0.7702129393934927,A,758,Correct
1,new_learn,14,833,A,75.10598501653,45.702539936313315,3.7552992508265,0.7178938185715802,A,511,Correct
1,new_learn,14,834,A,55.996150211124046,74.61537997857378,2.799807510556202,1.1720556479274917,B,691,Incorrect
1,new_learn,14,835,A,78.95146850138579,35.4060263372792,3.9475734250692893,0.5561565611700153,100,601,Incorrect
1,new_learn,14,836,A,75.3645736754878,51.83567841452437,3.76822868377439,0.8142329325045639,A,925,Correct
1,new_learn,14,837,A,81.23755789987766,37.322513422986034,4.0618778949938825,0.5862606699157968,A,681,Correct
1,new_learn,14,838,B,17.99334605076723,51.50380347824898,0.8996673025383615,0.8090198531959973,B,904,Correct
1,new_learn,14,839,A,65.87028763005402,57.25645089571804,3.293514381502701,0.8993822275230626,A,1300,Correct
1,new_learn,14,840,B,22.872072624143303,48.813697385183985,1.1436036312071651,0.7667637654992466,B,646,Correct
1,new_learn,14,841,B,46.934161497243785,45.88304645428895,2.3467080748621894,0.7207292083255668,A,1501,Incorrect
1,new_learn,14,842,A,62.32075529032592,65.47865589528888,3.116037764516296,1.0285363216378678,A,1722,Correct
1,new_learn,14,843,B,19.770163044530808,63.870342121987136,0.9885081522265403,1.0032729879635074,B,544,Correct
1,new_learn,14,844,A,49.55795611642246,72.61938890279248,2.477897805821123,1.1407026934259652,A,724,Correct
1,new_learn,14,845,B,46.93168231859397,34.19705586491456,2.3465841159296987,0.5371660973980766,A,841,Incorrect
1,new_learn,14,846,A,79.6081581016681,33.518638441197794,3.9804079050834047,0.5265095414259972,A,1275,Correct
1,new_learn,14,847,B,26.201589995470844,53.12387979323249,1.3100794997735423,0.8344679524430322,B,632,Correct
1,new_learn,14,848,B,26.176006516115223,57.93548872073874,1.3088003258057612,0.9100485287360358,B,771,Correct
1,new_learn,14,849,A,52.109744471495105,67.6885209417153,2.6054872235747553,1.0632488006142582,B,947,Incorrect
1,new_learn,14,850,B,46.535841060805325,42.049664753215005,2.326792053040266,0.6605145893730696,B,590,Correct
1,new_learn,14,851,A,49.240702165969424,59.84577268996952,2.4620351082984713,0.9400551991560647,A,887,Correct
1,new_learn,14,852,A,37.88636065110239,87.07521980195386,1.8943180325551197,1.3677743541976735,100,852,Incorrect
1,new_learn,14,853,B,17.388438987966637,54.03419990307725,0.8694219493983318,0.848767227290549,B,1033,Correct
1,new_learn,14,854,A,42.597886546581556,66.21511152731102,2.129894327329078,1.0401045396541457,B,789,Incorrect
1,new_learn,14,855,A,72.31383874208795,37.58838061242371,3.6156919371043976,0.5904369019616367,A,682,Correct
1,new_learn,14,856,A,33.8584689331428,82.77300171219258,1.6929234466571401,1.300195270472998,100,658,Incorrect
1,new_learn,14,857,A,49.12750398704323,64.2974059186499,2.456375199352161,1.009981290394557,A,887,Correct
1,new_learn,14,858,A,62.484807161307295,56.119183256296175,3.124240358065365,0.8815180692171969,A,902,Correct
1,new_learn,14,859,A,57.43787483860298,50.44381759771642,2.871893741930149,0.7923696339200471,A,717,Correct
1,new_learn,14,860,A,76.90097681145971,38.67790265464921,3.8450488405729857,0.6075510741805356,A,530,Correct
1,new_learn,14,861,B,37.62164958674792,49.10347246442126,1.8810824793373961,0.7713155417998725,B,714,Correct
1,new_learn,14,862,B,30.037711987858586,46.764518584830505,1.5018855993929292,0.7345753401738342,B,2322,Correct
1,new_learn,14,863,A,35.887700410978795,75.0426590185064,1.7943850205489398,1.1787673313919176,B,586,Incorrect
1,new_learn,14,864,A,53.27494155314856,75.54792418633642,2.663747077657428,1.1867040180887658,A,1700,Correct
1,new_learn,14,865,B,62.93926080347751,23.220932692474733,3.1469630401738753,0.36475355778090834,B,776,Correct
1,new_learn,14,866,B,45.30844222766425,30.63687678814034,2.2654221113832125,0.4812429352327867,B,592,Correct
1,new_learn,14,867,B,30.667467460095388,60.39070263761436,1.5333733730047694,0.9486149387572752,A,414,Incorrect
1,new_learn,14,868,A,54.95771002423168,74.84553254417983,2.747885501211584,1.175670875974056,A,1563,Correct
1,new_learn,14,869,A,40.22640295085283,76.98848804743335,2.0113201475426417,1.209332342304011,B,752,Incorrect
1,new_learn,14,870,A,39.990102013464316,86.44423896266747,1.9995051006732156,1.3578629303513834,B,693,Incorrect
1,new_learn,14,871,B,30.490461166070034,49.827544952431424,1.5245230583035017,0.7826892458448688,B,710,Correct
1,new_learn,14,872,A,68.29289034199944,39.9777837006657,3.414644517099972,0.6279695579040656,A,888,Correct
1,new_learn,14,873,A,69.90419040037881,39.05605606191791,3.4952095200189404,0.613491094011562,A,534,Correct
1,new_learn,14,874,A,41.33125769870496,76.23809877585134,2.066562884935248,1.1975452551893377,100,999,Incorrect
1,new_learn,14,875,B,66.39596418684738,18.439145316033446,3.319798209342369,0.2896414173166266,A,769,Incorrect
1,new_learn,14,876,A,58.38218505001468,73.36468119121054,2.919109252500734,1.1524097173163215,A,574,Correct
1,new_learn,14,877,A,82.36244391584538,35.456840914878455,4.118122195792268,0.5569547546884208,A,752,Correct
1,new_learn,14,878,A,70.89380870304363,42.50473583322823,3.544690435152182,0.6676628291822232,A,838,Correct
1,new_learn,14,879,B,46.445057888878814,23.27207440758636,2.3222528944439405,0.3655568899633417,B,933,Correct
1,new_learn,14,880,B,63.82890302794026,24.46743132170758,3.191445151397013,0.3843335124624467,A,652,Incorrect
1,new_learn,14,881,A,75.98296781836228,44.78765130394397,3.799148390918114,0.7035227815400584,A,967,Correct
1,new_learn,14,882,B,19.943936087408655,57.16484613424683,0.9971968043704328,0.8979433032947036,B,709,Correct
1,new_learn,14,883,A,66.3215399348585,52.2253631544986,3.3160769967429253,0.8203540860861592,A,754,Correct
1,new_learn,14,884,A,55.40705842932595,69.01274741464162,2.7703529214662974,1.0840497014094306,107,790,Incorrect
1,new_learn,14,885,A,52.59935417210543,63.19431264972383,2.6299677086052715,0.9926539418451445,B,775,Incorrect
1,new_learn,14,886,A,46.052577001229125,74.74676160916975,2.3026288500614562,1.174119385754976,A,811,Correct
1,new_learn,14,887,A,43.5860543386464,84.78306014540428,2.17930271693232,1.331769194508318,A,642,Correct
1,new_learn,14,888,A,78.83297712642351,35.597778504831396,3.941648856321176,0.5591685971744749,A,898,Correct
1,new_learn,14,889,B,28.164594837769556,60.091459507394816,1.4082297418884777,0.9439144386596005,B,564,Correct
1,new_learn,14,890,B,54.52648707700813,33.36642157379755,2.7263243538504067,0.5241185244641119,B,648,Correct
1,new_learn,14,891,A,86.0093791752543,41.758601570921016,4.300468958762715,0.6559425795969432,A,597,Correct
1,new_learn,14,892,A,86.95842043604826,35.01990869326882,4.347921021802413,0.5500914394007932,A,574,Correct
1,new_learn,14,893,B,51.70927914740103,41.02529400905824,2.585463957370051,0.6444238113510937,B,710,Correct
1,new_learn,14,894,A,66.7887143351994,62.80062960151002,3.3394357167599704,0.9864699829845879,A,964,Correct
1,new_learn,14,895,A,59.072642195082615,54.28448948380101,2.953632109754131,0.8526987668309082,A,890,Correct
1,new_learn,14,896,B,22.223703899224866,59.70245822821596,1.1111851949612432,0.9378040208550739,B,681,Correct
1,new_learn,14,897,A,47.14156484640172,68.00007163880576,2.357078242320086,1.068142627520259,A,441,Correct
1,new_learn,14,898,B,30.138069072525273,56.73722591323097,1.5069034536262638,0.8912262605703543,B,595,Correct
