experiment,condition,subject,trial,cat,x,y,xt,yt,resp,rt,fb
2,new_learn,48,0,A,37.825682209066365,61.29283665402132,1.8912841104533182,0.9627856267497628,A,1127,Correct
2,new_learn,48,1,A,66.58207104668547,89.8384662100736,3.329103552334274,1.4111793272767106,B,1073,Incorrect
2,new_learn,48,2,A,48.36359100665613,72.35490497376215,2.4181795503328063,1.1365481895837937,A,698,Correct
2,new_learn,48,3,B,39.53491424060023,29.36416787139833,1.9767457120300116,0.46125127031781216,A,878,Incorrect
2,new_learn,48,4,A,59.8025259526202,77.50680868411307,2.99012629763101,1.217474103825996,A,904,Correct
2,new_learn,48,5,A,18.70717638534117,45.620494442235746,0.9353588192670585,0.716605050964309,A,1373,Correct
2,new_learn,48,6,B,74.34241525119583,47.066008280175474,3.7171207625597913,0.7393111292339783,A,943,Incorrect
2,new_learn,48,7,A,55.78534587329796,81.90151644228615,2.7892672936648983,1.2865060118647493,B,600,Incorrect
2,new_learn,48,8,B,39.388162156277616,27.140976658439648,1.9694081078138808,0.42632946440703023,A,684,Incorrect
2,new_learn,48,9,A,31.303349787540135,49.694951191393415,1.5651674893770067,0.7806064679169246,A,855,Correct
2,new_learn,48,10,A,40.01423235138318,54.21567460919016,2.000711617569159,0.8516178253082324,B,1275,Incorrect
2,new_learn,48,11,A,33.81231643465941,62.422309971981534,1.6906158217329703,0.9805273521404103,A,882,Correct
2,new_learn,48,12,A,16.544427594005143,31.48977439426252,0.8272213797002571,0.4946402195010755,B,1090,Incorrect
2,new_learn,48,13,A,38.89836596905585,68.26253635827237,1.9449182984527926,1.072265413692773,A,820,Correct
2,new_learn,48,14,A,35.97311655112394,62.040016784762216,1.798655827556197,0.9745223047979822,A,745,Correct
2,new_learn,48,15,A,34.09217192559906,60.53620842971611,1.704608596279953,0.9509005383948832,A,1577,Correct
2,new_learn,48,16,B,81.51862747886128,56.36618670093429,4.075931373943064,0.8853979902526294,A,1342,Incorrect
2,new_learn,48,17,A,52.076625182011924,62.00548301005817,2.603831259100596,0.9739798495334273,B,683,Incorrect
2,new_learn,48,18,B,58.94759983288481,41.51684738931566,2.9473799916442407,0.6521451137924134,B,1098,Correct
2,new_learn,48,19,A,31.685155269130895,61.10340633516769,1.5842577634565447,0.9598100622593742,A,543,Correct
2,new_learn,48,20,B,59.86386715598827,48.3920350858004,2.9931933577994134,0.7601403095890502,B,532,Correct
2,new_learn,48,21,A,51.543741260155635,81.91835755014213,2.577187063007782,1.2867705513683425,B,1653,Incorrect
2,new_learn,48,22,B,48.49445040643471,38.75751263712541,2.4247225203217355,0.6088015848610339,A,584,Incorrect
2,new_learn,48,23,A,42.67437496289524,63.33396322275889,2.133718748144762,0.9948475679167273,A,618,Correct
2,new_learn,48,24,B,45.2077715662131,25.29745414606117,2.2603885783106548,0.3973714804989522,A,1289,Incorrect
2,new_learn,48,25,A,57.07668779320038,75.5970902709433,2.853834389660019,1.1874763171397995,B,912,Incorrect
2,new_learn,48,26,B,75.26337871118913,61.2115604833631,3.763168935559457,0.961508943646504,A,1502,Incorrect
2,new_learn,48,27,A,43.0361575742645,52.194951430748496,2.151807878713225,0.8198763798465778,A,2614,Correct
2,new_learn,48,28,B,44.97814710387885,17.793727956533964,2.2489073551939422,0.27950322514111214,B,1731,Correct
2,new_learn,48,29,B,42.61115281176042,24.5736357891095,2.130557640588021,0.3860017683352881,A,730,Incorrect
2,new_learn,48,30,A,46.100778039571765,68.48359424500848,2.3050389019785884,1.0757377828577144,A,907,Correct
2,new_learn,48,31,A,64.29255802420886,86.02098632706276,3.214627901210443,1.3512144934982422,B,1131,Incorrect
2,new_learn,48,32,A,54.939994821358624,77.81140442422769,2.7469997410679308,1.2222586825232902,B,1127,Incorrect
2,new_learn,48,33,A,58.50588343361855,86.47085986822174,2.9252941716809278,1.3582810905579894,A,704,Correct
2,new_learn,48,34,B,84.71766734212049,59.84006962160801,4.235883367106024,0.9399656155677273,A,649,Incorrect
2,new_learn,48,35,B,78.13665377574256,62.21722002756777,3.906832688787128,0.9773058068269332,A,492,Incorrect
2,new_learn,48,36,B,41.58964278717954,17.55080396041553,2.0794821393589773,0.2756873839331804,A,525,Incorrect
2,new_learn,48,37,A,28.320668869004756,44.75835726458729,1.4160334434502377,0.7030626318458738,B,304,Incorrect
2,new_learn,48,38,A,22.138860292663598,47.39255595728852,1.1069430146331798,0.7444405281513039,A,1512,Correct
2,new_learn,48,39,B,58.59138019349722,29.432835034302407,2.929569009674861,0.4623298915904236,B,4070,Correct
2,new_learn,48,40,B,36.78960524618208,17.843025196990038,1.8394802623091038,0.2802775843834074,A,1954,Incorrect
2,new_learn,48,41,A,36.47179262598954,69.60853972719441,1.823589631299477,1.0934083851703362,A,897,Correct
2,new_learn,48,42,A,51.777373530969015,82.09122958711255,2.588868676548451,1.2894860189751294,B,1444,Incorrect
2,new_learn,48,43,B,62.68478167866171,39.01222983767808,3.1342390839330854,0.6128026732910298,A,795,Incorrect
2,new_learn,48,44,B,58.76879719705842,36.08384331798548,2.9384398598529207,0.5668036854053418,A,738,Incorrect
2,new_learn,48,45,B,34.96462138928783,18.479133543079843,1.7482310694643914,0.2902695509182218,A,819,Incorrect
2,new_learn,48,46,A,23.031854256602944,46.848790611894124,1.151592712830147,0.7358990820794653,A,768,Correct
2,new_learn,48,47,A,14.731255773954214,32.83912096451657,0.7365627886977107,0.515835705862359,A,807,Correct
2,new_learn,48,48,A,23.605929640619582,44.20242055280309,1.1802964820309791,0.6943299983978634,A,572,Correct
2,new_learn,48,49,B,69.92606387303996,43.70088329806805,3.4963031936519986,0.6864518696229773,A,1715,Incorrect
2,new_learn,48,50,B,33.977794600118905,17.00735981668975,1.6988897300059451,0.26715098328535386,A,1332,Incorrect
2,new_learn,48,51,B,76.35822725394505,64.74555046903075,3.8179113626972527,1.017020728530671,B,732,Correct
2,new_learn,48,52,A,25.544945627990764,53.800190841091954,1.2772472813995381,0.8450914215405166,A,1707,Correct
2,new_learn,48,53,A,11.136254700171161,32.717126447398684,0.5568127350085581,0.5139194204685802,A,962,Correct
2,new_learn,48,54,A,56.36284272812355,69.91053917136558,2.818142136406178,1.098152181346318,B,737,Incorrect
2,new_learn,48,55,B,47.749299607981605,29.85566947950869,2.38746498039908,0.46897175952414755,A,1050,Incorrect
2,new_learn,48,56,B,40.940640269877406,15.273697118994711,2.04703201349387,0.2399186733109469,B,3469,Correct
2,new_learn,48,57,B,81.08958135573052,59.88982107878048,4.0544790677865254,0.9407471096295196,B,1296,Correct
2,new_learn,48,58,A,19.474359279910477,48.57582658274126,0.9737179639955238,0.7630272996719586,A,667,Correct
2,new_learn,48,59,B,62.62140923663947,45.905124315222224,3.131070461831974,0.7210760065541415,A,1426,Incorrect
2,new_learn,48,60,A,15.978504137343602,44.066019723330655,0.7989252068671802,0.6921874191787926,A,676,Correct
2,new_learn,48,61,A,42.386935325277236,71.57925685928267,2.119346766263862,1.1243643374926964,B,1313,Incorrect
2,new_learn,48,62,A,17.46445418745984,45.70689401383661,0.873222709372992,0.717962212261382,A,477,Correct
2,new_learn,48,63,A,13.283769657423939,31.802676025780883,0.6641884828711969,0.49955526683544726,A,477,Correct
2,new_learn,48,64,A,47.78690898914154,59.39029246821449,2.3893454494570765,0.9329005325634593,B,556,Incorrect
2,new_learn,48,65,B,56.44231715374799,33.96067955091735,2.8221158576873995,0.5334531069403953,B,1097,Correct
2,new_learn,48,66,B,76.24188977790777,50.73661619896288,3.8120944888953887,0.7969689035933334,A,966,Incorrect
2,new_learn,48,67,A,35.24076441601158,59.868608559813396,1.7620382208005791,0.9404139041607639,A,853,Correct
2,new_learn,48,68,A,47.51547034862858,75.87912723804799,2.375773517431429,1.1919065434592835,B,657,Incorrect
2,new_learn,48,69,A,44.756912155634424,65.61225493669151,2.2378456077817215,1.0306348904728535,B,3721,Incorrect
2,new_learn,48,70,A,40.089834676554304,54.518921138124824,2.004491733827715,0.8563812106458711,A,733,Correct
2,new_learn,48,71,B,55.990801119959414,49.169161716046595,2.799540055997971,0.7723473861515026,A,701,Incorrect
2,new_learn,48,72,B,83.66772889652516,68.17015893237824,4.183386444826258,1.0708143524800406,B,679,Correct
2,new_learn,48,73,B,49.86375983757024,34.50954584298261,2.493187991878512,0.5420746784951718,A,895,Incorrect
2,new_learn,48,74,A,13.85064704997324,31.51590280100259,0.6925323524986621,0.49505064355439865,A,703,Correct
2,new_learn,48,75,A,17.441347399709397,41.4373156721546,0.8720673699854699,0.6508958325006103,A,486,Correct
2,new_learn,48,76,B,73.5455879531137,47.19860236375102,3.677279397655685,0.7413939122283302,B,900,Correct
2,new_learn,48,77,A,38.00684368660691,51.09952934970517,1.9003421843303456,0.8026695300346489,A,661,Correct
2,new_learn,48,78,A,20.490718492683545,50.586077475296946,1.0245359246341772,0.7946042468515849,A,495,Correct
2,new_learn,48,79,B,37.516665474508045,12.472392856109987,1.8758332737254022,0.19591588884720476,A,1206,Incorrect
2,new_learn,48,80,A,54.96231648698951,78.01525555955884,2.748115824349475,1.2254607686692014,A,953,Correct
2,new_learn,48,81,A,50.26354644274705,78.1621777850586,2.5131773221373526,1.227768617590597,B,586,Incorrect
2,new_learn,48,82,B,51.46081331543842,29.636322628989568,2.573040665771921,0.4655262672532528,B,649,Correct
2,new_learn,48,83,B,73.86913179925664,42.764541313135595,3.6934565899628318,0.6717438441174198,A,809,Incorrect
2,new_learn,48,84,B,42.31395714877678,31.635098116718446,2.115697857438839,0.4969229591953749,A,480,Incorrect
2,new_learn,48,85,A,18.381552620940926,45.666032795769915,0.9190776310470463,0.7173203657489066,A,443,Correct
2,new_learn,48,86,A,37.764700419770385,48.46961567290078,1.8882350209885193,0.7613589426015289,A,631,Correct
2,new_learn,48,87,B,76.63402086050203,51.269741833189144,3.8317010430251015,0.8053432214729616,B,650,Correct
2,new_learn,48,88,A,14.55810103853722,31.022320819763525,0.727905051926861,0.48729747592337386,A,417,Correct
2,new_learn,48,89,A,41.87869756530322,66.12998768361805,2.093934878265161,1.0387674174441899,B,1584,Incorrect
2,new_learn,48,90,B,76.29442445317105,62.96788774847818,3.814721222658552,0.9890972678134288,B,603,Correct
2,new_learn,48,91,B,33.843270089677404,22.483964316251868,1.69216350448387,0.35317728559755956,A,442,Incorrect
2,new_learn,48,92,A,17.684321937720824,36.68984734777782,0.8842160968860412,0.5763227744455488,A,370,Correct
2,new_learn,48,93,A,43.75954641690247,64.23092663945897,2.1879773208451234,1.0089370363189463,B,966,Incorrect
2,new_learn,48,94,B,63.33878156853226,52.64466468695929,3.166939078426613,0.8269404591562466,A,653,Incorrect
2,new_learn,48,95,A,39.7803192097484,72.1748877557108,1.98901596048742,1.1337204857350447,B,1845,Incorrect
2,new_learn,48,96,B,71.01999022367092,59.565407201864055,3.5509995111835457,0.9356512283673033,A,647,Incorrect
2,new_learn,48,97,A,40.16976715463732,49.625007896973216,2.008488357731866,0.7795078012173327,A,642,Correct
2,new_learn,48,98,A,22.53548075830955,41.65088226726887,1.1267740379154774,0.6542505287319264,A,448,Correct
2,new_learn,48,99,A,65.87629874687748,86.26872332644446,3.293814937343874,1.3551059371846417,B,2032,Incorrect
2,new_learn,48,100,B,51.39078887319913,33.417806913054335,2.5695394436599566,0.5249256834856685,B,530,Correct
2,new_learn,48,101,B,61.06787777222353,30.066037245958135,3.0533938886111764,0.4722762086722959,B,675,Correct
2,new_learn,48,102,B,60.94166453527841,31.64111852076785,3.0470832267639207,0.49701752748104105,B,623,Correct
2,new_learn,48,103,A,31.123407032233793,43.983404901501366,1.5561703516116896,0.69088970859211,A,1409,Correct
2,new_learn,48,104,A,48.86115089161116,68.47175668899025,2.443057544580558,1.0755518389625978,A,1249,Correct
2,new_learn,48,105,A,23.82763224298074,54.810538811893785,1.191381612149037,0.8609619303537187,A,697,Correct
2,new_learn,48,106,A,60.57812026343393,79.21743812826718,3.0289060131716963,1.2443446082998406,B,1385,Incorrect
2,new_learn,48,107,B,34.15827126983354,19.411828883439988,1.707913563491677,0.3049202950647861,B,1054,Correct
2,new_learn,48,108,B,42.93578115680735,26.95620526040955,2.1467890578403677,0.42342708207380586,A,507,Incorrect
2,new_learn,48,109,B,75.40925212367965,47.56304951729969,3.7704626061839828,0.7471186347293812,B,652,Correct
2,new_learn,48,110,A,35.56688161709788,57.01780822370535,1.7783440808548938,0.8956336371969221,A,910,Correct
2,new_learn,48,111,B,74.45212034346055,46.74359142765503,3.7226060171730273,0.7342466171576194,A,822,Incorrect
2,new_learn,48,112,B,82.27992006026555,54.548021350069156,4.113996003013278,0.8568383157061823,A,739,Incorrect
2,new_learn,48,113,A,41.60864655199089,58.65375659357395,2.0804323275995444,0.921331054099079,A,590,Correct
2,new_learn,48,114,A,36.09003451603842,57.46171006412071,1.8045017258019211,0.9026064310007414,A,727,Correct
2,new_learn,48,115,B,42.236072819151715,22.757682295319874,2.1118036409575858,0.35747683755853704,B,1501,Correct
2,new_learn,48,116,A,17.45191988815546,38.95756915804169,0.8725959944077729,0.6119440653431004,A,543,Correct
2,new_learn,48,117,B,52.70630584696765,28.447945605068373,2.6353152923483827,0.44685928461302427,B,621,Correct
2,new_learn,48,118,A,43.30887876745204,53.50289582542693,2.165443938372602,0.8404215223547064,B,731,Incorrect
2,new_learn,48,119,B,64.4587446317871,50.73841258142443,3.222937231589355,0.7969971211030544,A,344,Incorrect
2,new_learn,48,120,A,26.408499152821825,48.78687278197641,1.3204249576410914,0.7663424056173846,A,397,Correct
2,new_learn,48,121,A,53.71148255562499,70.77227209807324,2.6855741277812495,1.1116882505058239,B,609,Incorrect
2,new_learn,48,122,B,44.54816934681309,17.282667660665034,2.2274084673406547,0.2714755087858958,A,997,Incorrect
2,new_learn,48,123,A,54.05107578079878,69.11780819796186,2.702553789039939,1.0856999923347268,A,364,Correct
2,new_learn,48,124,B,86.50449423428876,69.07429050844621,4.325224711714438,1.085016418066309,B,554,Correct
2,new_learn,48,125,B,54.044735374189,35.72283595475187,2.7022367687094504,0.5611329950042091,B,572,Correct
2,new_learn,48,126,B,58.891087081704285,44.72897011192922,2.9445543540852146,0.7026010195313713,B,608,Correct
2,new_learn,48,127,B,58.003897529828116,35.56350070765201,2.9001948764914056,0.5586301627954747,A,952,Incorrect
2,new_learn,48,128,B,63.63103972757214,34.942870862433345,3.1815519863786066,0.5488813319837872,B,2359,Correct
2,new_learn,48,129,B,45.428041281598226,28.738898464213747,2.2714020640799113,0.4514295614371845,A,1763,Incorrect
2,new_learn,48,130,A,30.144581145833385,58.217338305459876,1.5072290572916693,0.9144758116599221,B,679,Incorrect
2,new_learn,48,131,B,70.26385408349141,46.069540492362684,3.5131927041745707,0.7236586498253206,B,724,Correct
2,new_learn,48,132,B,35.599138684508304,23.31432253964587,1.7799569342254153,0.36622052206987193,A,399,Incorrect
2,new_learn,48,133,B,86.95459203290483,69.44332229713454,4.347729601645241,1.0908131558477308,B,556,Correct
2,new_learn,48,134,B,71.72328943036969,49.11029234501771,3.5861644715184844,0.7714226682337735,B,501,Correct
2,new_learn,48,135,A,15.280876389039456,40.48781418498617,0.7640438194519729,0.6359810980173057,A,533,Correct
2,new_learn,48,136,B,38.93799319993482,20.555356922886315,1.9468996599967412,0.3228827915042787,A,578,Incorrect
2,new_learn,48,137,A,66.03071600988321,78.75816606831873,3.3015358004941606,1.237130379652175,A,511,Correct
2,new_learn,48,138,B,69.39767248859211,49.44160104823024,3.469883624429605,0.7766268531741877,B,662,Correct
2,new_learn,48,139,B,59.92786800134362,28.701492486737116,2.996393400067181,0.45084198971697986,B,552,Correct
2,new_learn,48,140,B,48.68259305769028,38.063309851856125,2.434129652884514,0.5978970730095159,B,528,Correct
2,new_learn,48,141,B,65.24763207502168,56.447584807590275,3.262381603751084,0.886676588722062,B,696,Correct
2,new_learn,48,142,A,41.70058967058694,61.59826751651556,2.0850294835293472,0.9675833235187203,B,624,Incorrect
2,new_learn,48,143,A,15.388831058149833,34.70032663032423,0.7694415529074916,0.5450714560949643,A,365,Correct
2,new_learn,48,144,A,22.386361041850385,41.37179250480549,1.1193180520925194,0.649866596994691,A,422,Correct
2,new_learn,48,145,A,52.623197499178545,73.25422165780398,2.6311598749589273,1.1506746230229765,B,729,Incorrect
2,new_learn,48,146,A,41.649357831566014,68.41556488963461,2.082467891578301,1.0746691802423594,B,1072,Incorrect
2,new_learn,48,147,B,82.11853158278753,65.80431932055517,4.105926579139376,1.033651830759665,B,561,Correct
2,new_learn,48,148,B,42.3839039756681,25.2034241482676,2.119195198783405,0.3958944607475254,B,653,Correct
2,new_learn,48,149,A,42.0401460735872,53.38882369562068,2.1020073036793603,0.838629681529813,B,1977,Incorrect
2,new_learn,48,150,A,14.642439650933383,30.490764679794438,0.7321219825466692,0.47894781160188676,A,784,Correct
2,new_learn,48,151,B,65.70832867412423,34.750426852100546,3.2854164337062115,0.5458584285383428,A,602,Incorrect
2,new_learn,48,152,B,77.4281660302257,64.2813159739662,3.871408301511285,1.0097285501344822,A,336,Incorrect
2,new_learn,48,153,B,49.34792692945819,36.60047787842541,2.4673963464729094,0.574918962103685,B,695,Correct
2,new_learn,48,154,B,73.55813651550176,60.85987953172055,3.677906825775088,0.9559847521760656,B,512,Correct
2,new_learn,48,155,A,40.661704325652835,66.85236426215768,2.033085216282642,1.050114482205517,B,472,Incorrect
2,new_learn,48,156,A,52.39197654513866,65.48629159025717,2.619598827256933,1.0286562628539546,A,902,Correct
2,new_learn,48,157,B,42.53129762611741,32.301462375971255,2.12656488130587,0.507390184502792,B,2098,Correct
2,new_learn,48,158,B,46.13883776573559,16.551540710703225,2.3069418882867794,0.2599909935116882,B,1406,Correct
2,new_learn,48,159,A,45.935733022885415,66.54483432229453,2.296786651144271,1.0452838132063522,A,1392,Correct
2,new_learn,48,160,B,40.75401536372405,29.894927377477085,2.0377007681862027,0.4695884211434119,A,738,Incorrect
2,new_learn,48,161,A,49.32246178466562,62.99219349215827,2.466123089233281,0.9894790615423561,A,1215,Correct
2,new_learn,48,162,B,47.45162327608399,38.051700504288625,2.3725811638041994,0.5977147138043608,B,642,Correct
2,new_learn,48,163,A,11.713044133337668,36.4042116202372,0.5856522066668834,0.5718360189293268,A,517,Correct
2,new_learn,48,164,A,33.06902853949522,59.65891752790934,1.6534514269747609,0.9371200851339966,A,1353,Correct
2,new_learn,48,165,B,71.0340583139633,58.07109297995879,3.5517029156981654,0.9121785954588418,B,1549,Correct
2,new_learn,48,166,A,39.54427844180981,71.08900042019377,1.9772139220904905,1.1166634073556123,A,1329,Correct
2,new_learn,48,167,A,49.0073039186737,71.2936084108476,2.450365195933685,1.1198773821571315,A,960,Correct
2,new_learn,48,168,A,41.24081793001553,72.03724772466482,2.062040896500777,1.1315584411831752,A,1405,Correct
2,new_learn,48,169,A,42.34081220665122,61.81196775539613,2.1170406103325607,0.9709401190214082,A,615,Correct
2,new_learn,48,170,B,33.140995200414565,18.411013377097458,1.6570497600207283,0.28919952185316394,B,812,Correct
2,new_learn,48,171,B,75.22216867413377,57.06753025914573,3.761108433706688,0.8964146691032272,B,814,Correct
2,new_learn,48,172,A,36.914931582665155,44.50584931780787,1.845746579133258,0.6990962462929975,A,752,Correct
2,new_learn,48,173,B,53.58062830317235,42.49343446707978,2.6790314151586174,0.6674853077378857,B,668,Correct
2,new_learn,48,174,A,44.15273985150671,58.95192106787429,2.2076369925753356,0.926014610709196,B,760,Incorrect
2,new_learn,48,175,B,40.28597765432066,17.119701199446155,2.0142988827160333,0.26891563759916204,A,639,Incorrect
2,new_learn,48,176,B,76.66298547226961,46.85528461273765,3.8331492736134805,0.7360010896061773,B,548,Correct
2,new_learn,48,177,B,66.01838375643337,38.08647125313658,3.3009191878216684,0.5982608914500637,B,599,Correct
2,new_learn,48,178,B,37.74673108026712,11.320645985357288,1.887336554013356,0.17782429130744618,B,796,Correct
2,new_learn,48,179,A,25.060821567106927,54.8688751234909,1.2530410783553463,0.8618782749934738,A,644,Correct
2,new_learn,48,180,A,41.496988308097855,72.6288602283164,2.0748494154048926,1.1408514686593936,A,789,Correct
2,new_learn,48,181,A,46.43276451844907,58.04067266763109,2.3216382259224533,0.9117007543101988,A,552,Correct
2,new_learn,48,182,A,16.784433473858623,46.90213795146165,0.8392216736929312,0.7367370601298348,A,382,Correct
2,new_learn,48,183,B,60.74166094037006,32.02675648177555,3.037083047018503,0.5030751144072768,A,603,Incorrect
2,new_learn,48,184,B,33.133966667674045,12.797715134765514,1.6566983333837022,0.20102603925057128,A,517,Incorrect
2,new_learn,48,185,A,17.540635430741197,44.47395362178527,0.8770317715370598,0.6985952298714689,A,384,Correct
2,new_learn,48,186,B,42.52992250514855,31.36183049054,2.126496125257427,0.4926304813610442,B,701,Correct
2,new_learn,48,187,B,58.17594454234364,27.90269046434721,2.9087972271171822,0.43829443689091574,B,542,Correct
2,new_learn,48,188,B,66.28599276515625,36.51523950427855,3.314299638257813,0.5735800408535664,B,530,Correct
2,new_learn,48,189,B,37.57579539237765,15.047766466249193,1.8787897696188824,0.23636976291651657,B,605,Correct
2,new_learn,48,190,B,49.358370668808625,42.08104093594841,2.467918533440431,0.6610074452989344,B,636,Correct
2,new_learn,48,191,A,44.0413112040808,74.3717725119918,2.2020655602040398,1.1682290707906235,B,446,Incorrect
2,new_learn,48,192,A,14.431585415600718,42.353111332059996,0.7215792707800359,0.6652811170873516,A,401,Correct
2,new_learn,48,193,A,20.57391100016243,48.24110911728375,1.0286955500081214,0.7577695700194111,A,344,Correct
2,new_learn,48,194,B,68.33670643865081,50.841219948529854,3.4168353219325405,0.7986120154492211,B,574,Correct
2,new_learn,48,195,A,41.20937833185532,52.629977694754956,2.060468916592766,0.8267097564221842,B,484,Incorrect
2,new_learn,48,196,B,39.89645489721178,19.524939708155728,1.994822744860589,0.3066970357446283,A,543,Incorrect
2,new_learn,48,197,B,43.804116813163226,32.98731820347295,2.1902058406581615,0.5181635826482973,B,481,Correct
2,new_learn,48,198,B,80.71698652486145,57.283102040765435,4.035849326243072,0.8998008627305158,B,582,Correct
2,new_learn,48,199,A,60.32194235653921,78.0334074710126,3.016097117826961,1.2257458982275602,B,531,Incorrect
2,new_learn,48,200,B,81.95797573277507,53.69920025561787,4.097898786638754,0.8435050651334813,A,299,Incorrect
2,new_learn,48,201,B,72.98506477220599,55.09461852227978,3.6492532386102994,0.8654242440096315,B,350,Correct
2,new_learn,48,202,B,42.551244467040355,22.51554514123122,2.127562223352018,0.35367335603630684,B,591,Correct
2,new_learn,48,203,B,41.426843006618284,16.6754583374975,2.0713421503309144,0.26193748704162406,B,2494,Correct
2,new_learn,48,204,B,74.76723935264991,50.22092927603977,3.7383619676324953,0.7888685123502955,B,589,Correct
2,new_learn,48,205,A,22.61004445782118,37.78155034407794,1.1305022228910588,0.5934712050109409,A,631,Correct
2,new_learn,48,206,A,16.876180651912218,45.92221524820664,0.8438090325956109,0.7213444703016757,A,327,Correct
2,new_learn,48,207,B,60.084333055624235,48.12690387889913,3.0042166527812117,0.755975638329858,A,281,Incorrect
2,new_learn,48,208,B,70.42866647540451,55.04892830753914,3.5214333237702253,0.864706543794781,B,489,Correct
2,new_learn,48,209,B,83.00953756955631,62.806711542947426,4.150476878477815,0.9865655178972844,B,346,Correct
2,new_learn,48,210,B,64.01358666226619,41.12492278117976,3.20067933311331,0.6459887764440093,B,381,Correct
2,new_learn,48,211,B,77.59535586143556,52.99273956977262,3.879767793071778,0.8324080066299738,B,420,Correct
2,new_learn,48,212,A,64.34089645195039,84.80914082887567,3.217044822597519,1.33217886892629,B,388,Incorrect
2,new_learn,48,213,A,22.160051313360455,39.749403248276145,1.1080025656680228,0.624382166146813,A,1089,Correct
2,new_learn,48,214,A,62.77559337297118,74.12058962420491,3.138779668648559,1.16428349921573,B,581,Incorrect
2,new_learn,48,215,A,38.40735909404034,67.3127111554029,1.920367954702017,1.0573455942951273,A,1094,Correct
2,new_learn,48,216,A,23.862456264184857,41.74044174938243,1.1931228132092428,0.6556573257872627,A,591,Correct
2,new_learn,48,217,B,68.80370620217717,57.59945059173954,3.4401853101088586,0.9047700541490861,A,760,Incorrect
2,new_learn,48,218,A,36.92921124050162,67.20779797894876,1.8464605620250811,1.0556976219730618,B,645,Incorrect
2,new_learn,48,219,A,22.257466548810598,49.26713384052948,1.1128733274405298,0.7738863286841624,A,722,Correct
2,new_learn,48,220,A,56.895649488216876,78.74713147302225,2.8447824744108434,1.2369570486345816,A,745,Correct
2,new_learn,48,221,B,71.76637874489859,58.72346574581717,3.5883189372449293,0.9224260429019555,B,1108,Correct
2,new_learn,48,222,B,62.419680688551125,34.79277219147268,3.1209840344275563,0.5465235875737691,B,344,Correct
2,new_learn,48,223,A,11.454846105021957,38.286524786978404,0.5727423052510978,0.6014033250112744,A,550,Correct
2,new_learn,48,224,B,67.60190123360914,36.16121777585509,3.3800950616804575,0.568019080547435,A,603,Incorrect
2,new_learn,48,225,A,43.77938404815505,62.445862385336014,2.188969202407753,0.9808973125842542,A,701,Correct
2,new_learn,48,226,A,37.63475577123783,45.371353500530155,1.8817377885618913,0.7126915542034554,A,567,Correct
2,new_learn,48,227,B,65.893667590628,51.381716023442486,3.2946833795314,0.8071021079404195,B,439,Correct
2,new_learn,48,228,B,40.01927855854289,27.349543862511062,2.000963927927144,0.42960563038748284,A,759,Incorrect
2,new_learn,48,229,A,36.50157581083818,65.5094533613821,1.825078790541909,1.029020087104006,A,926,Correct
2,new_learn,48,230,B,62.71606436789325,43.39225970957293,3.1358032183946625,0.6816040216312735,B,786,Correct
2,new_learn,48,231,A,21.411318231912773,45.02030638315597,1.0705659115956387,0.7071773189784223,A,612,Correct
2,new_learn,48,232,A,45.26146356008724,54.73032366370736,2.2630731780043623,0.8597019137524732,B,605,Incorrect
2,new_learn,48,233,B,56.49079374626499,35.05927158634701,2.8245396873132496,0.5507097502793857,B,621,Correct
2,new_learn,48,234,A,30.032160258404986,62.61441757529326,1.5016080129202494,0.9835449713167247,A,560,Correct
2,new_learn,48,235,B,65.8613606799993,45.70717316956657,3.2930680339999645,0.7179665972293342,B,722,Correct
2,new_learn,48,236,B,48.19401902815204,29.430241476375297,2.409700951407602,0.46228915207777127,B,828,Correct
2,new_learn,48,237,A,62.31412420570228,79.31643587399967,3.1157062102851136,1.2458996612534161,B,1130,Incorrect
2,new_learn,48,238,A,33.7567630878069,58.08324112070571,1.6878381543903453,0.9123694180074681,A,553,Correct
2,new_learn,48,239,B,72.81051841656159,53.589565098283565,3.64052592082808,0.8417829201091981,B,661,Correct
2,new_learn,48,240,A,50.04823018320573,58.69910117540445,2.5024115091602868,0.9220433251248731,A,667,Correct
2,new_learn,48,241,A,37.8515320013998,50.42266707862491,1.8925766000699897,0.7920374023430596,A,636,Correct
2,new_learn,48,242,B,47.714308452498784,23.841639192415663,2.3857154226249393,0.37450359268215766,B,741,Correct
2,new_learn,48,243,B,44.61559741102312,24.005102630671473,2.2307798705511557,0.37707127036593263,A,554,Incorrect
2,new_learn,48,244,A,57.138016949757784,81.26985443316755,2.856900847487889,1.2765838882277551,B,575,Incorrect
2,new_learn,48,245,B,77.0015717918899,60.37137105311791,3.850078589594495,0.9483112789380937,B,503,Correct
2,new_learn,48,246,B,46.781980140411285,16.897159155077034,2.339099007020564,0.2654199553406376,B,610,Correct
2,new_learn,48,247,A,53.208766271098476,74.76280255413369,2.660438313554924,1.174371356329253,B,468,Incorrect
2,new_learn,48,248,B,58.99563007505712,43.68222722897246,2.949781503752856,0.6861588207748995,B,500,Correct
2,new_learn,48,249,A,39.77637691588798,65.65593992056291,1.988818845794399,1.0313210925948664,A,546,Correct
2,new_learn,48,250,B,43.58371927467614,27.546696615167015,2.179185963733807,0.43270249858437754,A,684,Incorrect
2,new_learn,48,251,A,45.27357292423221,63.516520124608306,2.2636786462116105,0.9977151650252887,B,653,Incorrect
2,new_learn,48,252,B,84.84541753648818,56.58390033916811,4.242270876824409,0.8888178280849377,B,505,Correct
2,new_learn,48,253,A,44.770351958136146,58.61686819465015,2.238517597906807,0.9207516124837707,B,566,Incorrect
2,new_learn,48,254,A,27.503562227021547,43.470576516207245,1.3751781113510773,0.6828342191531483,A,481,Correct
2,new_learn,48,255,B,61.40901719842208,34.23093599461162,3.070450859921104,0.5376982852308714,B,525,Correct
2,new_learn,48,256,B,72.01083797497827,56.16610023265065,3.6005418987489133,0.8822550393584163,B,532,Correct
2,new_learn,48,257,A,59.30889119124822,69.59290135463228,2.9654445595624113,1.0931627381885596,B,511,Incorrect
2,new_learn,48,258,B,53.7764261837865,23.716354423056494,2.6888213091893247,0.3725356241270304,B,512,Correct
2,new_learn,48,259,A,57.62473578849979,83.73239894479667,2.8812367894249893,1.3152654469621148,B,597,Incorrect
2,new_learn,48,260,B,67.28008502225482,55.38815511233307,3.364004251112741,0.8700351059839876,A,312,Incorrect
2,new_learn,48,261,A,31.65576711910871,56.827257231259544,1.5827883559554354,0.8926404692069121,A,403,Correct
2,new_learn,48,262,A,27.629799198773117,48.55922065351155,1.3814899599386559,0.7627664543455882,A,405,Correct
2,new_learn,48,263,A,23.386600092213037,42.9110646095593,1.1693300046106518,0.6740454266755422,A,416,Correct
2,new_learn,48,264,A,55.11177076905574,77.79850973195835,2.7555885384527867,1.2220561331707718,B,672,Incorrect
2,new_learn,48,265,B,63.556201498034326,45.78963567552268,3.1778100749017164,0.7192619152438756,B,504,Correct
2,new_learn,48,266,B,46.83558154022387,20.70361374363841,2.3417790770111937,0.3252116041988755,B,494,Correct
2,new_learn,48,267,A,41.02460987162862,72.75622265601656,2.051230493581431,1.1428520729954246,A,546,Correct
2,new_learn,48,268,B,45.03429961969991,32.41266989970998,2.2517149809849952,0.5091370282007995,A,581,Incorrect
2,new_learn,48,269,B,53.73778832714674,46.36562562764307,2.686889416357337,0.7283095442544907,B,275,Correct
2,new_learn,48,270,A,52.69810583954424,72.06825180400685,2.6349052919772125,1.1320454521226364,B,600,Incorrect
2,new_learn,48,271,A,36.65159538367169,61.67921084361549,1.8325797691835846,0.9688547783275916,A,242,Correct
2,new_learn,48,272,A,27.51202041418169,51.36628022533193,1.3756010207090845,0.8068596429906872,A,499,Correct
2,new_learn,48,273,B,42.60644467759293,30.229911632683958,2.130322233879647,0.4748503415195428,B,604,Correct
2,new_learn,48,274,B,58.10532613783405,40.51176137696816,2.9052663068917024,0.6363572596293295,B,678,Correct
2,new_learn,48,275,A,24.593540346570155,55.57948244147092,1.2296770173285076,0.8730404686422397,A,628,Correct
2,new_learn,48,276,A,53.528662271157614,78.15605988271949,2.6764331135578807,1.2276725178053773,B,703,Incorrect
2,new_learn,48,277,B,84.6356044083826,59.99025133204684,4.231780220419131,0.9423246643588181,B,512,Correct
2,new_learn,48,278,A,50.35555183254103,71.9075489861877,2.5177775916270515,1.1295211381632773,B,494,Incorrect
2,new_learn,48,279,B,56.4263400245713,33.436459158274076,2.821317001228565,0.5252186722684449,B,882,Correct
2,new_learn,48,280,A,59.941581174224396,78.2788633590299,2.9970790587112197,1.2296015103004378,B,1626,Incorrect
2,new_learn,48,281,A,45.39890583851477,57.140423212045015,2.2699452919257386,0.8975596689298615,B,642,Incorrect
2,new_learn,48,282,B,41.43752682243022,27.81568685035178,2.071876341121511,0.4369277873180968,B,867,Correct
2,new_learn,48,283,A,52.29408981624396,60.86826486740119,2.6147044908121977,0.9561164687209263,A,589,Correct
2,new_learn,48,284,A,44.09116165567584,75.5902635473677,2.2045580827837923,1.1873690832166335,A,1963,Correct
2,new_learn,48,285,B,53.23804343001988,27.82178672646802,2.661902171500994,0.43702360394806966,B,859,Correct
2,new_learn,48,286,A,52.48445605169382,65.15879603785571,2.6242228025846908,1.023511974746416,A,580,Correct
2,new_learn,48,287,B,61.60755305500712,48.08695206115681,3.080377652750356,0.755348076644274,B,701,Correct
2,new_learn,48,288,B,82.12251926621171,56.0786847259952,4.1061259633105855,0.8808819197908232,B,687,Correct
2,new_learn,48,289,B,71.65908586975158,60.051376227671554,3.582954293487579,0.9432848119740486,B,582,Correct
2,new_learn,48,290,A,16.274899728095765,46.35662780763231,0.8137449864047882,0.72816820682827,A,574,Correct
2,new_learn,48,291,A,25.44172305045476,38.7901493376972,1.2720861525227378,0.6093142409548026,A,337,Correct
2,new_learn,48,292,B,54.34377527818804,28.33191803714886,2.7171887639094017,0.445036727838075,A,951,Incorrect
2,new_learn,48,293,A,35.7697164365429,57.98466526893614,1.7884858218271449,0.910820992148765,B,519,Incorrect
2,new_learn,48,294,A,38.05909694253635,53.48328307439116,1.9029548471268174,0.840113445981853,B,503,Incorrect
2,new_learn,48,295,B,52.804883742941506,27.771851977998033,2.640244187147075,0.4362392307533089,B,565,Correct
2,new_learn,48,296,A,24.794942693627306,56.44399366710675,1.2397471346813653,0.8866201792192568,A,529,Correct
2,new_learn,48,297,A,28.578741639251003,54.68654910801244,1.42893708196255,0.8590143046395469,A,534,Correct
2,new_learn,48,298,B,77.4227551500801,47.53245233443102,3.8711377575040054,0.7466380153047775,B,629,Correct
2,new_learn,48,299,B,56.19941974122601,23.849131854165883,2.8099709870613,0.37462128713770937,B,1161,Correct
2,new_learn,48,300,B,74.63174446995237,43.860601559083484,3.7315872234976184,0.6889607182002285,B,749,Incorrect
2,new_learn,48,301,B,63.64766112282669,32.58431421630417,3.1823830561413344,0.5118332108210132,A,512,Incorrect
2,new_learn,48,302,A,49.420492885203664,57.83070271020026,2.4710246442601833,0.9084025539315023,B,534,Correct
2,new_learn,48,303,B,66.30321170686435,52.50998282529,3.315160585343217,0.8248248814202864,A,650,Incorrect
2,new_learn,48,304,B,47.234511048501396,17.323736301551108,2.3617255524250695,0.2721206134883989,B,356,Correct
2,new_learn,48,305,A,61.80102151039553,79.04052052798954,3.090051075519776,1.241565593133226,B,680,Incorrect
2,new_learn,48,306,B,45.67098499713838,35.50068789306021,2.2835492498569194,0.5576435014111104,A,262,Correct
2,new_learn,48,307,A,14.387846518524771,39.97973428120197,0.7193923259262385,0.6280001975514806,A,644,Correct
2,new_learn,48,308,B,60.15276516629978,37.354951058114466,3.007638258314989,0.5867701990968933,B,506,Correct
2,new_learn,48,309,A,48.58218095933922,65.38310983782365,2.429109047966961,1.0270354876768066,B,475,Incorrect
2,new_learn,48,310,A,28.485396071559798,49.93552905624177,1.4242698035779897,0.7843854561810439,A,470,Incorrect
2,new_learn,48,311,A,19.89220536685568,45.30439628607607,0.994610268342784,0.7116397927382865,A,478,Correct
2,new_learn,48,312,A,21.52323480543585,43.672317863201485,1.0761617402717925,0.6860031648213604,A,453,Incorrect
2,new_learn,48,313,B,71.21301260740908,46.18872799276305,3.5606506303704544,0.7255308427036081,B,433,Incorrect
2,new_learn,48,314,B,51.27561743681523,37.91249248151317,2.5637808718407613,0.5955280392960002,A,359,Incorrect
2,new_learn,48,315,A,47.02794670998512,54.27395898091573,2.351397335499256,0.8525333540783933,B,599,Correct
2,new_learn,48,316,B,63.76275341900025,54.232455191381625,3.1881376709500127,0.8518814140769108,B,521,Incorrect
2,new_learn,48,317,A,58.46195234030158,69.00265987873982,2.9230976170150793,1.0838912467660209,A,552,Incorrect
2,new_learn,48,318,B,59.535074461970005,41.54846085580213,2.9767537230985006,0.6526416969627553,B,375,Correct
2,new_learn,48,319,B,62.26747009252645,35.38634761540071,3.1133735046263222,0.5558474485295878,B,468,Correct
2,new_learn,48,320,B,54.97403076035371,26.638516827580606,2.7487015380176856,0.41843684384027663,B,662,Correct
2,new_learn,48,321,A,45.996168741585535,70.2778206219695,2.299808437079277,1.103921424881403,B,503,Incorrect
2,new_learn,48,322,A,42.20680718106575,62.16446472669329,2.1103403590532874,0.9764771284986075,B,530,Correct
2,new_learn,48,323,A,61.47763250381129,75.80504616529082,3.0738816251905643,1.1907428806895637,A,942,Correct
2,new_learn,48,324,B,66.3434675572092,49.2043990547579,3.3171733778604597,0.77290089297364,A,564,Incorrect
2,new_learn,48,325,B,69.17101612411362,46.62163879081919,3.458550806205681,0.7323309896177723,B,328,Incorrect
2,new_learn,48,326,B,32.1720667893229,12.211938141479923,1.608603339466145,0.1918246757568316,A,603,Incorrect
2,new_learn,48,327,A,37.13518038609821,60.55094922633541,1.8567590193049108,0.9511320862867194,A,703,Correct
2,new_learn,48,328,B,57.09599683498317,39.71926633651478,2.8547998417491582,0.623908776643856,B,407,Incorrect
2,new_learn,48,329,B,31.496504240209898,13.564406611639978,1.5748252120104949,0.21306920080716488,A,558,Correct
2,new_learn,48,330,B,38.778361574672935,14.206662488648547,1.9389180787336469,0.22315773253183982,A,443,Incorrect
2,new_learn,48,331,B,68.0753733577574,35.03724013934244,3.40376866788787,0.5503636811190981,B,558,Correct
2,new_learn,48,332,B,66.6917496086984,51.347197609244844,3.33458748043492,0.8065598939581349,B,412,Correct
2,new_learn,48,333,B,30.933551281906922,16.577434467953026,1.546677564095346,0.26039773169943725,A,632,Incorrect
2,new_learn,48,334,B,37.24933084192404,20.111190390891053,1.862466542096202,0.31590583993484483,B,677,Correct
2,new_learn,48,335,B,57.47703656150818,43.471668832870904,2.873851828075409,0.6828513772231781,B,684,Correct
2,new_learn,48,336,A,59.956897132206166,82.42862292357086,2.997844856610308,1.294785781111067,A,934,Incorrect
2,new_learn,48,337,B,77.58549338975533,58.9694709480092,3.8792746694877667,0.9262902835817124,B,493,Correct
2,new_learn,48,338,B,83.8527397841915,58.1188146902083,4.192636989209575,0.9129282063305248,A,808,Incorrect
2,new_learn,48,339,A,27.369277296933248,59.81923084508911,1.3684638648466625,0.9396382808316195,A,575,Correct
2,new_learn,48,340,B,73.28317504246056,43.24996285478679,3.664158752123028,0.6793688278631481,B,552,Correct
2,new_learn,48,341,A,26.307048686979968,40.42907468592377,1.3153524343489982,0.635058420123656,A,397,Correct
2,new_learn,48,342,A,51.12361937189894,78.97688649386646,2.556180968594947,1.240566032062629,B,621,Correct
2,new_learn,48,343,B,49.48354689239244,40.03181998462597,2.474177344619622,0.6288183578676501,A,737,Incorrect
2,new_learn,48,344,A,32.8413417373036,55.140478157699604,1.6420670868651799,0.8661446054782878,B,392,Correct
2,new_learn,48,345,A,38.46260827973186,70.79337208238303,1.923130413986593,1.1120196882843165,B,491,Incorrect
2,new_learn,48,346,B,59.6957504806234,29.969241593758056,2.9847875240311703,0.4707557461230398,B,326,Correct
2,new_learn,48,347,B,57.454480252481005,25.542105389076205,2.87272401262405,0.4012144532376904,B,470,Correct
2,new_learn,48,348,B,35.4074646908801,21.575592638672383,1.7703732345440049,0.3389086166524959,A,525,Incorrect
2,new_learn,48,349,A,30.99396494825406,43.5717115603396,1.5496982474127032,0.6844228447114817,B,334,Correct
2,new_learn,48,350,B,70.64990979216043,51.82658728414533,3.5324954896080216,0.8140901293625059,B,369,Incorrect
2,new_learn,48,351,A,53.98395237874131,63.450022028879786,2.6991976189370654,0.9966706153801964,A,227,Correct
2,new_learn,48,352,A,58.51608438757572,77.78927564581642,2.9258042193787857,1.2219110844848413,A,310,Correct
2,new_learn,48,353,B,81.01819049772037,65.75888561576525,4.050909524886018,1.0329381597936982,B,231,Correct
2,new_learn,48,354,B,85.96812370343926,63.377890046902955,4.298406185171963,0.9955375688568601,A,440,Correct
2,new_learn,48,355,B,42.355041602398266,29.20210545028482,2.1177520801199132,0.4587055997598462,B,276,Incorrect
2,new_learn,48,356,B,60.744949367669534,31.605450548799503,3.0372474683834763,0.49645725628752013,A,220,Incorrect
2,new_learn,48,357,A,31.919913956609548,63.06585816630079,1.5959956978304775,0.990636183537932,107,50,Incorrect
2,new_learn,48,358,B,84.19286069336873,59.445940534367764,4.209643034668437,0.9337746503425275,B,259,Correct
2,new_learn,48,359,B,59.72954296664888,34.13100742913939,2.986477148332444,0.5361286109950147,B,407,Incorrect
2,new_learn,48,360,B,81.46187413533661,53.51110336565301,4.073093706766831,0.8405504460950978,A,124,Correct
2,new_learn,48,361,A,44.45763441414591,76.28970355030131,2.2228817207072953,1.1983558610908487,B,186,Incorrect
2,new_learn,48,362,B,56.22987764361595,37.95897627184281,2.8114938821807978,0.5962582049670532,B,342,Correct
2,new_learn,48,363,B,64.24335975002644,49.44072760360147,3.2121679875013225,0.7766131331380425,B,424,Correct
2,new_learn,48,364,B,69.09188333061431,35.970812890090855,3.4545941665307156,0.5650282075958123,B,451,Correct
2,new_learn,48,365,B,34.58029330251529,12.918356395540723,1.7290146651257643,0.20292106774342727,A,249,Correct
2,new_learn,48,366,A,36.400997784010926,66.93843887522365,1.8200498892005463,1.0514665390658602,B,443,Correct
2,new_learn,48,367,A,53.575096992646756,78.33776920337202,2.6787548496323375,1.2305268011396313,B,485,Incorrect
2,new_learn,48,368,B,48.87351067461549,39.44915296053311,2.4436755337307745,0.6196658456557543,B,202,Correct
2,new_learn,48,369,B,49.70427644273519,32.25547295821667,2.4852138221367595,0.5066677844179887,A,130,Incorrect
2,new_learn,48,370,B,57.068862770794674,39.76266257790609,2.8534431385397334,0.6245904432095978,B,346,Correct
2,new_learn,48,371,B,75.85312965783228,53.56438315771669,3.792656482891614,0.841387363111758,B,494,Correct
2,new_learn,48,372,A,61.74257110142127,82.72534974392947,3.087128555071063,1.2994467551058757,B,448,Incorrect
2,new_learn,48,373,B,79.72835881870022,56.163931944871365,3.9864179409350107,0.8822209799736249,B,359,Incorrect
2,new_learn,48,374,B,64.42327048290433,48.225880041157815,3.221163524145217,0.7575303522510202,A,589,Correct
2,new_learn,48,375,A,63.56870164967751,78.19882263846323,3.178435082483875,1.2283442336018362,A,374,Incorrect
2,new_learn,48,376,B,79.16151793635368,60.195135178198456,3.9580758968176837,0.9455429722883639,A,339,Incorrect
2,new_learn,48,377,A,27.350896858788545,41.21428062690808,1.367544842939427,0.6473924062024127,B,209,Incorrect
2,new_learn,48,378,B,42.73068953531217,25.893336601343773,2.1365344767656085,0.4067315802185465,A,349,Incorrect
2,new_learn,48,379,A,22.500096460639178,48.29371937361083,1.125004823031959,0.7585959699933141,A,358,Correct
2,new_learn,48,380,A,49.230663419880585,70.93227870346726,2.4615331709940294,1.1142016283859826,B,520,Correct
2,new_learn,48,381,B,88.32570744712942,62.818582919333025,4.41628537235647,0.9867519930414895,B,873,Correct
2,new_learn,48,382,B,50.39022271498235,29.89611700604239,2.5195111357491173,0.46960710778521836,B,477,Incorrect
2,new_learn,48,383,A,45.43979700966193,55.96412510318968,2.2719898504830964,0.879082421443804,B,392,Incorrect
2,new_learn,48,384,A,65.8267070542999,84.8351789940366,3.291335352714995,1.3325878754682026,A,720,Correct
2,new_learn,48,385,B,64.35218301098048,53.581072490944734,3.217609150549024,0.8416495185450708,A,671,Correct
2,new_learn,48,386,B,52.903929808368275,21.561734852237255,2.6451964904184138,0.3386909390521978,A,420,Correct
2,new_learn,48,387,A,36.690344112675845,49.26634417469373,1.8345172056337924,0.7738739246422205,B,651,Incorrect
2,new_learn,48,388,A,37.90432647009737,63.155659033339674,1.8952163235048685,0.9920467722588089,A,410,Correct
2,new_learn,48,389,B,61.86080754898857,30.051070702957325,3.0930403774494284,0.47204111476459093,A,599,Incorrect
2,new_learn,48,390,A,38.13392557834611,46.60196608453795,1.9066962789173056,0.7320219714701256,B,720,Incorrect
2,new_learn,48,391,A,41.69017677586312,65.3716397993494,2.084508838793156,1.0268553167337708,B,446,Incorrect
2,new_learn,48,392,A,49.8509078293489,79.90914165789957,2.492545391467445,1.255209861935617,A,389,Correct
2,new_learn,48,393,A,32.77855886979923,57.2321799107353,1.6389279434899613,0.8990009797824768,A,520,Correct
2,new_learn,48,394,A,33.704563382950056,51.28440491277313,1.6852281691475028,0.8055735485884618,A,552,Correct
2,new_learn,48,395,A,50.72787408883553,79.01983103359102,2.5363937044417764,1.2412406033151815,B,543,Incorrect
2,new_learn,48,396,A,27.129252527301304,53.47651854300258,1.3564626263650652,0.8400071889712761,A,271,Correct
2,new_learn,48,397,B,42.98501000114283,27.805294833769878,2.1492505000571414,0.4367645499033484,A,321,Incorrect
2,new_learn,48,398,B,57.18769912580907,49.65784741756394,2.8593849562904534,0.7800236432005089,B,160,Incorrect
2,new_learn,48,399,A,42.523511718883455,56.95614674268847,2.126175585944173,0.8946650609180616,A,344,Correct
2,new_learn,48,400,B,53.32960613336813,45.51120032074103,2.6664803066684066,0.7148882629184674,A,300,Incorrect
2,new_learn,48,401,A,45.70674863684719,69.03006358100409,2.2853374318423594,1.0843217031145937,B,146,Incorrect
2,new_learn,48,402,A,40.7438457148624,56.72551253967477,2.03719228574312,0.8910422673287897,B,343,Incorrect
2,new_learn,48,403,B,39.35358091131431,15.536205443131088,1.9676790455657156,0.2440421444240119,A,232,Incorrect
2,new_learn,48,404,B,55.429774784811784,39.92375849143549,2.7714887392405894,0.6271209319019343,A,422,Correct
2,new_learn,48,405,B,51.74830002330111,28.591579021684943,2.5874150011650556,0.44911547304528726,A,424,Incorrect
2,new_learn,48,406,A,32.50732873376384,53.43797748938477,1.6253664366881921,0.8394017875167398,A,275,Correct
2,new_learn,48,407,B,34.60423368456432,16.139596219507272,1.730211684228216,0.2535201845755482,B,277,Correct
2,new_learn,48,408,A,50.193822951650404,66.98865022264054,2.5096911475825205,1.052255257066719,A,1121,Correct
2,new_learn,48,409,A,61.52009420602283,87.37823337948494,3.076004710301141,1.3725340803432216,B,599,Incorrect
2,new_learn,48,410,B,78.97061353986932,52.50610719546148,3.9485306769934656,0.8247640031692999,A,340,Correct
2,new_learn,48,411,B,67.2484212452179,59.189609042382045,3.362421062260895,0.9297482046819971,A,411,Correct
2,new_learn,48,412,A,60.44977891697311,82.67593739260747,3.0224889458486555,1.2986705877063265,A,270,Incorrect
2,new_learn,48,413,B,83.32024740268243,68.73857006747436,4.166012370134121,1.0797429337112234,B,310,Correct
2,new_learn,48,414,A,27.329990196044285,48.525737399686676,1.3664995098022144,0.7622405006244157,A,558,Incorrect
2,new_learn,48,415,A,28.346903644685185,61.095351623898175,1.4173451822342593,0.9596835391506187,B,276,Correct
2,new_learn,48,416,A,58.762155311130385,71.49003373804149,2.9381077655565195,1.1229628239815879,B,388,Incorrect
2,new_learn,48,417,A,26.628215747514147,57.23743941316763,1.3314107873757075,0.8990835958534914,A,487,Correct
2,new_learn,48,418,A,47.44486594624515,69.37845795588763,2.3722432973122576,1.0897942691580245,A,450,Correct
2,new_learn,48,419,A,51.033822783757884,61.87349198040484,2.5516911391878945,0.971906539287934,B,474,Incorrect
2,new_learn,48,420,B,60.089500498555076,38.89007323526417,3.0044750249277534,0.6108838418673748,A,240,Correct
2,new_learn,48,421,B,34.61169492429765,11.63983278235045,1.7305847462148825,0.18283806579022904,A,399,Incorrect
2,new_learn,48,422,A,48.68627411250627,71.42355700194112,2.4343137056253137,1.12191860985275,B,364,Incorrect
2,new_learn,48,423,B,41.595419636778374,20.979706805848,2.079770981838919,0.3295484638785994,A,57,Correct
2,new_learn,48,424,A,34.00545932736543,53.87587286229554,1.7002729663682714,0.8462802319496269,A,592,Incorrect
2,new_learn,48,425,B,47.11405974687902,36.988176243434694,2.3557029873439514,0.5810089137802947,B,434,Incorrect
2,new_learn,48,426,B,64.7330375677996,44.39342230355816,3.23665187838998,0.697330246882838,A,139,Incorrect
2,new_learn,48,427,B,55.89190309309771,31.21827426646729,2.7945951546548855,0.49037550546642455,B,262,Correct
2,new_learn,48,428,A,11.653992796476473,30.76799921221464,0.5826996398238237,0.4833026014537503,A,518,Correct
2,new_learn,48,429,B,50.262574939409866,24.253073280589874,2.513128746970493,0.38096638422638024,A,538,Incorrect
2,new_learn,48,430,B,70.43551962827284,44.518851954241754,3.5217759814136422,0.6993004912284875,B,541,Correct
2,new_learn,48,431,B,39.36638128641029,17.375736542076314,1.9683190643205142,0.2729374313564933,B,415,Correct
2,new_learn,48,432,B,32.911487443335574,20.421338106119478,1.6455743721667786,0.32077762885329125,B,415,Incorrect
2,new_learn,48,433,A,24.042705157341608,42.281340746817044,1.2021352578670803,0.6641537473706359,A,493,Correct
2,new_learn,48,434,A,20.9142151281977,49.37634630016466,1.0457107564098849,0.7756018339885143,A,428,Incorrect
2,new_learn,48,435,A,29.554499458791483,49.253588906573704,1.4777249729395743,0.7736735653591184,A,374,Incorrect
2,new_learn,48,436,A,31.101431405084156,62.406853678592746,1.5550715702542077,0.9802845652516008,B,398,Incorrect
2,new_learn,48,437,B,38.0477586893942,12.920368456848319,1.9023879344697099,0.20295267312853985,A,519,Correct
2,new_learn,48,438,A,14.692170824522872,36.27811565672771,0.7346085412261436,0.569855308166283,A,853,Correct
2,new_learn,48,439,B,39.26175553332549,23.145415211868517,1.9630877766662747,0.36356733196945784,A,764,Incorrect
2,new_learn,48,440,A,27.77302790678715,40.96504354445387,1.3886513953393576,0.6434773992662113,B,570,Incorrect
2,new_learn,48,441,A,26.158782508240506,47.76164911696947,1.3079391254120254,0.7502382299460235,B,952,Incorrect
2,new_learn,48,442,A,12.59222641567046,34.251111184305444,0.629611320783523,0.5380151963695059,A,502,Correct
2,new_learn,48,443,A,37.365110964131915,67.61813730988365,1.868255548206596,1.0621432171107819,B,706,Incorrect
2,new_learn,48,444,B,58.09842756250994,36.39527906402886,2.904921378125497,0.5716957066645174,B,511,Incorrect
2,new_learn,48,445,B,55.67720323525393,34.10047198582803,2.783860161762697,0.5356489613731094,A,101,Incorrect
2,new_learn,48,446,A,44.71093968028305,68.55019228204421,2.235546984014152,1.076783902377189,B,670,Incorrect
2,new_learn,48,447,B,65.4979144997757,33.07340492428831,3.274895724988785,0.5195158296967232,A,570,Incorrect
2,new_learn,48,448,B,70.40254421609565,38.58625822337807,3.520127210804782,0.6061115268204164,B,348,Correct
2,new_learn,48,449,A,21.76030613993321,35.914361412613644,1.0880153069966605,0.5641414698611787,B,280,Correct
2,new_learn,48,450,B,50.32471216972978,42.41147135686962,2.5162356084864888,0.6661978342133777,A,250,Correct
2,new_learn,48,451,B,53.93859999827074,45.92905617068703,2.696929999913537,0.7214519272607166,B,700,Correct
2,new_learn,48,452,B,87.64583978024976,62.73897559737118,4.382291989012487,0.9855015241522531,B,548,Correct
2,new_learn,48,453,A,12.827809825364124,34.285012330127245,0.6413904912682062,0.5385477143228161,A,572,Correct
2,new_learn,48,454,B,83.2503064823014,56.47439302083489,4.16251532411507,0.8870976911509879,B,581,Incorrect
2,new_learn,48,455,B,48.64354482559118,41.25857205433876,2.432177241279559,0.648088134317579,A,578,Correct
2,new_learn,48,456,A,42.97920530275041,68.6041572588873,2.1489602651375206,1.077631582251196,A,423,Correct
2,new_learn,48,457,A,65.17737987984287,88.14378440033491,3.258868993992144,1.3845593276584738,B,524,Incorrect
2,new_learn,48,458,A,41.31194014103605,56.68357173320915,2.065597007051802,0.8903834626813997,A,590,Correct
2,new_learn,48,459,B,73.10837972652476,55.84035809192156,3.6554189863262376,0.8771382937770207,B,127,Correct
2,new_learn,48,460,B,62.182082177523114,36.754185959845756,3.1091041088761555,0.5773334030006227,B,569,Incorrect
2,new_learn,48,461,B,53.41267659871556,28.632480423272227,2.6706338299357775,0.449757950759028,A,500,Correct
2,new_learn,48,462,B,80.93408751625752,54.175294954786196,4.046704375812876,0.8509835431800825,B,584,Correct
2,new_learn,48,463,A,50.28467000275731,57.14685633169851,2.5142335001378653,0.897660720137077,B,705,Incorrect
2,new_learn,48,464,B,61.43050815132901,49.53555454134133,3.0715254075664506,0.778102671192872,A,462,Correct
2,new_learn,48,465,A,68.54603885438311,82.57054908990227,3.427301942719156,1.2970151521185618,B,629,Incorrect
2,new_learn,48,466,A,66.3464832470215,79.95702408310903,3.317324162351075,1.2559619973119875,A,767,Correct
2,new_learn,48,467,B,71.28577990539318,53.49504121760217,3.564288995269659,0.8402981424635108,A,383,Correct
2,new_learn,48,468,A,44.94248013837664,65.26279847253817,2.247124006918832,1.0251456411701854,B,429,Incorrect
2,new_learn,48,469,A,26.06446130745048,45.96628813425645,1.3032230653725239,0.7220367655768587,A,323,Correct
2,new_learn,48,470,A,28.688416765657948,40.16631902556426,1.4344208382828976,0.6309310638622831,A,397,Correct
2,new_learn,48,471,A,61.305795268696464,85.61695926706699,3.0652897634348233,1.344868051280571,A,343,Incorrect
2,new_learn,48,472,B,50.248782330386916,21.147034119957077,2.512439116519346,0.33217683518234925,A,373,Incorrect
2,new_learn,48,473,B,62.02807199788556,50.01943370866669,3.1014035998942777,0.7857034273793447,B,420,Correct
2,new_learn,48,474,B,34.9145857338389,12.033665208608468,1.7457292866919447,0.18902437107561726,A,345,Incorrect
2,new_learn,48,475,A,54.49349429949048,69.90509179795956,2.724674714974524,1.0980666142049493,B,403,Correct
2,new_learn,48,476,B,64.08453660056223,32.05168306018593,3.2042268300281114,0.5034666601853427,A,669,Correct
2,new_learn,48,477,A,34.51565439877425,67.30029174372525,1.7257827199387126,1.0571505106326853,B,158,Incorrect
2,new_learn,48,478,B,62.08426678404612,31.824564244444197,3.104213339202306,0.49989908617021156,A,152,Incorrect
2,new_learn,48,479,B,50.66889067576446,38.686977321437936,2.5334445337882228,0.6076936187131218,B,99,Correct
2,new_learn,48,480,A,63.46049920667389,78.30778434010675,3.173024960333694,1.230055800008866,B,451,Correct
2,new_learn,48,481,B,68.61335351151314,52.13088450431129,3.430667675575657,0.8188700189194115,A,225,Incorrect
2,new_learn,48,482,B,42.81779690268203,28.032669726810177,2.140889845134102,0.44033614637127927,B,194,Incorrect
2,new_learn,48,483,A,24.35809577193384,42.34448788922566,1.217904788596692,0.6651456603640664,B,337,Correct
2,new_learn,48,484,B,53.041375886802186,45.85370147595238,2.6520687943401096,0.7202682584837572,B,861,Incorrect
2,new_learn,48,485,B,79.33603063687583,63.15065000028093,3.9668015318437915,0.9919680905515142,B,953,Correct
2,new_learn,48,486,B,57.423476562995596,43.413574290092726,2.87117382814978,0.6819388302791501,A,545,Correct
2,new_learn,48,487,B,61.28911379007172,34.920586962388725,3.0644556895035855,0.5485312973004196,B,497,Incorrect
2,new_learn,48,488,A,56.836593016753326,81.38201503728719,2.8418296508376666,1.2783457028773775,A,11,Correct
2,new_learn,48,489,A,55.19877403295337,74.44419457152985,2.759938701647668,1.1693666738416366,B,367,Incorrect
2,new_learn,48,490,A,56.55550442592863,73.03431058220312,2.8277752212964318,1.147220267925223,B,256,Correct
2,new_learn,48,491,B,62.96209028335357,32.72596488350806,3.1481045141676782,0.5140582542983324,A,209,Correct
2,new_learn,48,492,B,63.65717363210658,37.73225080789069,3.182858681605329,0.5926968097073847,A,287,Incorrect
2,new_learn,48,493,B,39.409038943923974,15.181330488356071,1.9704519471961988,0.2384677816696909,B,353,Incorrect
2,new_learn,48,494,B,59.235127214941144,37.912164581179745,2.9617563607470574,0.5955228886496072,A,385,Correct
2,new_learn,48,495,B,51.95242231225476,38.52249752676843,2.597621115612738,0.6051099761401334,A,312,Incorrect
2,new_learn,48,496,A,20.358693983820398,34.875639760575666,1.0179346991910199,0.5478252683053431,B,167,Incorrect
2,new_learn,48,497,A,36.46399406990166,47.28101435698848,1.823199703495083,0.7426884367909428,A,445,Incorrect
2,new_learn,48,498,B,43.61482924472011,22.354616040104876,2.1807414622360057,0.35114548762707015,B,299,Correct
2,new_learn,48,499,B,58.35654686996853,33.5621331670602,2.9178273434984265,0.5271927549821934,A,278,Incorrect
2,new_learn,48,500,B,56.664107321189526,41.935655422641446,2.833205366059476,0.6587237349962167,A,249,Incorrect
2,new_learn,48,501,B,40.83538407014913,28.04739868041453,2.0417692035074566,0.4405675082334718,B,418,Correct
2,new_learn,48,502,A,14.515324722872009,37.132720298291375,0.7257662361436005,0.5832794064845839,A,480,Incorrect
2,new_learn,48,503,B,53.09283449639889,37.736543313771556,2.6546417248199448,0.5927642362320887,A,190,Incorrect
2,new_learn,48,504,A,19.39435641689291,41.599612729167035,0.9697178208446456,0.6534451887106579,B,50,Correct
2,new_learn,48,505,A,41.70456718991349,65.17507925376549,2.0852283594956744,1.023767750903811,B,425,Correct
2,new_learn,48,506,A,38.182780684768396,66.38242208976023,1.9091390342384198,1.0427326478234376,B,447,Incorrect
2,new_learn,48,507,A,48.68658999892878,63.20898280497644,2.434329499946439,0.9928843801049878,A,494,Correct
2,new_learn,48,508,B,51.54814294368597,25.856528992588213,2.5774071471842985,0.4061534076522331,B,505,Incorrect
2,new_learn,48,509,B,69.21392928530749,56.87555893870696,3.460696464265374,0.8933991906532752,A,217,Incorrect
2,new_learn,48,510,A,38.290421926279635,47.75736415158707,1.9145210963139818,0.7501709218671925,B,253,Incorrect
2,new_learn,48,511,A,61.5748091966164,80.33482874264789,3.07874045983082,1.2618965390264838,B,317,Incorrect
2,new_learn,48,512,B,71.143085425039,51.25443198384166,3.55715427125195,0.8051027349217735,B,169,Correct
2,new_learn,48,513,A,50.348699391647386,64.11574942529266,2.5174349695823692,1.0071278368695171,A,257,Incorrect
2,new_learn,48,514,A,13.66226892341697,42.38801960019043,0.6831134461708486,0.6658294548808922,B,84,Correct
2,new_learn,48,515,A,44.37581620877025,70.26194677306317,2.2187908104385126,1.1036720790458616,B,516,Correct
2,new_learn,48,516,A,46.694036275085935,67.56087290130483,2.3347018137542968,1.0612437098842649,B,462,Incorrect
2,new_learn,48,517,A,35.293770047885985,62.70861868764187,1.764688502394299,0.9850246789292966,A,237,Correct
2,new_learn,48,518,A,19.300440311856537,36.00751809039255,0.9650220155928269,0.5656047715338941,A,475,Incorrect
2,new_learn,48,519,B,65.44594313293801,49.7832507353421,3.2722971566469004,0.7819934739098471,A,238,Incorrect
2,new_learn,48,520,A,66.45798873535598,87.44628981910171,3.322899436767799,1.3736031083968692,A,258,Correct
2,new_learn,48,521,B,67.45004110413262,49.69189154392303,3.3725020552066316,0.7805584070868468,A,469,Correct
2,new_learn,48,522,A,49.5604515591323,64.30591168237427,2.4780225779566147,1.0101148986187052,B,539,Correct
2,new_learn,48,523,A,40.032166038724,48.558965731050336,2.0016083019362,0.7627624500329312,B,690,Correct
2,new_learn,48,524,A,43.62884722755586,54.147551047990795,2.181442361377793,0.8505477429112308,A,438,Incorrect
2,new_learn,48,525,A,21.281344288263472,39.837903756712265,1.0640672144131735,0.6257723288825224,B,238,Incorrect
2,new_learn,48,526,A,67.81120799608257,85.50059692708052,3.3905603998041283,1.343040235918291,A,120,Correct
2,new_learn,48,527,A,60.799435391078276,82.88094888101784,3.039971769553914,1.3018909006357844,A,122,Correct
2,new_learn,48,528,B,32.62787392852496,13.84881170989178,1.631393696426248,0.21753662564372156,B,281,Correct
2,new_learn,48,529,A,19.166214981583913,46.12266984875729,0.9583107490791957,0.7244932038040169,B,265,Correct
2,new_learn,48,530,A,46.13443441844103,60.63400765336281,2.3067217209220514,0.9524367650075595,B,338,Correct
2,new_learn,48,531,B,57.898863078132486,35.90506328484456,2.8949431539066244,0.5639954152117214,A,432,Correct
2,new_learn,48,532,A,30.225606308072983,51.21305977743474,1.5112803154036494,0.8044528618232194,A,839,Incorrect
2,new_learn,48,533,B,45.03834900286188,23.479688220774566,2.251917450143094,0.36881808011482087,A,651,Correct
2,new_learn,48,534,B,42.8899076686934,26.49571431471371,2.14449538343467,0.4161937072135925,A,50,Correct
2,new_learn,48,535,B,49.10132665027895,22.279098125137214,2.4550663325139475,0.34995925499268604,B,292,Correct
2,new_learn,48,536,A,57.031058268535844,64.89364104224256,2.8515529134267923,1.0193469298150117,B,70,Correct
2,new_learn,48,537,B,70.9291738193875,43.90050392173252,3.5464586909693754,0.689587503047024,B,197,Correct
2,new_learn,48,538,A,49.999675123730114,78.30519392761414,2.4999837561865057,1.2300151099045833,A,233,Correct
2,new_learn,48,539,B,80.89572509104103,65.99793830683936,4.044786254552052,1.0366931906841945,A,235,Incorrect
2,new_learn,48,540,A,38.77151204175538,61.70942766553386,1.9385756020877691,0.9693294230563595,A,1884,Incorrect
2,new_learn,48,541,A,38.555893163259746,65.60201364512687,1.9277946581629875,1.0304740206411398,A,336,Correct
2,new_learn,48,542,B,80.5306790769764,52.94713940192547,4.02653395384882,0.8316917208684185,A,31,Correct
2,new_learn,48,543,A,43.50232552661571,66.58237232816703,2.1751162763307854,1.0458734588237493,B,353,Correct
2,new_learn,48,544,B,63.72093214329345,54.823304298792706,3.1860466071646725,0.8611624501530245,B,398,Incorrect
2,new_learn,48,545,A,12.45321774518538,32.70425701666795,0.622660887259269,0.5137172679233823,A,47,Correct
2,new_learn,48,546,B,38.487148247190916,22.435823057589396,1.924357412359546,0.35242108447481674,A,298,Incorrect
2,new_learn,48,547,B,58.7034567655492,33.285484486214884,2.93517283827746,0.5228471676653486,A,134,Incorrect
2,new_learn,48,548,A,27.695277792062036,51.988921884428784,1.3847638896031018,0.8166400753008756,A,222,Incorrect
2,new_learn,48,549,B,38.381852167737264,13.024511240553952,1.9190926083868631,0.20458854414960992,A,220,Correct
2,new_learn,48,550,A,48.4712568067541,58.52337011267029,2.4235628403377047,0.9192829480464072,A,232,Correct
2,new_learn,48,551,A,42.903213005958804,58.75426775223306,2.14516065029794,0.9229098796873154,B,254,Correct
2,new_learn,48,552,B,64.93614024677565,38.98264173904643,3.246807012338783,0.6123379045245555,B,183,Correct
2,new_learn,48,553,A,38.40645750649233,57.529710915634695,1.9203228753246164,0.9036745858785125,B,243,Incorrect
2,new_learn,48,554,A,34.30876170056529,43.26494277356643,1.7154380850282647,0.6796041318770955,A,200,Incorrect
2,new_learn,48,555,B,82.8767688301025,60.73530351520504,4.1438384415051255,0.9540279166845724,B,434,Incorrect
2,new_learn,48,556,A,25.828848722778943,44.31571053528221,1.2914424361389474,0.6961095532812719,A,388,Correct
2,new_learn,48,557,B,48.83084316777948,21.949184699993772,2.441542158388974,0.3447769870289296,A,60,Correct
2,new_learn,48,558,B,63.912214084879764,36.613530448047946,3.1956107042439883,0.5751239913878681,B,337,Incorrect
2,new_learn,48,559,B,57.82843402175684,49.44913291233864,2.8914217010878422,0.7767451634189416,B,467,Correct
2,new_learn,48,560,A,35.721535428832496,53.036732955073234,1.786076771441625,0.8330990531103086,B,500,Incorrect
2,new_learn,48,561,A,44.88503196800037,76.0385493504911,2.244251598400018,1.1944107401456387,A,60,Incorrect
2,new_learn,48,562,A,67.48327642131534,89.00609530981055,3.3741638210657667,1.398104475750069,A,148,Correct
2,new_learn,48,563,B,72.36698533975053,51.9368497733584,3.618349266987526,0.8158221284928971,A,248,Incorrect
2,new_learn,48,564,A,50.85808809115452,65.49650686000918,2.542904404557726,1.0288167239359916,A,961,Correct
2,new_learn,48,565,A,23.252601708408573,44.78943414847297,1.1626300854204288,0.7035507863964325,A,280,Incorrect
2,new_learn,48,566,B,65.03307260818141,55.4214863403495,3.251653630409071,0.8705586716893453,A,269,Correct
2,new_learn,48,567,A,29.31058856291544,57.636405240349895,1.465529428145772,0.9053505364120373,A,299,Incorrect
2,new_learn,48,568,A,21.310018264558522,49.70556685392013,1.065500913227926,0.780773218353959,B,149,Incorrect
2,new_learn,48,569,A,31.181351621626376,42.70953173733177,1.559067581081319,0.6708797557213081,A,39,Incorrect
2,new_learn,48,570,A,60.107056808416445,86.0483742588118,3.0053528404208225,1.3516447021241411,B,67,Correct
2,new_learn,48,571,A,47.204264924834426,60.03686944203958,2.3602132462417216,0.9430569399182056,B,189,Incorrect
2,new_learn,48,572,B,48.638270203273535,27.987991521348494,2.4319135101636764,0.43963434276100927,A,243,Correct
2,new_learn,48,573,A,13.479171174303104,33.404399893181626,0.6739585587151552,0.5247150865099754,A,246,Correct
2,new_learn,48,574,B,36.560462116621466,12.169953074836009,1.8280231058310732,0.19116517587218662,B,335,Incorrect
2,new_learn,48,575,B,70.83195403831829,54.56210665144347,3.541597701915914,0.8570595671027881,A,714,Incorrect
2,new_learn,48,576,A,31.282304450511326,63.82189195254093,1.5641152225255663,1.0025119344815205,B,156,Correct
2,new_learn,48,577,B,56.80092106601437,38.43036127966793,2.8400460533007186,0.603662703355032,B,342,Incorrect
2,new_learn,48,578,B,57.26522668143368,48.765937393644265,2.863261334071684,0.7660135533064629,A,92,Correct
2,new_learn,48,579,B,73.55812272131384,42.125773215645154,3.677906136065692,0.6617100983053024,A,232,Incorrect
2,new_learn,48,580,A,50.05836259295964,69.79604074506096,2.502918129647982,1.096353644271687,B,284,Incorrect
2,new_learn,48,581,A,67.23636924281779,84.76570970880644,3.361818462140889,1.3314966544875566,A,253,Incorrect
2,new_learn,48,582,A,36.50624781477418,62.13015119532336,1.825312390738709,0.9759381328082548,A,301,Correct
2,new_learn,48,583,A,59.19548237654249,67.40141635300859,2.959774118827125,1.0587389722807936,A,338,Correct
2,new_learn,48,584,A,67.76828567654769,84.27538696423466,3.3884142838273847,1.323794682826383,B,501,Incorrect
2,new_learn,48,585,B,61.46850415718506,30.032441997022723,3.0734252078592528,0.47174849573604083,A,357,Correct
2,new_learn,48,586,B,52.44902154936347,31.988633572509393,2.622451077468174,0.5024762811488567,A,405,Incorrect
2,new_learn,48,587,A,22.56613643994824,51.67999678158841,1.128306821997412,0.8117874911329114,A,657,Correct
2,new_learn,48,588,A,25.236527383013115,41.87592307834322,1.2618263691506557,0.6577854615260716,A,376,Correct
2,new_learn,48,589,B,60.57133172587048,31.688285593984233,3.028566586293524,0.49775842613458077,B,530,Correct
2,new_learn,48,590,A,47.061400413414646,63.8280697256113,2.3530700206707325,1.0026089747139877,B,500,Correct
2,new_learn,48,591,B,75.3593381712956,49.27513652716434,3.76796690856478,0.7740120345918678,B,476,Correct
2,new_learn,48,592,B,58.779401872795276,44.48360021399803,2.938970093639764,0.6987467581876078,A,377,Incorrect
2,new_learn,48,593,B,58.44162899368948,41.04745847391736,2.922081449684474,0.6447719699509543,B,616,Correct
2,new_learn,48,594,B,66.52169300313878,45.767378626873324,3.326084650156939,0.7189123023412388,B,700,Incorrect
2,new_learn,48,595,B,31.50700340189334,11.780949271563113,1.5753501700946668,0.18505471841928348,A,475,Incorrect
2,new_learn,48,596,B,78.02058891008605,49.438178895942116,3.9010294455043026,0.7765730981317486,B,550,Correct
2,new_learn,48,597,A,10.6383582993871,31.037347262211178,0.531917914969355,0.48753351072938955,A,360,Incorrect
2,new_learn,48,598,A,48.14102170461733,72.18547145570614,2.407051085230867,1.1338867341058108,A,518,Correct
2,new_learn,48,599,B,43.48041401462828,16.96717238406323,2.174020700731414,0.26651972056982326,B,1086,Incorrect
2,new_learn,48,600,A,74.76280255413369,46.791233728901524,3.7381401277066844,0.7349949806755998,B,269,Incorrect
2,new_learn,48,601,B,27.193519144538655,55.558974399614385,1.3596759572269326,0.8727183290740597,A,522,Incorrect
2,new_learn,48,602,A,71.42355700194112,51.31372588749373,3.571177850097056,0.8060341213823534,B,279,Incorrect
2,new_learn,48,603,A,44.066019723330655,84.0214958626564,2.203300986166533,1.3198065707287328,A,356,Correct
2,new_learn,48,604,B,40.51176137696816,41.89467386216595,2.0255880688484083,0.6580799981496045,A,341,Incorrect
2,new_learn,48,605,B,46.62163879081919,30.82898387588638,2.3310819395409594,0.48426054631061416,B,409,Correct
2,new_learn,48,606,A,57.2321799107353,67.22144113020077,2.8616089955367645,1.0559119280917875,B,423,Incorrect
2,new_learn,48,607,B,36.65007610751096,34.454431530586405,1.832503805375548,0.5412089449005139,B,405,Correct
2,new_learn,48,608,B,28.04739868041453,59.16461592985087,1.4023699340207265,0.9293556137884056,A,898,Incorrect
2,new_learn,48,609,A,41.599612729167035,80.60564358310708,2.0799806364583517,1.266150488592832,B,426,Incorrect
2,new_learn,48,610,A,81.90151644228615,44.21465412670204,4.095075822114308,0.6945221629273038,B,569,Incorrect
2,new_learn,48,611,A,71.15376517256756,57.87966041745931,3.557688258628378,0.9091715797988106,B,438,Incorrect
2,new_learn,48,612,B,54.02308715604858,17.777650909723278,2.7011543578024293,0.27925068748035276,A,563,Incorrect
2,new_learn,48,613,A,64.89364104224256,42.968941731464156,3.244682052112128,0.6749545583804785,B,511,Incorrect
2,new_learn,48,614,A,49.26713384052948,77.7425334511894,2.463356692026474,1.2211768598085768,A,337,Correct
2,new_learn,48,615,B,28.738898464213747,54.571958718401774,1.4369449232106875,0.8572143230086823,A,432,Incorrect
2,new_learn,48,616,B,37.736543313771556,46.90716550360111,1.8868271656885778,0.7368160327341691,A,599,Incorrect
2,new_learn,48,617,A,57.79759905586143,51.016354513898875,2.8898799527930716,0.8013630227689859,A,439,Correct
2,new_learn,48,618,B,56.36618670093429,18.481372521138724,2.8183093350467145,0.2903047207033284,B,539,Correct
2,new_learn,48,619,A,70.99116720093436,53.54929478744779,3.5495583600467175,0.8411503555458009,B,464,Incorrect
2,new_learn,48,620,B,59.054944385834254,14.914350045452494,2.952747219291713,0.23427406267930076,A,626,Incorrect
2,new_learn,48,621,B,42.41147135686962,49.67528783027022,2.120573567843481,0.7802975965626769,B,603,Correct
2,new_learn,48,622,B,22.435823057589396,61.512851752809084,1.12179115287947,0.9662416158399152,B,725,Correct
2,new_learn,48,623,B,30.12899358113863,60.3150945923409,1.5064496790569313,0.9474272903593582,B,534,Correct
2,new_learn,48,624,B,38.52249752676843,48.04757768774524,1.9261248763384216,0.7547295854330266,B,408,Correct
2,new_learn,48,625,B,54.232455191381625,36.23724658099975,2.711622759569081,0.5692133382259533,A,909,Incorrect
2,new_learn,48,626,A,67.5088800219422,52.091766452759124,3.3754440010971103,0.8182555540025165,A,672,Correct
2,new_learn,48,627,B,58.389782620346445,26.047657504553428,2.9194891310173223,0.4091556472976405,B,876,Correct
2,new_learn,48,628,A,66.93843887522365,63.599002215989074,3.3469219437611826,0.9990107906869612,B,786,Incorrect
2,new_learn,48,629,B,27.81568685035178,58.56247317756978,1.390784342517589,0.9198971775535126,B,818,Correct
2,new_learn,48,630,A,66.12998768361805,58.12130243469678,3.306499384180903,0.9129672837295697,B,1130,Incorrect
2,new_learn,48,631,B,54.572000150152775,35.05553139867138,2.728600007507639,0.5506509995487616,B,1142,Correct
2,new_learn,48,632,B,56.447584807590275,34.752367924978316,2.8223792403795134,0.5458889188398072,A,643,Incorrect
2,new_learn,48,633,B,32.25547295821667,50.29572355726481,1.6127736479108337,0.7900433781724309,B,674,Correct
2,new_learn,48,634,A,88.14378440033491,34.822620120157126,4.407189220016745,0.5469924377411688,A,1409,Correct
2,new_learn,48,635,A,32.717126447398684,88.86374529982884,1.6358563223699343,1.3958684470220837,B,1055,Incorrect
2,new_learn,48,636,A,57.140423212045015,54.60109416148523,2.8570211606022506,0.8576719814784327,B,480,Incorrect
2,new_learn,48,637,B,34.920586962388725,38.71088620992828,1.7460293481194362,0.6080691786553056,A,657,Incorrect
2,new_learn,48,638,B,43.24996285478679,26.716824957539444,2.1624981427393393,0.41966690506925175,B,61,Correct
2,new_learn,48,639,B,22.0356379236168,65.63319926641314,1.10178189618084,1.0309638832347927,A,936,Incorrect
2,new_learn,48,640,B,47.53245233443102,22.577244849919893,2.376622616721551,0.35464253279403163,B,762,Correct
2,new_learn,48,641,B,19.524939708155728,60.10354510278822,0.9762469854077864,0.9441042787481114,B,629,Correct
2,new_learn,48,642,A,59.123165342537625,54.4252798251249,2.9561582671268813,0.854910296340906,B,529,Incorrect
2,new_learn,48,643,B,32.05168306018593,35.91546339943777,1.6025841530092964,0.5641587798297341,A,915,Incorrect
2,new_learn,48,644,A,61.99327604869525,61.94083882367002,3.0996638024347622,0.9729644210281558,B,619,Incorrect
2,new_learn,48,645,A,81.26985443316755,42.861983050242216,4.063492721658378,0.6732744553446559,A,2776,Correct
2,new_learn,48,646,A,50.65286920138951,59.598322780792024,2.532643460069475,0.9361682650720471,B,519,Incorrect
2,new_learn,48,647,A,52.629977694754956,58.79062166814468,2.631498884737748,0.9234809256631011,A,274,Correct
2,new_learn,48,648,B,45.605685692025354,26.194954271375536,2.280284284601268,0.4114693795003698,A,133,Incorrect
2,new_learn,48,649,A,65.61225493669151,55.243087844365576,3.2806127468345756,0.8677563946673724,B,745,Incorrect
2,new_learn,48,650,B,17.282667660665034,55.45183065318691,0.8641333830332516,0.8710353190407866,B,472,Correct
2,new_learn,48,651,A,78.19882263846323,36.43129835032249,3.9099411319231616,0.5722614962905556,A,575,Correct
2,new_learn,48,652,B,36.613530448047946,36.087785915120236,1.8306765224023973,0.5668656155763148,B,695,Correct
2,new_learn,48,653,B,60.195135178198456,20.838482063646325,3.0097567589099232,0.32733011081556984,B,624,Correct
2,new_learn,48,654,A,52.194951430748496,56.9638424257355,2.6097475715374245,0.8947859444246861,B,1440,Incorrect
2,new_learn,48,655,A,47.76164911696947,73.8412174917595,2.3880824558484735,1.1598951320211888,A,641,Correct
2,new_learn,48,656,B,47.066008280175474,25.65758474880417,2.353300414008774,0.4030283987785035,B,715,Correct
2,new_learn,48,657,B,50.73661619896288,23.758110222092228,2.536830809948144,0.3731915226845075,A,893,Incorrect
2,new_learn,48,658,A,42.28254577007512,75.24539106526126,2.114127288503756,1.181951838935579,B,417,Incorrect
2,new_learn,48,659,A,51.67999678158841,77.43386356005176,2.5839998390794205,1.216328284496665,A,521,Correct
2,new_learn,48,660,A,34.251111184305444,87.40777358432953,1.7125555592152721,1.3729980967958482,A,540,Correct
2,new_learn,48,661,A,75.80504616529082,38.52236749618871,3.790252308264541,0.6051079336245633,B,592,Incorrect
2,new_learn,48,662,B,36.988176243434694,52.88594025312098,1.8494088121717345,0.8307304068869681,B,643,Correct
2,new_learn,48,663,B,43.76652461246214,40.27014956025196,2.1883262306231073,0.6325620300872489,B,1082,Correct
2,new_learn,48,664,B,41.935655422641446,43.335892678810474,2.096782771132072,0.6807186103825335,B,481,Correct
2,new_learn,48,665,B,36.51523950427855,33.71400723484375,1.8257619752139274,0.5295783872602913,B,425,Correct
2,new_learn,48,666,A,68.6041572588873,57.02079469724959,3.430207862944365,0.8956805486136558,A,705,Correct
2,new_learn,48,667,A,61.70942766553386,61.22848795824462,3.085471383276693,0.961774839800162,A,558,Correct
2,new_learn,48,668,B,36.08384331798548,41.23120280294158,1.8041921658992743,0.6476582191219608,B,576,Correct
2,new_learn,48,669,A,77.79850973195835,44.88822923094426,3.8899254865979174,0.7051026559229455,A,594,Correct
2,new_learn,48,670,A,38.78232455541518,87.1768108586223,1.939116227770759,1.3693701427841736,B,1418,Incorrect
2,new_learn,48,671,B,48.225880041157815,35.57672951709567,2.4112940020578906,0.5588379604482945,A,1118,Incorrect
2,new_learn,48,672,A,55.57948244147092,75.40645965342985,2.7789741220735458,1.1844818984021517,B,522,Incorrect
2,new_learn,48,673,A,63.46270916547267,52.892934957389905,3.173135458273633,0.8308402794446945,B,1102,Incorrect
2,new_learn,48,674,A,68.17369803028593,59.34676587652974,3.408684901514297,0.9322168184600961,B,678,Incorrect
2,new_learn,48,675,B,45.78963567552268,36.443798501965674,2.289481783776134,0.5724578482134104,A,980,Incorrect
2,new_learn,48,676,A,42.9110646095593,76.61339990778697,2.1455532304779648,1.2034404715842024,A,496,Correct
2,new_learn,48,677,B,25.856528992588213,48.45185705631403,1.2928264496294108,0.7610799909044945,A,642,Incorrect
2,new_learn,48,678,B,55.69865950986524,26.894070703316046,2.784932975493262,0.42245107473331084,A,687,Incorrect
2,new_learn,48,679,A,65.60201364512687,61.444106836740254,3.280100682256344,0.9651617732234476,B,667,Incorrect
2,new_learn,48,680,A,41.37179250480549,77.61363895814961,2.0685896252402745,1.2191521898464668,B,641,Incorrect
2,new_learn,48,681,B,31.029358350064946,58.6786497546378,1.5514679175032473,0.9217220749586932,B,611,Correct
2,new_learn,48,682,A,72.06825180400685,47.30189416045576,3.603412590200343,0.7430164159768486,A,714,Correct
2,new_learn,48,683,A,71.49003373804149,41.237844688869615,3.574501686902074,0.6477625496221483,B,957,Incorrect
2,new_learn,48,684,A,65.49650686000918,49.14191190884548,3.2748253430004586,0.7719193471809286,A,395,Correct
2,new_learn,48,685,B,21.97090602315008,56.1260428637329,1.098545301157504,0.8816258196788455,A,608,Incorrect
2,new_learn,48,686,A,56.68357173320915,58.68805985896395,2.834178586660457,0.9218698885317959,A,587,Correct
2,new_learn,48,687,A,53.75660862944449,66.92898058269333,2.687830431472225,1.0513179685542164,B,789,Incorrect
2,new_learn,48,688,B,35.50068789306021,54.32901500286162,1.7750343946530105,0.8533981720487985,B,703,Correct
2,new_learn,48,689,B,65.50010191043665,22.920520046560867,3.275005095521833,0.3600346869736661,A,3023,Incorrect
2,new_learn,48,690,A,64.9814660472308,60.26203641856232,3.24907330236154,0.9465938545145798,A,774,Correct
2,new_learn,48,691,B,53.49504121760217,28.714220094606816,2.6747520608801083,0.4510419145138859,B,520,Correct
2,new_learn,48,692,B,27.987991521348494,51.361729796726465,1.3993995760674247,0.8067881650252992,A,720,Incorrect
2,new_learn,48,693,A,80.33482874264789,38.4251908033836,4.016741437132395,0.60358148570348,A,487,Correct
2,new_learn,48,694,A,31.037347262211178,89.36164170061289,1.5518673631105588,1.4036893853968437,B,407,Incorrect
2,new_learn,48,695,A,78.30778434010675,36.53950079332611,3.9153892170053375,0.5739611362907587,A,485,Correct
2,new_learn,48,696,B,41.79476164807897,45.89606571034357,2.0897380824039486,0.7209337143214489,A,544,Incorrect
2,new_learn,48,697,A,43.470576516207245,72.49643777297845,2.1735288258103624,1.1387713815950935,B,232,Incorrect
2,new_learn,48,698,A,36.4042116202372,88.28695586666234,1.8202105810118598,1.3868082597925633,B,395,Incorrect
2,new_learn,48,699,B,17.119701199446155,59.71402234567934,0.8559850599723078,0.9379856695874148,A,459,Incorrect
2,new_learn,48,700,A,69.90509179795956,45.50650570050952,3.495254589897978,0.7148145199963137,A,997,Correct
2,new_learn,48,701,A,66.85434938531485,42.518861449173016,3.342717469265742,0.6678847138386211,107,289,Incorrect
2,new_learn,48,702,A,62.61441757529326,69.96783974159501,3.130720878764663,1.0990522565987142,A,103,Correct
2,new_learn,48,703,A,78.1621777850586,49.73645355725295,3.90810888925293,0.7812583855553791,A,1128,Correct
2,new_learn,48,704,B,29.0126908170566,53.283829442285764,1.45063454085283,0.8369804356550825,B,280,Correct
2,new_learn,48,705,B,41.87402701622676,46.60162187131479,2.093701350811338,0.7320165645814598,A,367,Incorrect
2,new_learn,48,706,A,31.022320819763525,85.44189896146278,1.5511160409881761,1.3421182104304643,B,53,Incorrect
2,new_learn,48,707,B,37.91249248151317,48.72438256318477,1.8956246240756585,0.7653608115559993,B,120,Correct
2,new_learn,48,708,A,46.159096602505954,64.20422484483873,2.3079548301252975,1.0085176055098632,A,258,Correct
2,new_learn,48,709,B,51.98667250478102,39.259027706299555,2.599333625239051,0.616679365145944,A,402,Incorrect
2,new_learn,48,710,A,84.80914082887567,35.659103548049615,4.240457041443784,0.5601318887007519,B,196,Incorrect
2,new_learn,48,711,B,65.80431932055517,17.881468417212474,3.2902159660277586,0.2808814490745631,A,224,Incorrect
2,new_learn,48,712,B,50.841219948529854,31.663293561349192,2.5420609974264927,0.49736585220395807,B,587,Correct
2,new_learn,48,713,A,53.48328307439116,61.94090305746365,2.6741641537195577,0.9729654300102268,A,612,Correct
2,new_learn,48,714,B,30.051070702957325,38.13919245101143,1.5025535351478663,0.5990890340897241,A,1078,Incorrect
2,new_learn,48,715,A,44.78943414847297,76.74739829159142,2.2394717074236485,1.2055453132749674,A,570,Correct
2,new_learn,48,716,A,49.70556685392013,78.68998173544148,2.4852783426960063,1.2360593426558897,A,669,Correct
2,new_learn,48,717,A,60.47641166669899,59.06887831256623,3.02382058333495,0.9278517708127375,A,464,Correct
2,new_learn,48,718,A,51.28440491277313,66.29543661704994,2.5642202456386567,1.0413662832132593,B,964,Incorrect
2,new_learn,48,719,B,45.85370147595238,46.958624113197814,2.292685073797619,0.7376243426835338,B,367,Correct
2,new_learn,48,720,B,59.565407201864055,28.980009776329084,2.978270360093203,0.4552169290713792,B,823,Correct
2,new_learn,48,721,A,74.12058962420491,37.22440662702882,3.7060294812102454,0.5847196119685647,B,458,Incorrect
2,new_learn,48,722,A,48.525737399686676,72.67000980395571,2.4262868699843336,1.1414978446820276,A,549,Correct
2,new_learn,48,723,B,60.60554615289516,17.354828930495273,3.030277307644758,0.2726090153617578,A,910,Incorrect
2,new_learn,48,724,A,69.60853972719441,63.52820737401046,3.4804269863597206,0.9978987479096009,B,861,Incorrect
2,new_learn,48,725,B,42.08104093594841,50.641629331191375,2.1040520467974204,0.7954768533634411,A,831,Incorrect
2,new_learn,48,726,A,60.31242443142409,70.0742984081661,3.015621221571205,1.100724505422768,B,762,Incorrect
2,new_learn,48,727,B,58.02200917517406,23.364729916125924,2.901100458758703,0.36701231928805433,B,338,Correct
2,new_learn,48,728,A,61.29283665402132,62.174317790933635,3.0646418327010663,0.9766319000697714,A,872,Correct
2,new_learn,48,729,A,53.817993356496345,56.110515509648,2.690899667824817,0.8813819165712315,A,585,Correct
2,new_learn,48,730,B,52.21844168329457,19.68110607747643,2.610922084164729,0.30915009133760685,A,378,Incorrect
2,new_learn,48,731,B,21.561734852237255,47.096070191631725,1.0780867426118628,0.7397833406348975,A,671,Incorrect
2,new_learn,48,732,B,36.00483986993941,35.602553893181636,1.8002419934969707,0.5592436087992705,B,278,Correct
2,new_learn,48,733,A,82.57054908990227,31.453961145616887,4.128527454495114,0.4940776663068441,B,441,Incorrect
2,new_learn,48,734,B,24.253073280589874,49.737425060590134,1.2126536640294936,0.7812736458941143,B,188,Correct
2,new_learn,48,735,B,59.84006962160801,15.282332657879508,2.9920034810804004,0.2400543200385482,A,342,Incorrect
2,new_learn,48,736,A,36.27811565672771,85.30782917547712,1.8139057828363854,1.3400122471568598,B,467,Incorrect
2,new_learn,48,737,B,46.18872799276305,28.786987392590916,2.3094363996381526,0.452184940557728,A,453,Incorrect
2,new_learn,48,738,A,77.80888522802054,49.35679688918165,3.890444261401027,0.7752947525588832,A,364,Correct
2,new_learn,48,739,B,52.13088450431129,31.38664648848686,2.6065442252155644,0.49302029014525095,A,508,Incorrect
2,new_learn,48,740,A,59.38841582512567,70.56122207544804,2.9694207912562836,1.1083730845027273,B,450,Incorrect
2,new_learn,48,741,B,28.632480423272227,46.58732340128444,1.4316240211636113,0.7317919647394354,B,534,Correct
2,new_learn,48,742,A,83.73239894479667,42.37526421150021,4.1866199472398336,0.6656290937038777,B,533,Incorrect
2,new_learn,48,743,B,52.4081541793035,19.52564761773465,2.620407708965175,0.3067081555622911,B,502,Correct
2,new_learn,48,744,A,49.625007896973216,59.83023284536268,2.4812503948486606,0.9398110998477907,A,558,Correct
2,new_learn,48,745,A,59.39029246821449,52.21309101085846,2.9695146234107246,0.8201613157046411,A,492,Correct
2,new_learn,48,746,A,84.76570970880644,32.76363075718221,4.238285485440322,0.5146499084584611,A,5295,Correct
2,new_learn,48,747,A,53.17912108877238,60.68617944540885,2.6589560544386193,0.9532562776006417,B,3274,Incorrect
2,new_learn,48,748,B,30.032441997022723,38.53149584281494,1.501622099851136,0.6052513213580653,A,3355,Incorrect
2,new_learn,48,749,B,42.90268991017826,46.91689307309159,2.145134495508913,0.736968833038412,A,508,Incorrect
2,new_learn,48,750,A,63.06585816630079,68.08008604339045,3.1532929083150396,1.0693994908483822,B,369,Incorrect
2,new_learn,48,751,A,44.75835726458729,71.67933113099525,2.2379178632293644,1.1259363004768241,B,431,Incorrect
2,new_learn,48,752,B,49.44160104823024,30.602327511407893,2.472080052411512,0.4807002364629393,A,478,Incorrect
2,new_learn,48,753,A,62.5359527850121,47.50925446073892,3.126797639250605,0.7462736239569275,B,81,Incorrect
2,new_learn,48,754,A,72.29893831658327,41.09633189267518,3.614946915829164,0.6455396718175813,A,67,Correct
2,new_learn,48,755,A,81.49535192329003,34.09056153684489,4.074767596164502,0.5354932884045133,A,170,Correct
2,new_learn,48,756,B,26.5538844454315,51.49654175897399,1.3276942222715749,0.8089057863763635,B,308,Correct
2,new_learn,48,757,A,54.73008290473497,53.32020604219862,2.7365041452367485,0.8375518379503264,B,765,Incorrect
2,new_learn,48,758,B,66.28035611141613,16.144531254468234,3.3140178055708067,0.25359770392344105,B,590,Correct
2,new_learn,48,759,B,33.285484486214884,41.2965432344508,1.6642742243107442,0.6486845842200195,B,554,Correct
2,new_learn,48,760,B,32.98731820347295,56.195883186836774,1.6493659101736478,0.8827228689087829,B,417,Correct
2,new_learn,48,761,A,62.16446472669329,57.79319281893425,3.1082232363346645,0.9078133499373112,A,601,Correct
2,new_learn,48,762,B,42.49343446707978,46.41937169682765,2.1246717233539893,0.7291537855350387,B,621,Correct
2,new_learn,48,763,A,59.868608559813396,64.75923558398841,2.99343042799067,1.0172356938137435,A,634,Correct
2,new_learn,48,764,A,62.040016784762216,64.02688344887606,3.1020008392381104,1.0057319333761947,A,628,Correct
2,new_learn,48,765,A,86.0483742588118,39.892943191583555,4.30241871294059,0.6266368863037692,A,715,Correct
2,new_learn,48,766,B,52.42385388423897,18.00342767490315,2.6211926942119486,0.28279718061455456,B,560,Correct
2,new_learn,48,767,A,66.58237232816703,56.49767447338429,3.3291186164083513,0.8874633953524584,B,662,Incorrect
2,new_learn,48,768,B,51.347197609244844,33.3082503913016,2.5673598804622424,0.5232047736662123,B,504,Correct
2,new_learn,48,769,B,49.69189154392303,32.54995889586738,2.4845945771961513,0.5112935587095334,B,1029,Correct
2,new_learn,48,770,B,29.85566947950869,52.250700392018395,1.4927834739754346,0.8207520824824315,A,611,Incorrect
2,new_learn,48,771,A,67.08048394620266,48.07565673905353,3.354024197310133,0.755170650139576,B,262,Incorrect
2,new_learn,48,772,B,14.677314122481114,60.34992367843689,0.7338657061240557,0.9479743843644103,A,200,Incorrect
2,new_learn,48,773,A,75.87912723804799,52.48452965137142,3.7939563619023993,0.8244250638993205,B,344,Incorrect
2,new_learn,48,774,B,23.145415211868517,60.73824446667451,1.1572707605934258,0.9540741130422277,A,110,Incorrect
2,new_learn,48,775,A,34.875639760575666,79.6413060161796,1.7437819880287833,1.251002709513632,A,420,Correct
2,new_learn,48,776,B,32.301462375971255,57.46870237388259,1.6150731187985627,0.9027162659456393,A,296,Incorrect
2,new_learn,48,777,B,42.54064631598397,32.992773664502465,2.1270323157991986,0.5182492768297587,A,240,Incorrect
2,new_learn,48,778,B,41.25857205433876,51.35645517440882,2.0629286027169376,0.8067053114516813,B,400,Correct
2,new_learn,48,779,B,40.23952028854146,42.82257011423737,2.011976014427073,0.6726553583936098,B,129,Correct
2,new_learn,48,780,B,54.823304298792706,36.27906785670655,2.7411652149396355,0.5698702652885745,B,392,Correct
2,new_learn,48,781,A,72.18547145570614,51.85897829538267,3.6092735727853067,0.8145989261772338,B,379,Incorrect
2,new_learn,48,782,A,59.65891752790934,66.93097146050478,2.9829458763954673,1.0513492411897496,B,427,Incorrect
2,new_learn,48,783,B,63.15065000028093,20.663969363124167,3.157532500014047,0.3245888717259772,A,995,Incorrect
2,new_learn,48,784,B,57.283102040765435,19.283013475138546,2.864155102038272,0.3028968673628412,B,374,Correct
2,new_learn,48,785,B,22.483964316251868,66.1567299103226,1.1241982158125934,1.039187483358968,B,376,Correct
2,new_learn,48,786,A,48.558965731050336,59.967833961276,2.4279482865525166,0.9419725331221858,A,459,Correct
2,new_learn,48,787,A,54.88390405131605,62.857451744210856,2.7441952025658027,0.9873625431149388,A,387,Correct
2,new_learn,48,788,A,79.04052052798954,38.19897848960447,3.9520260263994773,0.6000281509878798,A,1569,Correct
2,new_learn,48,789,A,89.00609530981055,32.51672357868466,4.450304765490528,0.5107714995680287,A,480,Correct
2,new_learn,48,790,B,17.324069833387483,63.226759818263076,0.8662034916693742,0.993163620776708,B,929,Correct
2,new_learn,48,791,B,29.894927377477085,59.24598463627595,1.4947463688738543,0.9306337504400913,B,1012,Correct
2,new_learn,48,792,B,32.41266989970998,54.96570038030009,1.620633494985499,0.8633992025708424,B,749,Correct
2,new_learn,48,793,B,59.445940534367764,15.80713930663127,2.972297026718388,0.24829796359991632,A,1193,Incorrect
2,new_learn,48,794,A,44.31571053528221,74.17115127722106,2.2157855267641104,1.1650777198040745,A,1445,Correct
2,new_learn,48,795,B,44.493797463178005,42.209007020051324,2.2246898731589,0.6630175318475663,B,698,Correct
2,new_learn,48,796,B,34.50954584298261,50.13624016242976,1.7254772921491306,0.7875382188645145,A,1078,Incorrect
2,new_learn,48,797,A,42.3499778087005,82.95401361339634,2.1174988904350247,1.3030385987681683,B,795,Incorrect
2,new_learn,48,798,B,44.39342230355816,35.2669624322004,2.219671115177908,0.55397215045714,A,769,Incorrect
2,new_learn,48,799,A,60.30610912366657,70.8379075879937,3.015305456183329,1.1127192503705683,A,480,Correct
2,new_learn,48,800,B,46.74359142765503,25.54787965653945,2.3371795713827517,0.4013051552189023,B,411,Correct
2,new_learn,48,801,B,20.979706805848,58.404580363221626,1.0489853402923999,0.9174170030254587,B,992,Correct
2,new_learn,48,802,A,73.25422165780398,47.376802500821455,3.6627110828901994,0.7441930734357762,A,2419,Correct
2,new_learn,48,803,B,36.39527906402886,41.90157243749006,1.8197639532014431,0.6581883607173966,B,578,Correct
2,new_learn,48,804,A,34.492277760146706,77.62237625144428,1.7246138880073352,1.2192894349286008,B,505,Incorrect
2,new_learn,48,805,A,58.217338305459876,69.85541885416662,2.910866915272994,1.0972863534284387,B,1377,Incorrect
2,new_learn,48,806,B,34.49062044597115,38.550721585681245,1.7245310222985577,0.6055533186208084,B,277,Correct
2,new_learn,48,807,A,69.91053917136558,43.63715727187645,3.4955269585682793,0.6854508635443473,A,331,Correct
2,new_learn,48,808,A,49.26634417469373,63.309655887324155,2.4633172087346864,0.9944657491845768,A,410,Correct
2,new_learn,48,809,A,43.672317863201485,78.47676519456415,2.1836158931600744,1.2327101450636695,A,359,Correct
2,new_learn,48,810,B,38.355329577379955,46.435992491847884,1.9177664788689979,0.7294148643727005,B,610,Correct
2,new_learn,48,811,B,58.01096957098538,24.611573097291824,2.900548478549269,0.386597686178701,100,534,Incorrect
2,new_learn,48,812,A,69.03006358100409,54.29325136315281,3.451503179050204,0.8528363981099244,A,271,Correct
2,new_learn,48,813,A,65.5094533613821,63.49842418916182,3.275472668069105,0.9974309147359959,B,121,Incorrect
2,new_learn,48,814,A,51.21305977743474,69.77439369192702,2.560652988871737,1.0960136131561995,A,250,Correct
2,new_learn,48,815,A,67.11472161821199,50.57260320249372,3.3557360809105994,0.7943925934693296,A,454,Correct
2,new_learn,48,816,A,47.44256463590473,82.77822560782974,2.3721282317952364,1.300277327233782,B,511,Incorrect
2,new_learn,48,817,A,63.20898280497644,51.31341000107122,3.1604491402488226,0.8060291594500316,A,240,Correct
2,new_learn,48,818,B,17.84302519699004,63.21039475381792,0.892151259849502,0.9929065589455259,B,433,Correct
2,new_learn,48,819,B,42.125773215645154,26.441877278686164,2.1062886607822575,0.41534803702921663,A,458,Incorrect
2,new_learn,48,820,B,53.69920025561787,18.04202426722493,2.6849600127808935,0.28340345446901305,B,426,Correct
2,new_learn,48,821,B,38.686977321437936,49.33110932423554,1.934348866071897,0.7748912532322666,A,454,Incorrect
2,new_learn,48,822,A,69.14365344322238,45.10505231645054,3.4571826721611187,0.7085085049857215,B,416,Incorrect
2,new_learn,48,823,B,11.639832782350453,65.38830507570235,0.5819916391175226,1.0271170942825734,A,811,Incorrect
2,new_learn,48,824,B,17.00735981668975,66.0222053998811,0.8503679908344876,1.0370743772903142,A,497,Incorrect
2,new_learn,48,825,B,15.536205443131088,60.64641908868569,0.7768102721565543,0.9526317233777136,B,372,Correct
2,new_learn,48,826,B,59.99025133204684,15.364395591617395,2.999512566602342,0.24134336158736308,A,1298,Incorrect
2,new_learn,48,827,A,47.28101435698848,63.53600593009834,2.3640507178494237,0.9980212473421723,A,773,Correct
2,new_learn,48,828,A,50.07115176238153,74.12184206537711,2.503557588119077,1.1643031725156583,B,706,Incorrect
2,new_learn,48,829,A,71.45984178502637,54.25919926025259,3.5729920892513185,0.8523015089283714,B,509,Incorrect
2,new_learn,48,830,A,68.47175668899025,51.13884910838884,3.4235878344495125,0.8032871633597566,A,651,Correct
2,new_learn,48,831,A,42.281340746817044,75.9572948426584,2.114067037340852,1.1931343973212476,A,399,Correct
2,new_learn,48,832,B,30.229911632683958,57.39355532240707,1.5114955816341977,0.9015358588213671,A,437,Incorrect
2,new_learn,48,833,B,30.066037245958135,38.93212222777647,1.5033018622979069,0.6115443458972122,B,332,Correct
2,new_learn,48,834,A,41.21428062690808,72.64910314121146,2.060714031345404,1.1411694435915853,B,369,Incorrect
2,new_learn,48,835,B,48.12690387889913,39.915666944375765,2.4063451939449565,0.6269938301779392,B,334,Correct
2,new_learn,48,836,A,57.23743941316763,73.37178425248585,2.861871970658381,1.152521291941924,A,625,Correct
2,new_learn,48,837,B,62.818582919333025,11.674292552870583,3.1409291459666515,0.18337935859978127,B,631,Correct
2,new_learn,48,838,B,43.413574290092726,42.576523437004404,2.1706787145046365,0.6687904662254334,B,1146,Correct
2,new_learn,48,839,B,23.841639192415663,52.285691547501216,1.1920819596207832,0.8213017222674588,B,988,Correct
2,new_learn,48,840,A,79.31643587399967,37.68587579429772,3.9658217936999836,0.5919683526973157,B,1100,Incorrect
2,new_learn,48,841,A,87.44628981910171,33.54201126464402,4.372314490955086,0.5268766808781586,B,725,Incorrect
2,new_learn,48,842,B,53.581072490944734,35.64781698901952,2.6790536245472367,0.5599545998460856,A,1466,Incorrect
2,new_learn,48,843,B,65.99793830683936,19.10427490895897,3.2998969153419684,0.30008924853072655,B,610,Correct
2,new_learn,48,844,A,72.75622265601656,58.97539012837138,3.6378111328008282,0.9263832618494175,B,1012,Incorrect
2,new_learn,48,845,B,31.36183049054,57.47007749485145,1.568091524527,0.9027378662953072,B,1080,Correct
2,new_learn,48,846,B,45.50720997688509,37.03228641126139,2.275360498844255,0.5817017946762596,A,671,Incorrect
2,new_learn,48,847,A,58.83119622732182,65.84563302372824,2.941559811366091,1.0343007848915706,A,455,Correct
2,new_learn,48,848,B,34.529831597564694,40.991924927298285,1.7264915798782345,0.643899651040523,B,785,Correct
2,new_learn,48,849,B,16.957779728807893,64.48030815023023,0.8478889864403947,1.0128543119298468,B,932,Correct
2,new_learn,48,850,A,81.39547629545999,35.81077267761866,4.069773814772999,0.5625143018169042,A,714,Correct
2,new_learn,48,851,B,29.430241476375297,51.80598097184796,1.4715120738187648,0.8137664461658509,B,1298,Correct
2,new_learn,48,852,B,37.27073171920867,52.647229977200254,1.8635365859604334,0.8269807546411234,B,458,Correct
2,new_learn,48,853,B,34.13100742913939,40.27045703335112,1.7065503714569694,0.6325668598633966,A,389,Incorrect
2,new_learn,48,854,A,44.56237722396028,80.51465846727639,2.228118861198014,1.2647212977354336,A,231,Correct
2,new_learn,48,855,A,41.74044174938243,76.13754373581514,2.0870220874691214,1.195965740314042,A,227,Correct
2,new_learn,48,856,A,51.36628022533193,72.48797958581831,2.568314011266596,1.1386385207018686,B,247,Incorrect
2,new_learn,48,857,A,35.914361412613644,78.2396938600668,1.7957180706306821,1.2289862372495013,B,222,Incorrect
2,new_learn,48,858,B,27.26470347410679,60.44007948755529,1.3632351737053394,0.9493905485024342,B,368,Correct
2,new_learn,48,859,B,52.50998282529,33.696788293135654,2.6254991412645,0.5293079127564276,B,523,Correct
2,new_learn,48,860,B,12.797715134765511,66.86603333232596,0.6398857567382755,1.0503291954576275,A,365,Incorrect
2,new_learn,48,861,B,59.37128287536896,19.357318624170375,2.968564143768448,0.3040640499144527,A,401,Incorrect
2,new_learn,48,862,A,73.08098055584551,57.444618652231675,3.6540490277922753,0.9023379597305913,B,268,Incorrect
2,new_learn,48,863,B,50.01943370866669,37.97192800211444,2.5009716854333344,0.5964616502704164,B,216,Correct
2,new_learn,48,864,B,51.25443198384166,28.856914574960996,2.5627215991920833,0.4532833541698285,B,174,Correct
2,new_learn,48,865,B,67.81242368459445,12.424490189149353,3.390621184229723,0.19516343551415033,A,904,Incorrect
2,new_learn,48,866,A,71.27061583224396,43.85160855922288,3.563530791612198,0.6888194564887494,B,992,Incorrect
2,new_learn,48,867,A,81.31168430847826,38.24127116929539,4.065584215423914,0.6006924828469677,B,284,Incorrect
2,new_learn,48,868,B,55.84035809192156,26.89162027347524,2.7920179045960776,0.4224125834713808,A,685,Incorrect
2,new_learn,48,869,A,60.86826486740119,47.70591018375604,3.0434132433700594,0.7493626848305124,A,397,Correct
2,new_learn,48,870,B,17.793727956533964,55.02185289612115,0.8896863978266981,0.8642812442267624,B,608,Correct
2,new_learn,48,871,A,82.67593739260747,39.55022108302689,4.133796869630373,0.6212534200114472,B,508,Incorrect
2,new_learn,48,872,B,22.51554514123122,57.448755532959645,1.1257772570615612,0.9024029417011101,A,477,Incorrect
2,new_learn,48,873,B,44.82195573586192,25.93262577167188,2.2410977867930963,0.40734873306288855,B,242,Correct
2,new_learn,48,874,A,86.26872332644446,34.12370125312252,4.313436166322223,0.5360138458505126,B,218,Incorrect
2,new_learn,48,875,B,16.967172384063232,56.51958598537172,0.8483586192031616,0.8878075805779021,B,86,Correct
2,new_learn,48,876,A,70.77227209807324,46.28851744437501,3.538613604903662,0.7270983317440577,B,240,Incorrect
2,new_learn,48,877,B,58.07109297995879,28.9659416860367,2.9035546489979396,0.4549959480258162,B,216,Correct
2,new_learn,48,878,A,32.83912096451657,85.26874422604578,1.6419560482258282,1.3393983022068627,A,238,Correct
2,new_learn,48,879,A,51.15644132409927,57.32438887255063,2.5578220662049636,0.9004493947676478,B,222,Incorrect
2,new_learn,48,880,B,41.40799919787806,25.933472052693645,2.070399959893903,0.40736202641409286,B,377,Correct
2,new_learn,48,881,B,62.21722002756777,21.86334622425744,3.1108610013783884,0.34342863940508656,A,375,Incorrect
2,new_learn,48,882,B,49.2043990547579,33.656532442790805,2.460219952737895,0.5286755753378907,B,1125,Correct
2,new_learn,48,883,B,53.51110336565301,18.538125864663385,2.67555516828265,0.2911962001387471,B,350,Correct
2,new_learn,48,884,A,46.12266984875729,80.83378501841608,2.3061334924378643,1.2697341258785633,B,367,Incorrect
2,new_learn,48,885,A,70.65492721806066,61.51433291998517,3.532746360903033,0.9662648819595109,B,968,Incorrect
2,new_learn,48,886,A,58.04067266763109,53.56723548155093,2.9020336333815546,0.8414321673097745,A,201,Correct
2,new_learn,48,887,A,71.57925685928267,57.613064674722764,3.5789628429641334,0.9049839036645133,A,240,Correct
2,new_learn,48,888,A,46.37314424912646,80.42010810185369,2.318657212456323,1.2632361040684028,A,306,Correct
2,new_learn,48,889,A,59.75389512836512,56.42112291497418,2.9876947564182563,0.886260926284848,B,319,Incorrect
2,new_learn,48,890,B,27.82178672646802,46.76195656998012,1.391089336323401,0.7345350961386725,B,224,Correct
2,new_learn,48,891,A,81.46196782069532,33.16574428476551,4.073098391034766,0.520966292979285,A,376,Correct
2,new_learn,48,892,B,25.2034241482676,57.6160960243319,1.26017120741338,0.905031519992826,A,360,Incorrect
2,new_learn,48,893,B,62.806711542947426,16.990462430443685,3.140335577147371,0.2668855597628763,B,109,Correct
2,new_learn,48,894,B,59.88982107878048,18.910418644269484,2.994491053939024,0.2970441614457223,B,345,Correct
2,new_learn,48,895,A,63.155659033339674,62.09567352990263,3.157782951666984,0.9753965589062615,B,291,Incorrect
2,new_learn,48,896,A,41.5929356729082,69.92933627535652,2.07964678364541,1.0984474455653515,B,431,Incorrect
2,new_learn,48,897,B,11.320645985357288,62.25326891973288,0.5660322992678644,0.977872061500913,A,502,Incorrect
2,new_learn,48,898,A,45.666032795769915,81.61844737905908,2.2833016397884958,1.2820595734172855,B,512,Incorrect
