experiment,condition,subject,trial,cat,x,y,xt,yt,resp,rt,fb
1,new_learn,4,0,A,15.431447004360383,38.371241409667334,0.7715723502180191,0.6027340506086568,B,2474,Incorrect
1,new_learn,4,1,A,39.097694850539284,70.73610009632115,1.9548847425269642,1.111120062030974,B,1791,Incorrect
1,new_learn,4,2,B,76.94456131182163,54.05339436562945,3.8472280655910818,0.849068733203267,B,701,Correct
1,new_learn,4,3,B,61.08361554864763,46.13417589507371,3.0541807774323813,0.7246739403569145,B,2550,Correct
1,new_learn,4,4,B,61.76268631514906,36.930965322410316,3.0881343157574532,0.5801102467343183,B,1395,Correct
1,new_learn,4,5,A,21.89682775614904,33.28624744487256,1.0948413878074519,0.5228591521919183,A,604,Correct
1,new_learn,4,6,A,22.198142263708398,38.56041450550272,1.10990711318542,0.6057055746493232,A,708,Correct
1,new_learn,4,7,A,60.18539266588525,79.45820010787058,3.0092696332942626,1.2481264886317698,B,1179,Incorrect
1,new_learn,4,8,B,57.03788165424673,42.89732391469533,2.8518940827123367,0.673829588345343,B,607,Correct
1,new_learn,4,9,A,32.03002803295104,48.70875617679529,1.601501401647552,0.7651153528525828,A,640,Correct
1,new_learn,4,10,A,51.394386884719104,76.16916980180407,2.5697193442359554,1.196462521396906,B,570,Incorrect
1,new_learn,4,11,B,70.55507010087983,44.276571536826594,3.5277535050439917,0.6954947593311869,B,587,Correct
1,new_learn,4,12,A,47.42559460666536,68.92451146785805,2.371279730333268,1.0826636943984416,A,619,Correct
1,new_learn,4,13,A,55.94388270653509,65.11709451832311,2.7971941353267544,1.0228569288093803,A,693,Correct
1,new_learn,4,14,A,19.869575504250392,35.242652750741435,0.9934787752125196,0.553590294873727,A,1493,Correct
1,new_learn,4,15,B,73.40610816082769,48.29331535528048,3.670305408041384,0.7585896236882215,B,656,Correct
1,new_learn,4,16,A,42.553741743726846,68.79258070778285,2.1276870871863425,1.0805913308652675,A,659,Correct
1,new_learn,4,17,B,71.13000672604227,60.01232885785912,3.5565003363021135,0.9426714573233247,B,530,Correct
1,new_learn,4,18,A,63.22004975534891,75.3742263931894,3.1610024877674454,1.1839755795342888,B,624,Incorrect
1,new_learn,4,19,B,51.25595135175355,38.60303588467027,2.5627975675876775,0.6063750697077164,B,1559,Correct
1,new_learn,4,20,B,41.78791217282457,33.90362581361037,2.0893956086412286,0.5325569089304781,B,814,Correct
1,new_learn,4,21,B,69.72761622996262,52.944141056691336,3.486380811498131,0.8316446229716162,A,755,Incorrect
1,new_learn,4,22,B,75.05573311245486,63.91424595647415,3.7527866556227427,1.0039626277829514,A,741,Incorrect
1,new_learn,4,23,A,34.094824119542864,44.9852641039802,1.7047412059771432,0.7066268761443041,A,665,Correct
1,new_learn,4,24,B,74.70268844248879,61.704521101373075,3.73513442212444,0.9692523509267501,B,2025,Correct
1,new_learn,4,25,A,21.259509054912122,49.707935541599895,1.0629754527456061,0.780810425613026,A,663,Correct
1,new_learn,4,26,B,49.63418216711365,30.47784665171504,2.481709108355682,0.4787448956913213,B,1187,Correct
1,new_learn,4,27,A,46.53716364074529,62.38154850019477,2.3268581820372645,0.9798870724388363,A,2429,Correct
1,new_learn,4,28,A,40.109302937198564,63.7894132162944,2.005465146859928,1.0020017596855708,A,572,Correct
1,new_learn,4,29,A,26.346937049388654,50.629364904968064,1.3173468524694325,0.7952842042068228,A,601,Correct
1,new_learn,4,30,A,30.37439510881776,43.01092359614013,1.518719755440888,0.6756140079687287,A,572,Correct
1,new_learn,4,31,B,58.51812947635684,47.569265254266455,2.925906473817842,0.7472162712973386,B,665,Correct
1,new_learn,4,32,A,18.708550656121385,35.268532118410874,0.9354275328060693,0.5539968070304764,A,569,Correct
1,new_learn,4,33,B,81.3276841301914,65.9710849351809,4.0663842065095706,1.036271378908563,B,1057,Correct
1,new_learn,4,34,A,31.331127697877626,42.8725468160823,1.5665563848938815,0.6734403905904432,A,660,Correct
1,new_learn,4,35,B,40.01760653537296,24.528355081880505,2.000880326768648,0.3852905006493883,A,1770,Incorrect
1,new_learn,4,36,A,29.212829134206952,53.66690872650328,1.4606414567103476,0.8429978309802835,A,1045,Correct
1,new_learn,4,37,A,32.900105545123004,58.96961067721995,1.6450052772561503,0.9262924784430221,A,1033,Correct
1,new_learn,4,38,A,20.15108821953756,50.06701607323954,1.007554410976878,0.7864508494142572,A,819,Correct
1,new_learn,4,39,B,80.56938710465008,57.57619665588258,4.028469355232504,0.9044047821788096,B,684,Correct
1,new_learn,4,40,A,20.146706188745366,42.217966669726664,1.0073353094372683,0.6631582696955601,A,610,Correct
1,new_learn,4,41,A,45.661718392186096,72.10831620198901,2.2830859196093045,1.1326747822144927,A,2125,Correct
1,new_learn,4,42,B,67.67554766935213,39.0199695172168,3.3837773834676064,0.6129242478929299,B,966,Correct
1,new_learn,4,43,A,44.607041665127696,72.53302975782235,2.230352083256385,1.139346167148923,A,827,Correct
1,new_learn,4,44,B,37.7235230505499,20.989812722258637,1.886176152527495,0.3297072072423666,A,912,Incorrect
1,new_learn,4,45,B,39.20493743052417,20.53533797780401,1.9602468715262085,0.3225683346502628,A,1028,Incorrect
1,new_learn,4,46,A,22.131666593706704,54.32149911126184,1.1065833296853353,0.8532801126996233,A,655,Correct
1,new_learn,4,47,A,65.02809202404143,86.19348067016824,3.251404601202071,1.353924028303672,A,6312,Correct
1,new_learn,4,48,B,53.08915374398711,26.207399388683434,2.654457687199356,0.41166486694590754,B,2092,Correct
1,new_learn,4,49,B,57.055733770378964,30.330199718073303,2.8527866885189486,0.47642566308105155,B,844,Correct
1,new_learn,4,50,B,46.528879701046804,20.006638254112726,2.3264439850523404,0.3142635388107453,B,2663,Correct
1,new_learn,4,51,A,22.465586478360354,53.610016836122334,1.1232793239180177,0.8421041752559353,A,596,Correct
1,new_learn,4,52,A,24.840503812044062,43.3499876857847,1.242025190602203,0.6809400142343461,A,493,Correct
1,new_learn,4,53,B,59.51337460210796,41.86598254347126,2.9756687301053977,0.6576293159694392,B,602,Correct
1,new_learn,4,54,A,43.26689530210316,52.70740041156784,2.163344765105158,0.8279259096139858,B,793,Incorrect
1,new_learn,4,55,B,83.81559243892335,54.88242393354525,4.190779621946167,0.8620910992041318,B,641,Correct
1,new_learn,4,56,A,58.43906649266643,71.364188388074,2.9219533246333214,1.1209860498468565,B,2274,Incorrect
1,new_learn,4,57,B,45.126940765391765,18.241545794583416,2.2563470382695883,0.2865375312919252,A,612,Incorrect
1,new_learn,4,58,A,49.90562415334679,71.5051535257354,2.4952812076673396,1.1232003250513032,B,967,Incorrect
1,new_learn,4,59,B,65.85800456486204,47.71575918774719,3.292900228243102,0.7495173926234312,B,626,Correct
1,new_learn,4,60,A,55.439790083050525,81.80664153591482,2.7719895041525264,1.2850157203204182,A,655,Correct
1,new_learn,4,61,B,69.76413345897396,46.71529166736452,3.488206672948698,0.7338020855624842,B,724,Correct
1,new_learn,4,62,B,38.619780637782476,23.8931634246469,1.9309890318891236,0.37531293342945526,A,1469,Incorrect
1,new_learn,4,63,B,39.42654969343234,13.866561078172346,1.9713274846716171,0.21781543206870202,B,5109,Correct
1,new_learn,4,64,A,69.21320043315778,88.6182874062512,3.460660021657889,1.3920128034459383,B,2158,Incorrect
1,new_learn,4,65,B,58.76990641679862,51.207995525103954,2.938495320839931,0.8043733127336279,B,1367,Correct
1,new_learn,4,66,B,65.55220818343179,54.551254834724745,3.277610409171589,0.8568891071643796,107,2192,Correct
1,new_learn,4,67,B,52.407756086619074,28.02653022536481,2.620387804330954,0.4402397073080918,B,1747,Correct
1,new_learn,4,68,B,50.494136817037585,41.37284404311611,2.5247068408518794,0.6498831145198489,B,1482,Correct
1,new_learn,4,69,B,69.60050970233311,58.45879444356126,3.4800254851166557,0.9182685958080393,B,1170,Correct
1,new_learn,4,70,A,16.06859027260599,32.317519984874636,0.8034295136302996,0.5076424168336173,A,623,Correct
1,new_learn,4,71,B,80.27831048475079,51.99910522880306,4.0139155242375395,0.8168000349002514,B,636,Correct
1,new_learn,4,72,A,41.26970655592808,48.090702184754164,2.0634853277964043,0.7554069834479915,B,1983,Incorrect
1,new_learn,4,73,A,11.362150721367023,35.35911412034149,0.5681075360683512,0.5554196657895397,A,647,Correct
1,new_learn,4,74,B,43.890919357583805,25.004277418033617,2.1945459678791903,0.39276627122407787,A,2409,Incorrect
1,new_learn,4,75,A,38.280164870260506,64.18889804872687,1.9140082435130252,1.0082768527595227,A,581,Correct
1,new_learn,4,76,B,59.677568195024975,39.30536089659262,2.9838784097512483,0.6174071651971544,B,1400,Correct
1,new_learn,4,77,B,52.78036732822733,45.382402966713215,2.6390183664113662,0.7128651188123893,B,1159,Correct
1,new_learn,4,78,B,58.080002399197035,26.776161197132907,2.9040001199598517,0.4205989565412441,B,2031,Correct
1,new_learn,4,79,A,36.79804061679454,46.826274815625666,1.839902030839727,0.7355454047787315,A,1023,Correct
1,new_learn,4,80,A,61.525482691930534,75.61115869318166,3.0762741345965265,1.1876973033995577,B,1486,Incorrect
1,new_learn,4,81,B,45.48835221964957,30.40030959924249,2.2744176109824785,0.4775269465191773,A,985,Incorrect
1,new_learn,4,82,A,51.07011903131418,78.93572974259753,2.553505951565709,1.2399195433254686,B,1891,Incorrect
1,new_learn,4,83,B,60.71779975355298,28.143565087723683,3.035889987677649,0.4420780866270945,B,488,Correct
1,new_learn,4,84,B,34.13134943564644,17.70367756488677,1.706567471782322,0.2780887168968536,A,570,Incorrect
1,new_learn,4,85,A,48.83442908206948,61.45793366919292,2.4417214541034737,0.9653789645997263,B,917,Incorrect
1,new_learn,4,86,A,47.60345607491418,77.02453493611759,2.3801728037457086,1.209898565507387,B,820,Incorrect
1,new_learn,4,87,A,19.732636663170705,49.93594136096792,0.9866318331585353,0.7843919326485376,A,507,Correct
1,new_learn,4,88,B,74.72209712896633,49.370682019565535,3.736104856448316,0.775512859676924,B,692,Correct
1,new_learn,4,89,A,29.453783101233967,49.08365919225833,1.4726891550616983,0.7710043156485195,A,589,Correct
1,new_learn,4,90,B,83.42312473157148,57.332850968064164,4.1711562365785735,0.9005823170531441,B,823,Correct
1,new_learn,4,91,A,20.76622252660223,45.46616429789709,1.0383111263301117,0.7141808387259001,A,533,Correct
1,new_learn,4,92,B,43.13005679805367,23.9665610973989,2.1565028399026835,0.3764658613769966,B,2602,Correct
1,new_learn,4,93,B,69.16523757355147,45.19704696751806,3.458261878677573,0.709953553585538,B,4913,Correct
1,new_learn,4,94,A,16.54750278979757,31.932083236896403,0.8273751394898784,0.5015879905542576,A,583,Correct
1,new_learn,4,95,B,48.813857642230175,31.83131165278248,2.4406928821115086,0.5000050742125431,B,1114,Correct
1,new_learn,4,96,B,33.80454475863449,20.406792809963573,1.6902272379317247,0.3205491518755529,A,711,Incorrect
1,new_learn,4,97,A,22.125327188200636,44.246172899509546,1.1062663594100317,0.6950172586528149,A,547,Correct
1,new_learn,4,98,A,25.893094135358794,42.92992584935395,1.29465470676794,0.6743416983374246,A,625,Correct
1,new_learn,4,99,A,41.79800952354683,69.08563132844218,2.0899004761773416,1.0851945592502341,B,1137,Incorrect
1,new_learn,4,100,A,36.059689938893676,68.8890348860557,1.802984496944684,1.0821064295546177,A,744,Correct
1,new_learn,4,101,B,52.51067892747552,38.6498517971926,2.625533946373776,0.6071104523419727,B,1604,Correct
1,new_learn,4,102,A,11.062113115825923,35.22569545335523,0.5531056557912961,0.5533239302692609,A,2061,Correct
1,new_learn,4,103,A,53.159739261594325,62.3627204471429,2.657986963079716,0.9795913220730905,B,2959,Incorrect
1,new_learn,4,104,B,61.663857523555585,33.22824661789539,3.0831928761777796,0.5219480773322502,A,615,Incorrect
1,new_learn,4,105,B,62.51704553979833,29.245036533139647,3.125852276989917,0.45937995963238315,B,563,Correct
1,new_learn,4,106,B,65.32482991485787,40.10110357343863,3.266241495742894,0.6299066619357909,B,950,Correct
1,new_learn,4,107,A,40.32047655201556,58.87276618507218,2.0160238276007783,0.9247712487176618,B,1187,Incorrect
1,new_learn,4,108,A,28.292751346971222,55.43387398858867,1.414637567348561,0.8707532564128625,A,3176,Correct
1,new_learn,4,109,A,31.60298999445645,46.903595997398845,1.5801494997228225,0.7367599630618591,A,1919,Correct
1,new_learn,4,110,A,42.4695557657643,65.30361318572614,2.123477788288215,1.0257867571857338,A,3305,Correct
1,new_learn,4,111,B,37.20062798783154,17.757203374203385,1.8600313993915767,0.27892949834348624,A,2644,Incorrect
1,new_learn,4,112,A,22.846972658679057,34.024612064014256,1.1423486329339527,0.5344573565077493,A,711,Correct
1,new_learn,4,113,B,47.058838681478726,23.894691759538023,2.3529419340739364,0.3753369404577862,B,1166,Correct
1,new_learn,4,114,B,66.17378148649729,34.48283913645861,3.3086890743248647,0.5416551705300848,B,715,Correct
1,new_learn,4,115,A,51.31489407797025,71.24193389371905,2.565744703898513,1.1190656807401875,B,2733,Incorrect
1,new_learn,4,116,A,31.832463605814787,55.61933354795527,1.5916231802907392,0.873666448359083,A,844,Correct
1,new_learn,4,117,A,40.49515848698658,47.39670038035697,2.024757924349329,0.74450562859663,A,588,Correct
1,new_learn,4,118,B,57.04944689331741,29.521121605795578,2.85247234466587,0.4637166938124916,B,594,Correct
1,new_learn,4,119,A,30.571113236321754,39.75025427804824,1.5285556618160876,0.624395534091213,A,528,Correct
1,new_learn,4,120,A,58.20454408351309,70.33036483257237,2.9102272041756545,1.1047467874114965,B,1051,Incorrect
1,new_learn,4,121,B,77.25993804370991,53.359621201081005,3.862996902185495,0.8381709698182512,B,972,Correct
1,new_learn,4,122,A,65.89217988710665,84.24213807498671,3.2946089943553325,1.3232724104953761,A,999,Correct
1,new_learn,4,123,B,38.488168479868214,22.283836767055114,1.9244084239934107,0.3500336894058723,B,992,Correct
1,new_learn,4,124,B,58.80710024205921,47.548750781884124,2.9403550121029607,0.7468940307186955,A,2140,Incorrect
1,new_learn,4,125,A,62.22405265825136,87.7879741560803,3.1112026329125677,1.3789702734113625,A,621,Correct
1,new_learn,4,126,B,76.95024851769519,50.77554134354298,3.847512425884759,0.7975803383345973,B,1215,Correct
1,new_learn,4,127,A,40.86834846092974,67.11328517769418,2.0434174230464865,1.054213018362604,B,968,Incorrect
1,new_learn,4,128,B,43.158172610251995,22.26339765057458,2.1579086305126,0.34971263251496676,B,924,Correct
1,new_learn,4,129,B,37.115159919571795,15.960997139942176,1.8557579959785897,0.2507147567940502,B,554,Correct
1,new_learn,4,130,B,63.997068638232015,37.73809584770615,3.1998534319116008,0.5927886233781056,B,848,Correct
1,new_learn,4,131,B,42.942815101041376,26.092268651524975,2.147140755052069,0.4098563975556106,B,587,Correct
1,new_learn,4,132,A,23.045601111335067,40.5315156898455,1.1522800555667532,0.6366675596503902,A,828,Correct
1,new_learn,4,133,B,74.66363476678784,53.105289899170984,3.7331817383393915,0.834175943069959,B,668,Correct
1,new_learn,4,134,B,81.50634451659317,58.962409411665206,4.075317225829659,0.9261793612282054,B,2719,Correct
1,new_learn,4,135,A,31.901112146556237,40.333667497424585,1.595055607327812,0.6335597675112126,B,898,Incorrect
1,new_learn,4,136,B,78.84314158815978,64.83925311115667,3.942157079407989,1.0184926061912944,B,772,Correct
1,new_learn,4,137,A,25.90396150554007,52.981402182531966,1.2951980752770036,0.8322299193676433,A,556,Correct
1,new_learn,4,138,B,44.0208406096133,25.339104557321157,2.201042030480665,0.398025723629119,B,1998,Correct
1,new_learn,4,139,B,77.33085960666864,48.72690064024676,3.866542980333432,0.7654003654179952,B,1506,Correct
1,new_learn,4,140,A,53.79334456204276,61.262847471927124,2.689667228102138,0.9623145577789914,A,780,Correct
1,new_learn,4,141,A,60.78140806900646,83.42528009524582,3.039070403450323,1.3104412353544754,A,764,Correct
1,new_learn,4,142,B,55.08883055463427,35.69712011923478,2.754441527731714,0.560729051604502,B,552,Correct
1,new_learn,4,143,A,54.92675046730077,76.25789715753616,2.7463375233650384,1.197856247441608,B,3264,Incorrect
1,new_learn,4,144,B,40.45677594561924,14.338956480436611,2.0228387972809623,0.22523580169541707,B,689,Correct
1,new_learn,4,145,A,47.05859340231953,62.973589454199896,2.3529296701159765,0.9891868299974703,B,813,Incorrect
1,new_learn,4,146,A,58.59360941949704,68.25065576518705,2.9296804709748523,1.0720787937729872,B,1064,Incorrect
1,new_learn,4,147,B,43.1997440395841,34.436814176561825,2.1599872019792046,0.5409322121506174,B,542,Correct
1,new_learn,4,148,A,51.14615990470026,62.29852420327321,2.557307995235013,0.978582929832445,B,992,Incorrect
1,new_learn,4,149,B,46.004993400376776,20.404536900688573,2.3002496700188386,0.3205137161355253,B,715,Correct
1,new_learn,4,150,B,78.8713099119083,49.056526558601256,3.9435654955954145,0.7705781172356715,B,821,Correct
1,new_learn,4,151,B,34.07131087441809,16.384524296881576,1.7035655437209045,0.25736750581823314,B,651,Correct
1,new_learn,4,152,B,63.35733988134234,39.840984875658854,3.167866994067117,0.6258207269857596,B,582,Correct
1,new_learn,4,153,A,61.4760068309883,80.24704787853429,3.073800341549415,1.2605176804373586,A,573,Correct
1,new_learn,4,154,B,54.7202571829654,36.51047393562347,2.7360128591482695,0.5735051834761816,B,875,Correct
1,new_learn,4,155,B,68.94665359979905,35.72296693721329,3.4473326799899526,0.5611350524719018,B,596,Correct
1,new_learn,4,156,A,29.256280910172244,38.46226011113778,1.4628140455086123,0.604163769028051,B,574,Incorrect
1,new_learn,4,157,A,33.59117151486817,63.01496208503106,1.6795585757434086,0.9898367097628648,A,1163,Correct
1,new_learn,4,158,A,66.77487693402576,85.21716549087756,3.3387438467012878,1.338588105329433,B,563,Incorrect
1,new_learn,4,159,B,38.88822615899861,28.51009864319706,1.9444113079499306,0.4478355822529411,B,558,Correct
1,new_learn,4,160,B,52.89805417915517,27.54678709159692,2.6449027089577584,0.43270391978481515,B,540,Correct
1,new_learn,4,161,B,57.72198859214752,37.02985819577627,2.886099429607376,0.5816636523566127,B,586,Correct
1,new_learn,4,162,A,29.448445319010705,47.535747092641046,1.4724222659505353,0.7466897692457173,A,852,Correct
1,new_learn,4,163,B,71.4141733906822,60.51814828788396,3.5707086695341097,0.9506168503503698,B,708,Correct
1,new_learn,4,164,B,61.7851956784602,42.66978734890688,3.08925978392301,0.6702554523278228,B,513,Correct
1,new_learn,4,165,B,57.138530107842584,43.236980110427616,2.8569265053921296,0.679164895391637,B,500,Correct
1,new_learn,4,166,A,24.316297795448968,53.20243396237324,1.2158148897724486,0.8357018784464393,A,637,Correct
1,new_learn,4,167,B,43.30030469134548,35.09979575073675,2.165015234567274,0.5513463023650841,B,451,Correct
1,new_learn,4,168,B,75.43419708328739,54.21702064438848,3.771709854164369,0.8516389687796848,B,590,Correct
1,new_learn,4,169,B,56.0774786264647,33.123655751106334,2.803873931323235,0.5203051678385648,B,581,Correct
1,new_learn,4,170,B,62.448170016801114,54.34863047801333,3.1224085008400557,0.8537062912119648,B,539,Correct
1,new_learn,4,171,B,87.59796453544386,64.50035994412863,4.379898226772193,1.0131692847718594,B,531,Correct
1,new_learn,4,172,B,79.56820513872435,49.02874831108649,3.9784102569362174,0.7701417775440613,B,542,Correct
1,new_learn,4,173,A,18.56357968026796,38.566256656625214,0.928178984013398,0.6057973429445612,A,1282,Correct
1,new_learn,4,174,B,87.77213863485005,61.95479801172496,4.388606931742503,0.9731836914413734,B,571,Correct
1,new_learn,4,175,B,40.569955834406755,21.581189658337916,2.028497791720338,0.3389965344318121,B,709,Correct
1,new_learn,4,176,B,63.6625179251127,53.030492551367146,3.1831258962556355,0.8330010290781164,B,1266,Correct
1,new_learn,4,177,B,77.8888500572719,53.092102132760054,3.894442502863595,0.8339687901195898,B,582,Correct
1,new_learn,4,178,A,35.233069249871534,57.805069951488306,1.7616534624935767,0.9079999154991989,B,809,Incorrect
1,new_learn,4,179,B,67.3574238811198,47.99263445615809,3.36787119405599,0.7538665391694332,B,614,Correct
1,new_learn,4,180,B,85.7567686693373,68.65796223850208,4.287838433466865,1.0784767488946179,A,909,Incorrect
1,new_learn,4,181,B,31.651320673628977,13.410924821493015,1.5825660336814489,0.2106583144852373,A,815,Incorrect
1,new_learn,4,182,A,65.27121689244198,82.56040266186874,3.2635608446220994,1.2968557723997103,A,726,Correct
1,new_learn,4,183,B,36.391828338725674,20.185257027224964,1.8195914169362837,0.3170692759377584,B,554,Correct
1,new_learn,4,184,B,75.23181451707723,62.56387352678289,3.7615907258538614,0.9827510272593104,B,1026,Correct
1,new_learn,4,185,A,15.099332066086053,43.291166905053274,0.7549666033043025,0.6800160595712247,A,712,Correct
1,new_learn,4,186,B,48.496259271048125,40.23290810633568,2.4248129635524065,0.631977042697087,B,533,Correct
1,new_learn,4,187,A,43.09301482285216,64.33129097163658,2.154650741142608,1.0105135555622042,A,2894,Correct
1,new_learn,4,188,A,59.172685451547174,70.35376621238376,2.9586342725773584,1.1051143754259931,A,2283,Correct
1,new_learn,4,189,A,57.13460918090764,74.98966602518018,2.856730459045382,1.1779349193992907,A,531,Correct
1,new_learn,4,190,A,60.31358230157987,75.213528576177,3.0156791150789934,1.1814513441274181,A,510,Correct
1,new_learn,4,191,B,67.47368384076597,49.763635793101614,3.3736841920382985,0.7816853631176304,A,572,Incorrect
1,new_learn,4,192,A,32.430839069007355,43.323863640358354,1.621541953450368,0.6805296586883789,B,578,Incorrect
1,new_learn,4,193,B,78.110956644782,53.633323836112375,3.9055478322390997,0.8424702807556648,B,483,Correct
1,new_learn,4,194,A,57.97497287225319,65.7149533974051,2.8987486436126595,1.0322480741214173,B,498,Incorrect
1,new_learn,4,195,A,26.357159058008776,51.09005108288656,1.3178579529004388,0.8025206457676183,A,871,Correct
1,new_learn,4,196,B,86.18710873958342,59.08391183880504,4.309355436979171,0.9280879168906845,B,685,Correct
1,new_learn,4,197,A,53.33654525346095,65.53253444511564,2.6668272626730474,1.0293826439194769,B,1319,Incorrect
1,new_learn,4,198,A,45.29735515730045,57.027165037160984,2.2648677578650225,0.8957806136789882,A,708,Correct
1,new_learn,4,199,A,46.80858408180208,58.73117719416655,2.3404292040901042,0.9225471740493703,100,527,Correct
1,new_learn,4,200,B,76.45789655860065,54.80778582065735,3.8228948279300323,0.8609186864684997,B,1777,Correct
1,new_learn,4,201,B,66.64639119725327,40.67646975039415,3.332319559862663,0.6389444927090285,B,3548,Correct
1,new_learn,4,202,B,84.54424440001853,55.09202143163161,4.227212220000927,0.8653834490051264,B,911,Correct
1,new_learn,4,203,B,42.73563547568247,15.182878085985873,2.1367817737841235,0.23849209127641338,107,1992,Correct
1,new_learn,4,204,A,42.1332001877843,51.8273732020282,2.106660009389215,0.8141024745317416,B,1684,Incorrect
1,new_learn,4,205,B,63.58399597220809,42.97506551683254,3.1791997986104046,0.6750507505761056,B,2360,Correct
1,new_learn,4,206,A,57.011192305296774,76.24599403202984,2.8505596152648387,1.197669273583381,A,1146,Correct
1,new_learn,4,207,B,55.86788372948256,43.22482072813964,2.793394186474128,0.6789738962612966,B,715,Correct
1,new_learn,4,208,A,39.097801621611296,67.28541602771047,1.9548900810805647,1.0569168434319407,B,1278,Incorrect
1,new_learn,4,209,A,48.898740960623925,71.21888763258998,2.4449370480311963,1.1187036709169085,A,677,Correct
1,new_learn,4,210,A,62.192528160328884,77.79252678025472,3.109626408016444,1.2219621531851774,A,1281,Correct
1,new_learn,4,211,B,73.78298793803972,58.08180822956556,3.689149396901986,0.9123469102060716,B,626,Correct
1,new_learn,4,212,A,44.736772840857775,68.59926782268728,2.2368386420428887,1.0775547791669653,A,863,Correct
1,new_learn,4,213,A,14.578736057109044,30.724993772495065,0.7289368028554521,0.4826270735863132,A,633,Correct
1,new_learn,4,214,B,33.188336185843966,19.89584219437216,1.6594168092921984,0.31252315837410705,B,980,Correct
1,new_learn,4,215,A,48.26458222053946,59.71637852560358,2.4132291110269732,0.9380226803751176,B,1714,Incorrect
1,new_learn,4,216,A,38.20401274734942,51.463844944138756,1.910200637367471,0.8083921860099526,A,602,Correct
1,new_learn,4,217,B,87.70507386324871,68.69038201154262,4.3852536931624355,1.078985997498694,B,3854,Correct
1,new_learn,4,218,A,44.674550451006326,53.043681245400826,2.2337275225503164,0.8332081965995496,B,829,Incorrect
1,new_learn,4,219,B,77.73766443565287,63.12474349280788,3.8868832217826434,0.9915611520837266,B,509,Correct
1,new_learn,4,220,B,42.0362688074206,31.61468897443145,2.10181344037103,0.4966023731380004,B,1727,Correct
1,new_learn,4,221,A,31.085766110392367,54.496601539870916,1.5542883055196182,0.8560306152163435,A,1111,Correct
1,new_learn,4,222,A,64.12315680343175,78.3724153243476,3.2061578401715876,1.2310710211352927,B,3254,Incorrect
1,new_learn,4,223,B,67.84814365348657,47.871020437719295,3.3924071826743285,0.7519562306349291,B,669,Correct
1,new_learn,4,224,B,65.37875160786325,40.57613851689683,3.2689375803931626,0.6373684933786247,B,1094,Correct
1,new_learn,4,225,B,52.47055782722842,36.89431868468326,2.623527891361421,0.5795346026950079,B,645,Correct
1,new_learn,4,226,B,73.07640565711745,41.94996316220807,3.6538202828558726,0.6589484804437766,B,552,Correct
1,new_learn,4,227,A,55.243377484088384,69.18605955863076,2.7621688742044195,1.0867720822011013,B,576,Incorrect
1,new_learn,4,228,A,43.74461928451056,60.799011506405556,2.1872309642255283,0.9550286394702249,B,586,Incorrect
1,new_learn,4,229,A,62.51051491672466,78.23992783032288,3.1255257458362333,1.2289899124456898,B,537,Incorrect
1,new_learn,4,230,B,56.63828193112105,25.43007583045781,2.8319140965560523,0.39945469704598807,A,470,Incorrect
1,new_learn,4,231,A,36.93082224265237,48.862781128873166,1.8465411121326185,0.7675347711421696,B,1015,Incorrect
1,new_learn,4,232,A,49.93880164529141,63.957754987692894,2.4969400822645706,1.0046460660471597,A,1218,Correct
1,new_learn,4,233,B,62.56651398252816,46.15278346020194,3.128325699126408,0.7249662273064545,B,539,Correct
1,new_learn,4,234,A,51.720222737007006,73.87483161099111,2.5860111368503507,1.1604231413713635,A,926,Correct
1,new_learn,4,235,A,56.46470609820792,76.96617077336634,2.823235304910396,1.2089817833827257,B,1073,Incorrect
1,new_learn,4,236,B,37.513558676266975,14.0912395150811,1.8756779338133487,0.2213446727027649,B,499,Correct
1,new_learn,4,237,B,55.72569386900326,37.97910741552978,2.786284693450163,0.5965744242326301,B,624,Correct
1,new_learn,4,238,B,38.506904660336765,27.317933371899166,1.9253452330168384,0.42910909396206937,B,516,Correct
1,new_learn,4,239,B,41.98506648198437,14.493742871299318,2.0992533240992186,0.22766718063746683,B,468,Correct
1,new_learn,4,240,A,59.889383733999,79.04825888473573,2.99446918669995,1.2416871469567492,A,509,Correct
1,new_learn,4,241,B,53.39399858751241,41.27653787133614,2.6696999293756205,0.6483703407110524,B,752,Correct
1,new_learn,4,242,B,53.63153104026473,22.315186860309137,2.6815765520132366,0.35052613551915335,B,586,Correct
1,new_learn,4,243,A,36.78957504743,63.36945724401055,1.8394787523715,0.99540510669878,A,1002,Correct
1,new_learn,4,244,A,29.447058699946304,53.17876299056533,1.472352934997315,0.8353300556907641,A,723,Correct
1,new_learn,4,245,B,81.40472190845821,57.386555773632594,4.070236095422911,0.9014259101663255,B,553,Correct
1,new_learn,4,246,B,49.66415428029658,21.332203223254762,2.4832077140148288,0.33508546465530836,B,2942,Correct
1,new_learn,4,247,B,84.34135972649813,54.84841568664698,4.217067986324906,0.8615568989110467,B,909,Correct
1,new_learn,4,248,B,40.13138843128706,19.108013171433946,2.006569421564353,0.30014796902036944,B,787,Correct
1,new_learn,4,249,B,78.52213752072691,61.97298657148906,3.9261068760363456,0.9734693966700446,B,559,Correct
1,new_learn,4,250,B,59.410696002675195,43.730451357203926,2.97053480013376,0.6869163236097883,B,592,Correct
1,new_learn,4,251,B,64.56308460032133,40.02495461236363,3.228154230016066,0.6287105168523324,B,576,Correct
1,new_learn,4,252,B,64.20264500250279,45.51456739298276,3.2101322501251395,0.7149411527655609,B,555,Correct
1,new_learn,4,253,A,38.325001258729735,59.36656015186133,1.916250062936487,0.9325277462099205,B,843,Incorrect
1,new_learn,4,254,B,36.81898485693103,15.685286573755285,1.8409492428465515,0.2463839053478011,A,561,Incorrect
1,new_learn,4,255,A,42.507415617797186,50.42628797304453,2.125370780889859,0.7920942792196002,B,628,Incorrect
1,new_learn,4,256,A,21.98388653587072,51.5463047165407,1.099194326793536,0.8096874610859259,A,563,Correct
1,new_learn,4,257,B,56.44736761646444,34.62479407328689,2.8223683808232223,0.5438849934634875,B,1298,Correct
1,new_learn,4,258,A,33.099106413326275,50.16228133795012,1.6549553206663137,0.7879472726930422,B,2037,Incorrect
1,new_learn,4,259,B,64.31385268418663,33.96351977691217,3.215692634209331,0.5334977211059947,B,472,Correct
1,new_learn,4,260,A,41.90035409820938,74.5501902663025,2.095017704910469,1.171031650321686,A,2086,Correct
1,new_learn,4,261,A,16.594992120761283,40.82245540662067,0.8297496060380641,0.6412376300346821,A,649,Correct
1,new_learn,4,262,B,37.74618837594478,17.22206294746249,1.887309418797239,0.27052353217704567,B,1329,Correct
1,new_learn,4,263,A,25.223425233199556,55.64770713741741,1.2611712616599777,0.8741121396601343,B,1464,Incorrect
1,new_learn,4,264,B,39.4305821262185,23.28396779731905,1.971529106310925,0.3657437108923942,B,757,Correct
1,new_learn,4,265,B,72.31540961126358,52.873648626398364,3.615770480563179,0.8305373304659058,B,703,Correct
1,new_learn,4,266,A,20.89514002876545,49.74205456147062,1.0447570014382725,0.7813463659238937,B,704,Incorrect
1,new_learn,4,267,A,55.51620426658196,71.07242281421685,2.7758102133290983,1.1164030069298563,B,584,Incorrect
1,new_learn,4,268,A,48.98626068300361,65.47435942793565,2.44931303415018,1.0284688328865013,B,517,Incorrect
1,new_learn,4,269,B,43.14135066651062,35.14128932156479,2.157067533325531,0.551998081851507,B,562,Correct
1,new_learn,4,270,A,15.81131317503051,37.67323279470605,0.7905656587515254,0.591769756924133,A,514,Correct
1,new_learn,4,271,A,49.08908904992102,71.97298444385422,2.454454452496051,1.1305489959287243,A,1399,Correct
1,new_learn,4,272,B,43.42286289121862,23.940027526437582,2.171143144560931,0.37604907301896867,B,569,Correct
1,new_learn,4,273,A,57.84002921641054,71.1537968316342,2.892001460820527,1.1176812270064136,A,644,Correct
1,new_learn,4,274,A,59.2767139726453,85.59315644305912,2.963835698632265,1.344494157395382,A,572,Correct
1,new_learn,4,275,B,57.4294819325267,47.45535826894774,2.871474096626335,0.7454270245559894,B,634,Correct
1,new_learn,4,276,B,55.61260559116501,32.99941898165001,2.7806302795582503,0.5183536612274162,B,687,Correct
1,new_learn,4,277,A,36.363604025730176,48.259604515748485,1.818180201286509,0.7580600950591214,B,1014,Incorrect
1,new_learn,4,278,B,70.14111943447543,46.2267016813681,3.507055971723771,0.7261273320093647,B,879,Correct
1,new_learn,4,279,B,41.73674994285601,24.921284649221654,2.0868374971428008,0.3914626238600742,B,1299,Correct
1,new_learn,4,280,B,76.82999887584131,52.13268372989144,3.841499943792065,0.8188982810887354,B,591,Correct
1,new_learn,4,281,A,36.25214167618905,69.25447091631005,1.8126070838094523,1.0878466852946385,A,745,Correct
1,new_learn,4,282,B,77.10543502064942,63.64625516244578,3.8552717510324714,0.9997530382342057,B,596,Correct
1,new_learn,4,283,B,67.96569792579906,51.84444232067294,3.3982848962899532,0.8143705956204295,B,1010,Correct
1,new_learn,4,284,A,46.02788166051684,69.00644188965956,2.301394083025842,1.0839506544546271,A,2102,Correct
1,new_learn,4,285,A,26.036725600427634,53.88590495128152,1.3018362800213816,0.8464378156349194,A,632,Correct
1,new_learn,4,286,B,85.92352769891286,64.89937885380095,4.2961763849456425,1.0194370591482091,B,1316,Correct
1,new_learn,4,287,B,61.11156227732599,51.465929896372316,3.0555781138662996,0.8084249363630529,B,1487,Correct
1,new_learn,4,288,A,15.7170658115786,36.482833045280344,0.78585329057893,0.5730710013859783,A,622,Correct
1,new_learn,4,289,B,68.74441469208286,57.262232762561844,3.437220734604143,0.8994730488750652,B,644,Correct
1,new_learn,4,290,B,86.8828246832727,60.364817677196775,4.344141234163635,0.9482083387498433,B,566,Correct
1,new_learn,4,291,A,46.81673849737521,58.00024958918298,2.3408369248687606,0.9110657900787583,B,659,Incorrect
1,new_learn,4,292,A,39.91639127318537,69.44476176271701,1.9958195636592684,1.0908357669202255,B,840,Incorrect
1,new_learn,4,293,A,56.447217179785554,75.31906545289941,2.8223608589892772,1.183109113510388,A,2767,Correct
1,new_learn,4,294,B,55.15282548445633,36.323760138460734,2.7576412742228165,0.57057229000873,B,734,Correct
1,new_learn,4,295,A,61.08863933334867,87.40249570382268,3.0544319666674333,1.372915192042714,A,959,Correct
1,new_learn,4,296,B,74.34205528613884,53.00951504080124,3.717102764306942,0.8326715151126941,B,675,Correct
1,new_learn,4,297,B,34.90787742021247,23.395540627657397,1.7453938710106234,0.36749629281305,B,2336,Correct
1,new_learn,4,298,B,61.046420926009525,32.908377327898535,3.052321046300476,0.5169235822744347,B,734,Correct
1,new_learn,4,299,B,51.32352532469775,29.13284842030739,2.566176266234887,0.45761771287691355,B,689,Correct
1,new_learn,4,300,A,50.3769870037917,61.478569729878885,2.518849350189585,0.9657031150829767,A,677,Correct
1,new_learn,4,301,A,42.85575346591973,55.8238718993575,2.1427876732959867,0.8768793292697961,A,609,Correct
1,new_learn,4,302,B,70.72392539250322,61.20129182083595,3.536196269625161,0.9613476438727167,B,914,Correct
1,new_learn,4,303,A,55.39955534450489,66.93016835371361,2.7699777672252446,1.051336626017774,B,679,Correct
1,new_learn,4,304,A,14.92359716946305,30.962551456792447,0.7461798584731525,0.4863586209652755,A,643,Correct
1,new_learn,4,305,A,39.811516914902484,51.89569601836478,1.9905758457451241,0.8151756868211194,B,3327,Incorrect
1,new_learn,4,306,A,48.46627322823218,75.76250933344039,2.4233136614116093,1.1900747136973222,B,1115,Incorrect
1,new_learn,4,307,A,22.92558457701192,43.59443935362677,1.146279228850596,0.6847798520535981,A,623,Incorrect
1,new_learn,4,308,B,79.31598637986215,50.750795093548916,3.9657993189931076,0.797191625148671,B,580,Incorrect
1,new_learn,4,309,A,45.95192152028566,54.690736657293975,2.297596076014283,0.8590800825098438,B,681,Incorrect
1,new_learn,4,310,A,25.031412054302976,41.531289077017895,1.2515706027151488,0.6523719632923671,A,527,Correct
1,new_learn,4,311,A,49.683538375013455,71.04710868517105,2.4841769187506726,1.1160053735206448,A,891,Correct
1,new_learn,4,312,B,65.1691596070556,47.00666539477002,3.25845798035278,0.7383789733698153,A,2438,Correct
1,new_learn,4,313,A,48.60785557464372,57.92273580430903,2.430392778732186,0.9098482063931985,A,760,Incorrect
1,new_learn,4,314,B,63.997811369898166,56.45379662713712,3.1998905684949084,0.8867741637553311,B,605,Correct
1,new_learn,4,315,A,17.578049314080765,46.61703557397798,0.8789024657040383,0.7322586824567163,A,827,Correct
1,new_learn,4,316,A,59.083345756406494,71.56876087462086,2.9541672878203245,1.1241994669511677,B,704,Correct
1,new_learn,4,317,B,86.75706163280314,64.41339176871381,4.337853081640157,1.0118031918669628,B,758,Incorrect
1,new_learn,4,318,A,19.614786666393226,41.04612803423559,0.9807393333196613,0.6447510714533029,A,571,Correct
1,new_learn,4,319,A,48.23391068423027,67.5217004757089,2.411695534211513,1.0606283908618876,B,1053,Incorrect
1,new_learn,4,320,A,44.16698686038538,72.21989742049307,2.208349343019269,1.1344274958961476,A,1493,Incorrect
1,new_learn,4,321,B,40.42088835160933,25.306478725258756,2.0210444175804665,0.3975132382574965,B,800,Incorrect
1,new_learn,4,322,B,77.83050787096897,54.89688040437732,3.8915253935484486,0.8623181809169463,B,722,Correct
1,new_learn,4,323,B,49.01805732868539,23.88985388676289,2.4509028664342694,0.3752609473299393,B,4208,Correct
1,new_learn,4,324,A,57.307742797398404,73.03948445258754,2.86538713986992,1.1473015388911747,A,1059,Correct
1,new_learn,4,325,B,72.3218001104236,61.11250982147688,3.61609000552118,0.9599530594879293,B,2406,Correct
1,new_learn,4,326,A,67.86765350404971,88.64200124670353,3.393382675202486,1.3923852995807056,A,792,Correct
1,new_learn,4,327,B,49.00346470516097,38.4322541487595,2.4501732352580485,0.6036924364731934,B,1491,Correct
1,new_learn,4,328,B,50.87248867443371,21.430851885703852,2.5436244337216856,0.33663503422149094,B,839,Correct
1,new_learn,4,329,A,34.10469515009424,61.31842081108109,1.705234757504712,0.9631875017490992,A,1132,Correct
1,new_learn,4,330,B,86.62703172178632,69.71551808315748,4.331351586089316,1.0950887972562695,A,1195,Correct
1,new_learn,4,331,A,34.288293829944145,45.4805895083452,1.7144146914972072,0.7144074294017514,A,1259,Correct
1,new_learn,4,332,A,52.57845027711639,67.76485267219694,2.62892251385582,1.0644478166328428,A,5983,Incorrect
1,new_learn,4,333,A,40.709006864065195,66.42044813152737,2.03545034320326,1.0433299594907413,B,777,Correct
1,new_learn,4,334,A,31.668411314580275,50.95264922089427,1.583420565729014,0.8003623423664957,B,950,Incorrect
1,new_learn,4,335,A,19.127211257187685,42.89394831828186,0.9563605628593842,0.6737765646008728,B,624,Correct
1,new_learn,4,336,A,50.715032426037304,81.73514348651665,2.5357516213018654,1.2838926315867416,A,1033,Incorrect
1,new_learn,4,337,B,82.13591005149655,64.90400124204034,4.106795502574828,1.0195096674528838,B,526,Incorrect
1,new_learn,4,338,A,12.135791041938418,37.2651952972829,0.6067895520969209,0.5853603189026643,A,740,Correct
1,new_learn,4,339,A,52.63117019444032,82.27358540798068,2.631558509722016,1.2923504575110225,A,892,Correct
1,new_learn,4,340,B,45.941526352031644,36.51033828143616,2.297076317601582,0.5735030526251902,B,1029,Incorrect
1,new_learn,4,341,A,67.34170727163142,82.57981340320704,3.3670853635815714,1.2971606756116558,A,1698,Correct
1,new_learn,4,342,B,60.60638886066505,29.059118945986373,3.0303194430332523,0.45645957300251383,B,816,Correct
1,new_learn,4,343,B,73.2445124625532,59.35003604191929,3.66222562312766,0.9322681860979155,B,2169,Incorrect
1,new_learn,4,344,B,46.56458537385511,36.14672947202368,2.3282292686927555,0.5677914988030361,B,1177,Incorrect
1,new_learn,4,345,A,48.63072332450522,76.61820449615804,2.431536166225261,1.2035159418818528,A,919,Correct
1,new_learn,4,346,A,41.75183998552425,66.524066062285,2.087591999276212,1.0449575861409832,B,697,Correct
1,new_learn,4,347,A,62.511912501894344,84.82812408486637,3.1255956250947174,1.332477057214098,A,781,Incorrect
1,new_learn,4,348,B,82.20887275609104,58.27693337447526,4.110443637804552,0.9154119288149667,B,664,Incorrect
1,new_learn,4,349,A,20.265502060362476,42.91860367124963,1.0132751030181237,0.6741638499796487,A,587,Correct
1,new_learn,4,350,B,63.8306029304163,40.14840942639743,3.191530146520815,0.6306497405364268,B,1004,Incorrect
1,new_learn,4,351,A,29.76893071667952,46.54468315060256,1.4884465358339758,0.7311221732479881,A,3242,Correct
1,new_learn,4,352,B,45.92726760327284,20.70370363448501,2.296363380163642,0.325213016200992,A,1078,Correct
1,new_learn,4,353,A,48.77072951791821,65.334832757074,2.4385364758959103,1.026277153065707,A,2656,Correct
1,new_learn,4,354,B,33.151384964465606,10.463055990254912,1.6575692482232802,0.16435329916541755,A,1107,Correct
1,new_learn,4,355,B,32.19263694544293,17.06908224662376,1.6096318472721465,0.26812051694756583,A,609,Incorrect
1,new_learn,4,356,B,73.96906795717233,50.23982029125568,3.6984533978586165,0.7891652517234014,B,1469,Incorrect
1,new_learn,4,357,B,40.06287864279054,22.829778434860234,2.003143932139527,0.358609321070198,A,608,Correct
1,new_learn,4,358,B,33.1834560444985,16.2482280019843,1.6591728022249248,0.2552265686244292,A,729,Incorrect
1,new_learn,4,359,B,43.65412610674474,19.25655979373695,2.182706305337237,0.3024813339070829,B,601,Incorrect
1,new_learn,4,360,A,29.331394407790334,60.14969987669006,1.4665697203895167,0.9448292762412019,A,1553,Correct
1,new_learn,4,361,A,21.67577091608821,51.501312144772406,1.0837885458044105,0.8089807194212588,B,4356,Correct
1,new_learn,4,362,A,33.24667437917201,45.18353462659429,1.6623337189586007,0.7097413022306432,B,4901,Correct
1,new_learn,4,363,A,42.464430429786965,67.70928090405747,2.123221521489348,1.063574897340173,A,1236,Incorrect
1,new_learn,4,364,A,48.66685528489907,67.34030182220309,2.4333427642449537,1.0577789874757628,B,2218,Correct
1,new_learn,4,365,A,15.976060114337965,34.61642269136297,0.7988030057168983,0.5437534961037246,A,736,Incorrect
1,new_learn,4,366,B,38.73367464322008,27.972155808698353,1.9366837321610038,0.43938559596837906,B,1081,Incorrect
1,new_learn,4,367,A,56.77166253290123,81.44390689593504,2.838583126645062,1.279317897919603,A,1195,Incorrect
1,new_learn,4,368,B,75.87938909047276,60.29484486616024,3.7939694545236375,0.9471092084043263,B,528,Incorrect
1,new_learn,4,369,A,15.539748791403817,38.92787584820556,0.7769874395701908,0.6114776439228906,A,1129,Incorrect
1,new_learn,4,370,A,35.425380324212995,51.879506474780726,1.7712690162106497,0.8149213820651762,B,1056,Incorrect
1,new_learn,4,371,B,44.458485320569416,30.82670148026522,2.2229242660284707,0.4842246945240341,B,1825,Correct
1,new_learn,4,372,A,67.4706985348655,85.24280161149414,3.3735349267432753,1.338990796570411,B,4444,Incorrect
1,new_learn,4,373,A,19.807284098574858,36.06408131086556,0.9903642049287429,0.5664932645234009,B,9060,Incorrect
1,new_learn,4,374,A,20.52018440535375,51.930962185339574,1.0260092202676874,0.8157296464765608,A,5022,Incorrect
1,new_learn,4,375,A,14.371354121502954,42.23090879699295,0.7185677060751476,0.6633615641552681,A,2273,Correct
1,new_learn,4,376,B,80.26154321847993,55.46195055208606,4.013077160923996,0.8711942820409697,B,3585,Correct
1,new_learn,4,377,A,53.238032080535746,80.67604102145981,2.661901604026787,1.2672562889686347,B,1779,Correct
1,new_learn,4,378,B,73.37993300473742,55.39981543845169,3.6689966502368714,0.8702182659583511,B,4022,Correct
1,new_learn,4,379,B,57.016517515140514,38.58794428366379,2.850825875757026,0.606138011393452,B,2678,Correct
1,new_learn,4,380,B,52.18891029993897,27.023955617965434,2.6094455149969487,0.4244913022016842,B,869,Correct
1,new_learn,4,381,A,41.09523212023849,54.6386873354484,2.0547616060119247,0.8582624936741718,B,910,Correct
1,new_learn,4,382,A,22.61021643671661,41.29047811260914,1.1305108218358304,0.6485893135089151,A,2033,Incorrect
1,new_learn,4,383,A,23.10031210769752,45.11206458195073,1.155015605384876,0.7086186533946237,B,823,Correct
1,new_learn,4,384,A,13.908352022446902,31.394411825890703,0.6954176011223452,0.4931422677799538,A,759,Correct
1,new_learn,4,385,B,35.1667256808498,23.149984060410354,1.7583362840424899,0.36363909927452986,A,5954,Incorrect
1,new_learn,4,386,B,50.64448787518141,37.15564099187165,2.532224393759071,0.5836394438974186,B,1382,Correct
1,new_learn,4,387,A,32.705783028330096,58.07042353854123,1.6352891514165049,0.9121680798976447,B,652,Correct
1,new_learn,4,388,A,38.53996653914951,56.58007197989167,1.9269983269574755,0.8887576923580468,A,1862,Correct
1,new_learn,4,389,A,42.81154915708483,60.4184089042044,2.1405774578542416,0.9490501477751634,B,2145,Correct
1,new_learn,4,390,B,46.775056292639185,35.18664896946215,2.338752814631959,0.5527105895345257,B,3733,Incorrect
1,new_learn,4,391,B,51.548601300684304,20.81812099917876,2.577430065034215,0.327010279962817,B,741,Correct
1,new_learn,4,392,A,25.030742357936752,35.57058212867652,1.2515371178968377,0.5587413974968126,A,1291,Correct
1,new_learn,4,393,A,52.34814061621313,69.13651667952668,2.6174070308106563,1.0859938644759461,B,625,Incorrect
1,new_learn,4,394,B,85.90291742889131,56.76061770706748,4.295145871444566,0.8915936980087096,B,565,Correct
1,new_learn,4,395,B,78.0275403741215,65.98398750253816,3.901377018706075,1.036474051962673,B,591,Correct
1,new_learn,4,396,B,52.0582711037057,27.2424246468618,2.6029135551852853,0.4279230056827727,A,1439,Incorrect
1,new_learn,4,397,B,38.53710204775457,26.820228015197877,1.9268551023877285,0.421291156500744,A,608,Correct
1,new_learn,4,398,B,34.19773792543259,10.80056963534852,1.7098868962716296,0.16965495110497952,A,689,Incorrect
1,new_learn,4,399,B,49.68984399826874,34.08525132834144,2.4844921999134373,0.535409875844396,A,598,Correct
1,new_learn,4,400,B,70.44523542228163,53.23135987937462,3.522261771114081,0.8361562456881888,B,606,Correct
1,new_learn,4,401,B,46.28200377494668,28.37078176563064,2.314100188747334,0.4456471978575224,B,599,Incorrect
1,new_learn,4,402,B,71.84431742322964,42.50942007584186,3.592215871161482,0.6677364090931363,B,317,Correct
1,new_learn,4,403,A,38.59777629201109,52.1694848292166,1.9298888146005544,0.8194763514051551,A,398,Incorrect
1,new_learn,4,404,B,44.38442133048131,31.442611506826992,2.2192210665240655,0.4938993865976279,A,343,Incorrect
1,new_learn,4,405,A,43.92605289142383,70.14315151041575,2.1963026445711917,1.1018060474237896,B,463,Correct
1,new_learn,4,406,B,62.039816277279506,52.26584918870069,3.1019908138639756,0.8209900392242706,B,624,Correct
1,new_learn,4,407,A,45.100672839078236,55.77371141435053,2.255033641953912,0.8760914102138041,B,905,Incorrect
1,new_learn,4,408,A,46.967420455148485,58.50259997684115,2.3483710227574246,0.9189566915157327,B,677,Correct
1,new_learn,4,409,B,65.29582547797979,52.473540520902766,3.2647912738989895,0.8242524470415723,B,933,Incorrect
1,new_learn,4,410,B,41.09384841402948,20.710875809176052,2.054692420701474,0.32532567645759025,B,521,Incorrect
1,new_learn,4,411,A,37.11881357316147,47.34893671948219,1.8559406786580734,0.7437553587660662,A,453,Correct
1,new_learn,4,412,A,56.620750307496905,69.9695873785718,2.8310375153748453,1.0990797084161514,A,481,Correct
1,new_learn,4,413,B,81.84642675501728,62.211133516847575,4.092321337750864,0.9772102001401104,A,883,Correct
1,new_learn,4,414,B,49.098439941792215,28.208671945010444,2.4549219970896106,0.4431007827498466,B,798,Correct
1,new_learn,4,415,A,59.13601137193398,77.9271732637018,2.956800568596699,1.2240771752013226,A,932,Incorrect
1,new_learn,4,416,B,72.28214122038717,49.26617751790146,3.614107061019359,0.7738713068034493,B,546,Incorrect
1,new_learn,4,417,A,31.045338580826375,44.35507763563573,1.552266929041319,0.6967279302475907,B,767,Correct
1,new_learn,4,418,B,78.39994079228383,60.90224659658361,3.9199970396141914,0.9566502524747053,A,1804,Correct
1,new_learn,4,419,B,51.77903663057141,38.47518235305563,2.5889518315285702,0.604366751129436,B,3682,Correct
1,new_learn,4,420,B,39.272369664140996,26.04768273307827,1.9636184832070498,0.40915604358638197,B,1092,Correct
1,new_learn,4,421,B,32.35047225640662,12.582643607093416,1.617523612820331,0.19764770359391626,B,880,Incorrect
1,new_learn,4,422,B,74.05729429434086,47.236724507298725,3.7028647147170433,0.7419927334588731,B,581,Correct
1,new_learn,4,423,A,44.372903420671555,68.81858057111623,2.2186451710335775,1.0809997357634802,B,703,Incorrect
1,new_learn,4,424,A,24.539227837829053,56.8964575134214,1.2269613918914528,0.8937274646972423,B,457,Incorrect
1,new_learn,4,425,B,42.15480786377216,22.30350228884833,2.107740393188608,0.3503425946998452,A,817,Incorrect
1,new_learn,4,426,A,34.003846934529854,48.191912474055684,1.7001923467264928,0.7569967909546784,B,330,Incorrect
1,new_learn,4,427,B,61.90116354172144,54.5220686636604,3.095058177086072,0.8564306518613689,B,528,Incorrect
1,new_learn,4,428,A,45.7688780311092,61.62017631209376,2.28844390155546,0.9679274660749078,A,1039,Incorrect
1,new_learn,4,429,A,20.83652477873776,35.36661875313022,1.041826238936888,0.5555375482857247,A,665,Correct
1,new_learn,4,430,A,44.99930460302023,62.8838701726144,2.249965230151011,0.9877775228178985,B,1818,Incorrect
1,new_learn,4,431,A,33.37192764489328,51.488202669555925,1.6685963822446641,0.8087747962660964,B,466,Incorrect
1,new_learn,4,432,A,33.945628128007066,45.34760987913924,1.6972814064003532,0.7123185902707988,A,634,Incorrect
1,new_learn,4,433,A,44.70549193436975,57.19269943911399,2.2352745967184875,0.898380821984448,B,1804,Correct
1,new_learn,4,434,B,82.8477698680545,57.7330444394526,4.142388493402725,0.9068685414017865,B,673,Incorrect
1,new_learn,4,435,B,56.08536789161088,43.89823402191606,2.804268394580544,0.6895518475440852,B,398,Incorrect
1,new_learn,4,436,B,39.75706432468226,14.83375058905775,1.9878532162341132,0.23300800937883548,B,367,Correct
1,new_learn,4,437,A,51.33203028584229,75.30064621959656,2.5666015142921146,1.1828197848702429,A,500,Correct
1,new_learn,4,438,A,38.14197078788087,64.17619824944745,1.9070985393940436,1.0080773647789312,A,1980,Incorrect
1,new_learn,4,439,B,49.0001271942439,35.50466497966352,2.4500063597121953,0.5577059733413885,A,2612,Incorrect
1,new_learn,4,440,A,17.310223690258624,42.68755461875753,0.8655111845129312,0.6705345399500084,A,2678,Incorrect
1,new_learn,4,441,A,51.91373079171885,67.89784338822926,2.5956865395859428,1.0665368299152567,B,1079,Incorrect
1,new_learn,4,442,B,66.94868114471385,41.761557084292036,3.3474340572356924,0.6559890046924133,B,739,Incorrect
1,new_learn,4,443,B,67.74780449242172,51.611572172558624,3.387390224621086,0.8107126798876478,B,2585,Correct
1,new_learn,4,444,A,66.33805219576402,87.4699272765177,3.316902609788201,1.373974404709707,B,1398,Correct
1,new_learn,4,445,A,25.883671999277254,43.36103722987639,1.2941835999638627,0.6811135800670658,B,1970,Correct
1,new_learn,4,446,A,33.144620160241196,63.54792774537707,1.6572310080120598,0.998208514778658,A,2728,Correct
1,new_learn,4,447,B,76.25584012885597,44.45544452401131,3.8127920064427987,0.6983044896435128,B,3397,Incorrect
1,new_learn,4,448,B,71.21094622468297,61.139043645532965,3.5605473112341484,0.9603698518215604,A,3364,Incorrect
1,new_learn,4,449,B,55.737991370941025,46.288262441787985,2.7868995685470512,0.7270943261727874,B,2834,Correct
1,new_learn,4,450,B,55.93412058412779,28.902157010515346,2.796706029206389,0.4539940206856687,B,1530,Incorrect
1,new_learn,4,451,B,73.65667650078714,42.87634360211895,3.6828338250393573,0.6735000303660431,A,2652,Incorrect
1,new_learn,4,452,B,52.01132371726249,45.37002038175593,2.6005661858631246,0.712670613622718,B,3292,Incorrect
1,new_learn,4,453,A,65.04908043287855,81.2574173384687,3.2524540216439277,1.276388526801066,A,1937,Correct
1,new_learn,4,454,B,52.30568499729367,27.481451945155683,2.6152842498646836,0.43167763770441014,B,6098,Correct
1,new_learn,4,455,A,39.86406825240954,53.72266734148906,1.993203412620477,0.8438736852563516,B,3571,Incorrect
1,new_learn,4,456,B,74.17079235593825,53.63588635060547,3.7085396177969123,0.8425105326391958,B,760,Incorrect
1,new_learn,4,457,A,27.21656554728714,48.47548461009855,1.360828277364357,0.7614511316514533,100,6257,Correct
1,new_learn,4,458,A,19.0893696820375,40.05580148801365,0.954468484101875,0.6291950584419739,A,1036,Correct
1,new_learn,4,459,B,47.62930346336942,37.47691170118167,2.3814651731684706,0.5886859523983284,A,6209,Incorrect
1,new_learn,4,460,B,30.973578779557094,14.020071309019137,1.5486789389778548,0.2202267651360978,A,1515,Incorrect
1,new_learn,4,461,A,57.796827139940305,77.60721477576638,2.8898413569970156,1.2190512790255645,A,6271,Incorrect
1,new_learn,4,462,B,46.230205011264104,38.79287271101523,2.311510250563205,0.609357019602847,B,4668,Incorrect
1,new_learn,4,463,B,68.82987344299603,45.20352834553505,3.4414936721498015,0.7100553628333544,A,1327,Correct
1,new_learn,4,464,B,67.41407589163661,41.247440767212495,3.370703794581831,0.6479132844682746,B,855,Incorrect
1,new_learn,4,465,B,51.02671467171276,31.378422305635105,2.551335733585638,0.49289110498310673,A,457,Correct
1,new_learn,4,466,A,48.19266974052778,58.0421066067398,2.409633487026389,0.9117232785730467,A,519,Correct
1,new_learn,4,467,B,50.99383578835037,27.728951875470305,2.549691789417518,0.4355653575186121,A,1440,Incorrect
1,new_learn,4,468,A,21.310894054951486,46.520185982153755,1.0655447027475744,0.7307373726258255,A,1216,Incorrect
1,new_learn,4,469,A,35.99967807437234,60.21950507565554,1.7999839037186172,0.9459257737424636,B,1496,Correct
1,new_learn,4,470,A,17.618672886989174,32.08071398912483,0.8809336443494586,0.5039226769507494,A,2764,Correct
1,new_learn,4,471,B,73.73209116745332,60.86508534713891,3.686604558372666,0.9560665249334368,B,3313,Incorrect
1,new_learn,4,472,B,66.64523000165784,45.83155540136964,3.332261500082892,0.7199203887576824,A,774,Incorrect
1,new_learn,4,473,B,50.52227329249037,20.38857757742747,2.526113664624518,0.3202630276719586,B,376,Correct
1,new_learn,4,474,A,32.145021372496174,54.89310540476399,1.6072510686248085,0.8622588833616835,B,1685,Correct
1,new_learn,4,475,B,65.50628204641363,42.42304701845615,3.2753141023206815,0.6663796642803811,A,4248,Correct
1,new_learn,4,476,B,62.098676780821734,44.19580609710228,3.1049338390410868,0.6942260987706774,B,1588,Incorrect
1,new_learn,4,477,B,40.95280800990759,20.361035181350573,2.0476404004953794,0.3198303927260714,A,366,Correct
1,new_learn,4,478,B,54.73781887657193,45.954138454133734,2.7368909438285964,0.7218459188477737,A,4462,Incorrect
1,new_learn,4,479,B,71.42996849920976,39.662725664023185,3.5714984249604877,0.623020637837213,A,1875,Correct
1,new_learn,4,480,B,32.5530635022885,14.964850791425285,1.627653175114425,0.2350673265420454,A,1847,Correct
1,new_learn,4,481,B,44.780975334183864,33.98313947616549,2.2390487667091934,0.533805906621194,A,4887,Correct
1,new_learn,4,482,B,38.28681663198692,18.552586230157612,1.9143408315993462,0.29142334302877154,B,2155,Incorrect
1,new_learn,4,483,A,36.00393030654147,66.22551275897698,1.8001965153270734,1.040267921819096,A,1046,Correct
1,new_learn,4,484,A,31.873679838495498,41.34474800912621,1.5936839919247747,0.6494417830499606,A,918,Correct
1,new_learn,4,485,A,56.91071918112,76.13254539242523,2.845535959056,1.1958872265196725,B,1190,Correct
1,new_learn,4,486,A,33.36254758541601,64.13874379985953,1.6681273792708005,1.007489031660583,B,874,Correct
1,new_learn,4,487,A,19.605756052297178,39.80471777757623,0.9802878026148589,0.6252510447412425,B,718,Correct
1,new_learn,4,488,B,55.307165074653284,33.09280963310142,2.7653582537326646,0.5198206381499848,B,1562,Correct
1,new_learn,4,489,A,45.6011663277839,54.36078890722025,2.280058316389195,0.8538972753713432,B,591,Correct
1,new_learn,4,490,A,34.88455874355208,51.93792248311661,1.744227937177604,0.8158389785783764,B,522,Correct
1,new_learn,4,491,B,58.900692756424384,26.111606939465872,2.945034637821219,0.41016016267225125,A,839,Correct
1,new_learn,4,492,B,44.95894384012966,32.25827496119513,2.2479471920064835,0.506711798177851,A,615,Correct
1,new_learn,4,493,B,79.38502861591441,48.206486990854145,3.9692514307957203,0.7572257269291967,B,1293,Correct
1,new_learn,4,494,A,29.243851235460184,60.77630103711991,1.4621925617730092,0.9546719042528881,A,705,Incorrect
1,new_learn,4,495,A,47.586202524860646,61.75106204605605,2.3793101262430323,0.9699834143762859,A,1839,Correct
1,new_learn,4,496,B,35.68493534956076,17.763703074726916,1.784246767478038,0.2790315954005625,A,786,Correct
1,new_learn,4,497,A,53.19692931400181,75.26653009062849,2.6598464657000904,1.182283889969568,A,827,Correct
1,new_learn,4,498,B,72.43417198401295,45.00073469480075,3.6217085992006472,0.7068698876166467,B,1146,Correct
1,new_learn,4,499,B,34.78650069254435,16.79763924706177,1.7393250346272173,0.26385670028110425,B,2929,Incorrect
1,new_learn,4,500,B,38.93361155189481,29.985182849900113,1.9466805775947407,0.47100615078896424,A,801,Correct
1,new_learn,4,501,A,65.95062832405553,80.5226493649932,3.2975314162027765,1.2648468184632475,B,3951,Incorrect
1,new_learn,4,502,B,45.217731790667116,19.197830011173632,2.260886589533356,0.3015588086398437,A,1324,Incorrect
1,new_learn,4,503,B,88.00072936747553,63.54212159886913,4.400036468373776,0.9981173120425828,B,450,Incorrect
1,new_learn,4,504,A,48.027459160963275,78.80345915676838,2.4013729580481638,1.2378418418218342,B,1647,Correct
1,new_learn,4,505,A,27.63205673816382,46.60866445775747,1.3816028369081907,0.7321271892706128,B,1024,Incorrect
1,new_learn,4,506,A,46.96498196346606,76.22635763502356,2.3482490981733033,1.1973608257804913,B,670,Correct
1,new_learn,4,507,A,34.36835830606597,57.89800404562231,1.7184179153032986,0.909459720836196,A,3580,Correct
1,new_learn,4,508,B,79.4574395272952,58.40960884695263,3.9728719763647597,0.9174959902631987,B,1232,Incorrect
1,new_learn,4,509,A,21.424974413982298,46.9505233366033,1.0712487206991148,0.7374970959823453,B,1686,Incorrect
1,new_learn,4,510,A,54.46369839095318,80.37671569311924,2.723184919547659,1.2625544977058942,B,3323,Incorrect
1,new_learn,4,511,A,57.55091080300792,77.60569835819459,2.877545540150396,1.2190274591940478,A,649,Incorrect
1,new_learn,4,512,B,54.588599127145095,41.710779559435636,2.729429956357255,0.6551913931971315,A,633,Correct
1,new_learn,4,513,A,20.6768370678667,41.40443825036877,1.033841853393335,0.6503793951668538,A,813,Incorrect
1,new_learn,4,514,A,37.731567397439136,50.89831157355752,1.8865783698719567,0.7995088085980633,B,1924,Incorrect
1,new_learn,4,515,A,49.953627483850546,71.81583596384532,2.4976813741925272,1.1280805133771306,A,535,Incorrect
1,new_learn,4,516,B,31.704488167337317,17.186399128356307,1.585224408366866,0.26996332621653096,A,562,Incorrect
1,new_learn,4,517,B,81.66348403629881,61.87502031882076,4.08317420181494,0.9719305463716325,B,1283,Correct
1,new_learn,4,518,A,44.44850971260003,51.3553129368195,2.2224254856300014,0.806687369225585,A,7304,Correct
1,new_learn,4,519,A,55.53966289958505,78.36788594244952,2.7769831449792526,1.2309998737708112,A,7135,Correct
1,new_learn,4,520,A,57.53407289083674,71.83163768263171,2.876703644541837,1.1283287261953976,B,1953,Incorrect
1,new_learn,4,521,A,17.674471874304267,41.80607946346189,0.8837235937152133,0.6566883605890149,A,3447,Correct
1,new_learn,4,522,B,66.8559215463745,39.70637434688559,3.342796077318725,0.62370626974431,B,3600,Correct
1,new_learn,4,523,A,53.48757215630833,77.58073752046911,2.6743786078154166,1.218635375271919,A,1147,Incorrect
1,new_learn,4,524,B,65.73904624347534,34.20269333330204,3.286952312173767,0.5372546505444313,B,1231,Incorrect
1,new_learn,4,525,B,45.29069969681511,21.047326594929334,2.264534984840756,0.3306106330416753,B,348,Incorrect
1,new_learn,4,526,A,55.89889286460279,67.98749837512587,2.79494464323014,1.0679451271562173,A,581,Incorrect
1,new_learn,4,527,A,24.865457686693823,47.66414119815515,1.243272884334691,0.748706579138954,A,421,Incorrect
1,new_learn,4,528,B,40.49072607757392,17.15746317234497,2.024536303878696,0.26950880128238186,A,854,Incorrect
1,new_learn,4,529,B,51.74364866362209,36.71908855962738,2.5871824331811046,0.5767820943271919,A,1719,Incorrect
1,new_learn,4,530,A,62.356332267965996,80.98427068961828,3.1178166133982996,1.27209794927416,A,567,Incorrect
1,new_learn,4,531,B,52.82293082489102,30.990952011012393,2.641146541244551,0.4868047358277518,A,144,Correct
1,new_learn,4,532,A,35.83646506768345,62.75125633843845,1.7918232533841723,0.985694429581841,B,809,Incorrect
1,new_learn,4,533,B,81.91443902554661,53.83587521400777,4.09572195127733,0.8456519503595182,B,257,Correct
1,new_learn,4,534,A,25.760567118483017,45.49674833880429,1.2880283559241508,0.7146612517170559,B,1545,Correct
1,new_learn,4,535,A,31.337479336865798,50.193002421739045,1.5668739668432898,0.7884298383487505,A,4655,Incorrect
1,new_learn,4,536,B,43.714796627481405,30.744591914874658,2.1857398313740704,0.4829349204869318,A,1172,Correct
1,new_learn,4,537,A,42.913207665616355,63.41929005668234,2.145660383280818,0.9961878786897672,A,958,Correct
1,new_learn,4,538,B,53.63307095261622,45.077131695447484,2.6816535476308108,0.7080699288965872,A,1390,Incorrect
1,new_learn,4,539,B,77.43449972265063,65.79382328156453,3.8717249861325316,1.0334869593647409,B,3720,Correct
1,new_learn,4,540,B,45.43313725564801,26.39657175032569,2.2716568627824008,0.4146363794538953,A,953,Correct
1,new_learn,4,541,A,37.79230816466922,56.90404546820409,1.8896154082334613,0.8938466560122477,A,788,Correct
1,new_learn,4,542,B,60.36406860450484,39.97196403092581,3.018203430225242,0.62787814274556,A,1519,Correct
1,new_learn,4,543,A,53.80130117804257,72.6292350730199,2.6900650589021287,1.1408573567062272,A,637,Correct
1,new_learn,4,544,B,46.621989909057135,34.02203595339342,2.3310994954528566,0.5344168910567428,A,689,Incorrect
1,new_learn,4,545,A,25.212232790624135,44.39339696186516,1.2606116395312068,0.6973298488164551,A,778,Correct
1,new_learn,4,546,A,69.39273082350161,86.59337400047474,3.4696365411750802,1.3602055380472242,B,1045,Incorrect
1,new_learn,4,547,B,47.833282848122,32.17154973018782,2.3916641424061003,0.5053495214347837,B,712,Incorrect
1,new_learn,4,548,B,45.24512203449194,18.78493934960246,2.262256101724597,0.2950731372942046,A,458,Correct
1,new_learn,4,549,B,56.46429423923712,37.60606375241444,2.823214711961856,0.5907146680750731,A,1589,Incorrect
1,new_learn,4,550,A,58.64151186702213,71.46971315040307,2.9320755933511067,1.1226436289373805,B,494,Correct
1,new_learn,4,551,B,89.9623428218607,67.01989733066047,4.498117141093036,1.0527460854917257,B,738,Incorrect
1,new_learn,4,552,A,14.900122200368827,33.48861940855617,0.7450061100184413,0.5260380035639232,A,576,Correct
1,new_learn,4,553,A,48.41533308069585,68.81680233183762,2.4207666540347925,1.0809718032462101,B,1264,Incorrect
1,new_learn,4,554,A,59.499325625318164,67.97647601300005,2.9749662812659086,1.0677719882968189,A,278,Incorrect
1,new_learn,4,555,A,44.72062554124361,66.56621659328776,2.2360312770621804,1.0456196851336992,B,561,Incorrect
1,new_learn,4,556,A,36.42460376447461,46.44366789968632,1.8212301882237307,0.7295354293970933,B,238,Correct
1,new_learn,4,557,B,55.70075150107889,42.521015731079025,2.7850375750539444,0.6679185532196694,B,711,Incorrect
1,new_learn,4,558,B,86.72481262025727,67.88523892691249,4.336240631012863,1.0663388394998807,B,290,Incorrect
1,new_learn,4,559,B,67.61694238555098,41.561474637995005,3.3808471192775493,0.6528461169754181,B,590,Incorrect
1,new_learn,4,560,B,63.82992480021375,35.8325032422067,3.1914962400106877,0.562855644727245,A,273,Incorrect
1,new_learn,4,561,A,43.737893511546574,60.31921899166826,2.186894675577329,0.9474920762724945,107,283,Correct
1,new_learn,4,562,A,28.14449878832655,41.24074630343798,1.4072249394163276,0.6478081280772059,100,607,Incorrect
1,new_learn,4,563,B,48.73064722755928,28.375749724610188,2.436532361377964,0.44572523437468986,107,542,Correct
1,new_learn,4,564,A,11.555234572912099,32.970415851076,0.5777617286456049,0.5178980811177042,A,525,Correct
1,new_learn,4,565,A,46.17896548533617,78.24716565989493,2.3089482742668084,1.2291036040067473,107,1081,Incorrect
1,new_learn,4,566,A,25.700124693587227,47.39098419246053,1.2850062346793611,0.74441583892712,107,2809,Correct
1,new_learn,4,567,B,40.80919347501148,26.733422307026153,2.0404596737505742,0.41992761562533426,A,626,Incorrect
1,new_learn,4,568,A,57.01110316042034,82.62548232801771,2.850555158021017,1.2978780414050688,B,772,Correct
1,new_learn,4,569,B,68.48084676352488,44.22287841492722,3.424042338176244,0.69465134974465,B,2434,Correct
1,new_learn,4,570,B,76.3671338393077,49.25172096836631,3.818356691965385,0.7736442238543698,B,1744,Incorrect
1,new_learn,4,571,A,19.350187142096306,45.8956211995738,0.9675093571048152,0.7209267319626053,A,696,Incorrect
1,new_learn,4,572,A,21.499622753157514,43.775342065447745,1.0749811376578757,0.6876214652059545,A,813,Incorrect
1,new_learn,4,573,A,19.33736974177872,42.0246463950438,0.9668684870889359,0.6601216019218921,B,2871,Incorrect
1,new_learn,4,574,A,12.697097543646649,36.476913011148454,0.6348548771823325,0.5729780097072895,A,1766,Correct
1,new_learn,4,575,A,49.98093442184074,61.01508375209484,2.499046721092037,0.9584226943687355,A,2665,Correct
1,new_learn,4,576,B,46.68471853315669,38.12735000228792,2.3342359266578345,0.5989030133401726,B,1819,Correct
1,new_learn,4,577,A,62.415309991571206,77.8326004596692,3.1207654995785608,1.2225916290694316,A,1487,Incorrect
1,new_learn,4,578,A,59.842719314028315,76.59471933094683,2.992135965701416,1.2031470377693734,B,4402,Correct
1,new_learn,4,579,A,31.231552907762268,57.82227259115674,1.5615776453881134,0.9082701339312222,B,924,Correct
1,new_learn,4,580,A,19.42904308562853,42.555612478384525,0.9714521542814265,0.6684619976555348,B,5717,Incorrect
1,new_learn,4,581,B,84.37026365302385,68.26768261659757,4.218513182651193,1.0723462509295127,A,892,Incorrect
1,new_learn,4,582,B,58.82536465752712,44.27718411888743,2.941268232876356,0.6955043817476971,A,286,Incorrect
1,new_learn,4,583,A,41.53593765525728,71.070369415921,2.076796882762864,1.1163707522248505,B,1017,Correct
1,new_learn,4,584,B,63.801521203263846,44.38630034917308,3.1900760601631926,0.697218375484961,B,758,Correct
1,new_learn,4,585,A,32.927488711733545,57.73320206599516,1.6463744355866772,0.9068710173937273,A,622,Correct
1,new_learn,4,586,B,52.293156649294176,24.9862800027827,2.614657832464709,0.3924835684863984,A,706,Incorrect
1,new_learn,4,587,B,79.89550636312264,59.685860613431544,3.994775318156132,0.9375433061317046,107,514,Correct
1,new_learn,4,588,A,62.853202894927975,78.88723970973699,3.1426601447463987,1.2391578636704337,107,394,Incorrect
1,new_learn,4,589,A,30.339136481613522,57.99528275383946,1.5169568240806763,0.9109877712116244,B,445,Incorrect
1,new_learn,4,590,A,46.518542612800516,54.94279595795194,2.3259271306400255,0.8630394207459239,A,686,Correct
1,new_learn,4,591,A,40.32707290816808,73.22854388087194,2.0163536454084037,1.1502712774461255,A,813,Correct
1,new_learn,4,592,B,73.78772893149153,42.981070549258924,3.6893864465745763,0.6751450774048823,A,1538,Incorrect
1,new_learn,4,593,B,59.634951892155705,33.85630333682363,2.9817475946077856,0.5318135692033635,B,1177,Correct
1,new_learn,4,594,A,63.247123615011255,74.64035930124865,3.1623561807505625,1.1724480222105267,B,1407,Correct
1,new_learn,4,595,A,48.32312315100286,61.016254142064305,2.4161561575501427,0.9584410788113851,A,756,Correct
1,new_learn,4,596,A,37.93703662411129,67.07072276471925,1.8968518312055647,1.0535444495429984,B,1628,Incorrect
1,new_learn,4,597,A,13.612720419356286,36.98333261127378,0.6806360209678144,0.5809328301842277,A,982,Correct
1,new_learn,4,598,B,66.88434489408141,57.73112298490271,3.344217244704071,0.9068383592642961,B,750,Correct
1,new_learn,4,599,B,83.59095053338439,60.28247452995807,4.17954752666922,0.9469148956176503,B,733,Correct
1,new_learn,4,600,B,21.332203223254762,50.33584571970342,1.066610161162738,0.7906736156262475,A,921,Incorrect
1,new_learn,4,601,A,79.24361760117661,33.58240823295024,3.9621808800588303,0.5275112349724493,B,2104,Incorrect
1,new_learn,4,602,B,17.719779275036757,52.02936868260076,0.8859889637518379,0.8172754121208671,A,2316,Incorrect
1,new_learn,4,603,B,20.361035181350573,59.04719199009241,1.0180517590675286,0.9275111228559019,A,2326,Incorrect
1,new_learn,4,604,B,27.54678709159692,47.10194582084483,1.3773393545798458,0.739875634802753,A,835,Incorrect
1,new_learn,4,605,B,17.405828735062563,58.58578410444591,0.8702914367531281,0.9202633447366246,A,1404,Incorrect
1,new_learn,4,606,B,37.73809584770615,36.002931361767985,1.8869047923853075,0.5655327233691393,A,3307,Incorrect
1,new_learn,4,607,B,26.207399388683434,46.91084625601289,1.3103699694341717,0.7368738498578519,B,1398,Correct
1,new_learn,4,608,B,33.1793293007335,36.652530639673465,1.658966465036675,0.5757366049653647,A,1336,Incorrect
1,new_learn,4,609,B,32.17154973018782,52.166717151878,1.608577486509391,0.8194328768311828,B,1290,Correct
1,new_learn,4,610,A,60.56002514544513,54.731993470501905,3.0280012572722566,0.8597281430162665,A,3542,Correct
1,new_learn,4,611,B,17.53109952599697,68.15659315639219,0.8765549762998487,1.0706012617691503,B,4063,Correct
1,new_learn,4,612,B,38.895377702985726,30.804953977854566,1.9447688851492864,0.4838830855549978,A,2728,Incorrect
1,new_learn,4,613,B,52.873648626398364,27.684590388736424,2.643682431319918,0.43486852891448474,B,1993,Correct
1,new_learn,4,614,B,19.25655979373695,56.34587389325526,0.9628279896868476,0.8850789174157383,B,751,Correct
1,new_learn,4,615,A,46.74996846419038,66.88010169471778,2.337498423209519,1.0505501807773183,A,991,Correct
1,new_learn,4,616,B,34.62479407328689,43.55263238353556,1.7312397036643445,0.6841231497030613,A,2328,Incorrect
1,new_learn,4,617,B,49.6784348763239,19.862089113569994,2.483921743816195,0.3119929662206865,A,1235,Incorrect
1,new_learn,4,618,A,62.38154850019477,53.46283635925471,3.1190774250097384,0.8397922697315394,B,1127,Incorrect
1,new_learn,4,619,B,14.572327427349364,66.05693771892047,0.7286163713674683,1.0376199512819952,A,6432,Incorrect
1,new_learn,4,620,B,24.528355081880505,59.98239346462704,1.2264177540940253,0.9422012332660236,A,3335,Incorrect
1,new_learn,4,621,A,67.07072276471925,62.06296337588871,3.3535361382359623,0.9748827490085218,B,1675,Incorrect
1,new_learn,4,622,A,43.36103722987639,74.11632800072275,2.1680518614938196,1.16421655779061,A,582,Correct
1,new_learn,4,623,B,38.12735000228792,53.31528146684331,1.906367500114396,0.8374744829015349,A,235,Incorrect
1,new_learn,4,624,B,13.866561078172346,60.57345030656766,0.6933280539086172,0.9514855324284969,B,430,Correct
1,new_learn,4,625,A,76.24599403202984,42.988807694703226,3.812299701601492,0.6752666122013201,B,304,Incorrect
1,new_learn,4,626,B,44.88808313511437,34.74594387560259,2.2444041567557185,0.5457880101081818,A,258,Incorrect
1,new_learn,4,627,B,23.149984060410354,64.8332743191502,1.1574992030205178,1.0183986915460703,B,248,Correct
1,new_learn,4,628,A,84.82812408486637,37.488087498105656,4.241406204243319,0.5888615014059005,A,3737,Correct
1,new_learn,4,629,B,40.67646975039415,33.353608802746734,2.033823487519707,0.523917261927085,B,1708,Correct
1,new_learn,4,630,A,75.76239008624762,36.59421437512306,3.7881195043123808,0.574820575223883,A,1195,Correct
1,new_learn,4,631,B,43.19449600004175,31.25051792382034,2.1597248000020874,0.4908819876517507,A,564,Incorrect
1,new_learn,4,632,A,37.2651952972829,87.86420895806158,1.8632597648641451,1.3801677668806238,B,1177,Incorrect
1,new_learn,4,633,A,51.488202669555925,66.62807235510672,2.5744101334777962,1.0465913131682625,A,473,Correct
1,new_learn,4,634,A,40.5315156898455,76.95439888866494,2.026575784492275,1.2087968710502415,B,952,Incorrect
1,new_learn,4,635,A,68.81858057111623,55.627096579328445,3.4409290285558116,0.8737883897707407,A,273,Correct
1,new_learn,4,636,B,25.48271327871272,50.46764920470676,1.274135663935636,0.7927439799272676,A,269,Incorrect
1,new_learn,4,637,A,49.707935541599895,78.74049094508788,2.4853967770799947,1.2368527394657085,A,110,Correct
1,new_learn,4,638,B,41.37284404311611,49.505863182962415,2.0686422021558055,0.7776362804260807,B,482,Correct
1,new_learn,4,639,A,48.20040502683091,62.399537229036035,2.410020251341545,0.980169638730712,A,319,Correct
1,new_learn,4,640,A,65.47435942793565,51.01373931699639,3.273717971396783,0.8013219433521033,B,294,Incorrect
1,new_learn,4,641,B,30.82670148026522,55.541514679430584,1.5413350740132612,0.8724440724307438,B,607,Correct
1,new_learn,4,642,B,60.29484486616024,24.120610909527244,3.014742243308012,0.37888567016734304,A,489,Incorrect
1,new_learn,4,643,B,57.57619665588258,19.430612895349924,2.878809832794129,0.30521535363389213,B,250,Correct
1,new_learn,4,644,B,32.25827496119513,55.04105615987034,1.6129137480597564,0.8645828883883595,B,283,Correct
1,new_learn,4,645,B,45.19704696751806,30.834762426448535,2.259852348375903,0.4843513155705865,A,370,Incorrect
1,new_learn,4,646,B,61.95479801172496,12.227861365149948,3.097739900586248,0.19207479716934767,A,1548,Incorrect
1,new_learn,4,647,A,47.535747092641046,70.5515546809893,2.376787354632052,1.1082212294256728,B,172,Incorrect
1,new_learn,4,648,A,70.14315151041575,56.07394710857617,3.5071575755207873,0.8808075014704275,B,131,Incorrect
1,new_learn,4,649,B,54.80778582065735,23.542103441399348,2.7403892910328675,0.3697984961077559,B,317,Correct
1,new_learn,4,650,B,53.633323836112375,21.889043355218007,2.681666191805619,0.3438322889943069,A,281,Incorrect
1,new_learn,4,651,B,45.00073469480075,27.56582801598705,2.2500367347400374,0.43300301392572316,B,152,Correct
1,new_learn,4,652,B,29.059118945986373,39.39361113933495,1.4529559472993188,0.6187933967685386,B,399,Correct
1,new_learn,4,653,B,58.962409411665206,18.493655483406826,2.94812047058326,0.2904976610234574,B,360,Correct
1,new_learn,4,654,A,77.60569835819459,42.44908919699208,3.880284917909729,0.6667887338642408,B,359,Incorrect
1,new_learn,4,655,A,80.32818945346492,43.70183031750959,4.016409472673246,0.6864667453695792,A,184,Correct
1,new_learn,4,656,B,52.26584918870069,37.960183722720494,2.6132924594350344,0.5962771715610877,A,804,Incorrect
1,new_learn,4,657,A,35.44781506009282,89.16444046405971,1.772390753004641,1.4005917556166723,B,181,Incorrect
1,new_learn,4,658,B,10.086028410639742,67.55524650811286,0.5043014205319871,1.0611553307066743,A,5204,Incorrect
1,new_learn,4,659,B,61.580869818737845,12.3794173981845,3.0790434909368924,0.1944554337692905,B,1825,Correct
1,new_learn,4,660,B,26.574244481098138,57.875890208943964,1.328712224054907,0.9091123575019391,A,4230,Incorrect
1,new_learn,4,661,B,21.430851885703852,49.12751132556629,1.0715425942851926,0.7716931433477421,B,1644,Correct
1,new_learn,4,662,B,39.0199695172168,32.32445233064787,1.9509984758608399,0.5077513098663842,B,676,Correct
1,new_learn,4,663,B,45.75448957731525,32.499291675430655,2.2877244788657625,0.5104976798720243,B,1035,Correct
1,new_learn,4,664,B,19.265202337407658,58.27261312711878,0.9632601168703829,0.9153440665281826,A,1199,Incorrect
1,new_learn,4,665,A,48.191912474055684,65.99615306547014,2.4095956237027845,1.0366651481783424,A,1021,Correct
1,new_learn,4,666,A,88.41845622984337,32.42015058698834,4.420922811492169,0.509254534561787,B,1288,Incorrect
1,new_learn,4,667,B,38.42772755356347,54.07713048202581,1.9213863776781737,0.8494415792477448,A,524,Incorrect
1,new_learn,4,668,A,80.94166920515576,43.29988877121699,4.047083460257788,0.6801530623245523,A,841,Correct
1,new_learn,4,669,A,51.879506474780726,64.574619675787,2.5939753237390364,1.0143357539090367,A,689,Correct
1,new_learn,4,670,B,35.41568652174563,47.347418086394214,1.7707843260872813,0.7437315041333027,A,1523,Incorrect
1,new_learn,4,671,A,32.16777876501864,88.9861278562271,1.6083889382509318,1.3977908277226254,B,781,Incorrect
1,new_learn,4,672,A,80.24704787853429,38.5239931690117,4.012352393926715,0.6051334696335527,B,1232,Incorrect
1,new_learn,4,673,A,65.30361318572614,57.5304442342357,3.265180659286307,0.9036861048201608,A,1513,Correct
1,new_learn,4,674,A,87.4699272765177,33.66194780423598,4.373496363825884,0.5287606396365541,B,684,Incorrect
1,new_learn,4,675,A,46.54468315060256,70.23106928332048,2.327234157530128,1.103187056571177,A,374,Correct
1,new_learn,4,676,A,80.67604102145981,46.761967919464254,4.033802051072991,0.7345352744159523,A,496,Correct
1,new_learn,4,677,B,20.672347603600173,49.87953156337451,1.0336173801800086,0.7835058496199878,A,2034,Incorrect
1,new_learn,4,678,B,60.86508534713891,26.26790883254668,3.043254267356945,0.41261534706747544,B,508,Correct
1,new_learn,4,679,A,78.3724153243476,35.876843196568245,3.9186207662173795,0.5635521351016588,B,527,Incorrect
1,new_learn,4,680,B,12.588578673898652,60.26978414814717,0.6294289336949326,0.9467155555663085,B,243,Correct
1,new_learn,4,681,B,32.99941898165001,44.38739440883499,1.6499709490825005,0.6972355609339433,A,278,Incorrect
1,new_learn,4,682,B,30.744591914874658,56.285203372518595,1.5372295957437327,0.8841259071045593,A,986,Incorrect
1,new_learn,4,683,A,71.364188388074,41.56093350733357,3.5682094194037,0.6528376169148651,B,777,Incorrect
1,new_learn,4,684,A,31.394411825890703,86.0916479775531,1.5697205912945353,1.3523244441085966,B,76,Incorrect
1,new_learn,4,685,B,65.9710849351809,18.6723158698086,3.298554246759045,0.293304051810494,A,3449,Incorrect
1,new_learn,4,686,B,46.15278346020194,37.43348601747184,2.307639173010097,0.5880038233537288,B,3026,Correct
1,new_learn,4,687,A,71.46971315040307,41.35848813297787,3.5734856575201537,0.6496576124107196,B,3694,Incorrect
1,new_learn,4,688,B,19.197830011173632,54.782268209332884,0.9598915005586817,0.8605178567671291,A,1501,Incorrect
1,new_learn,4,689,A,45.4651076091549,71.8353684824445,2.273255380457745,1.128387329461817,B,1072,Incorrect
1,new_learn,4,690,A,55.77371141435053,54.899327160921764,2.7886855707175267,0.862356614478872,B,261,Incorrect
1,new_learn,4,691,A,58.0421066067398,51.80733025947222,2.90210533033699,0.8137876407262905,B,312,Incorrect
1,new_learn,4,692,A,70.33036483257237,41.79545591648691,3.516518241628619,0.6565214863033566,B,281,Incorrect
1,new_learn,4,693,B,36.51033828143616,54.058473647968356,1.8255169140718082,0.8491485183836741,B,697,Correct
1,new_learn,4,694,B,33.90362581361037,58.21208782717543,1.6951812906805186,0.9143933373398909,B,719,Correct
1,new_learn,4,695,B,57.386555773632594,18.595278091541786,2.86932778868163,0.2920939452192345,A,597,Incorrect
1,new_learn,4,696,A,68.25065576518705,41.40639058050296,3.4125327882593526,0.6504100622968885,B,582,Incorrect
1,new_learn,4,697,A,58.41547148616569,64.75880711543108,2.9207735743082845,1.0172289634453835,B,288,Incorrect
1,new_learn,4,698,A,38.566256656625214,81.43642031973204,1.9283128328312609,1.2792002990556037,A,164,Correct
1,new_learn,4,699,B,47.09950687172705,44.107497470102736,2.3549753435863523,0.6928389501015257,A,379,Incorrect
1,new_learn,4,700,A,44.246172899509546,77.87467281179937,2.212308644975477,1.2232525000312884,A,260,Correct
1,new_learn,4,701,B,39.97196403092581,39.63593139549516,1.9985982015462906,0.6225997544513832,107,260,Incorrect
1,new_learn,4,702,B,53.83587521400777,18.085560974453387,2.6917937607003886,0.28408732746696513,B,198,Correct
1,new_learn,4,703,A,67.89675095257923,54.43506696184636,3.394837547628961,0.8550640323250248,A,334,Correct
1,new_learn,4,704,A,64.18889804872687,61.719835129739494,3.2094449024363434,0.9694929031218142,A,424,Correct
1,new_learn,4,705,B,48.29331535528048,26.593891839172315,2.4146657677640238,0.4177358761615265,A,266,Incorrect
1,new_learn,4,706,A,60.14969987669006,70.66860559220967,3.007484993834503,1.1100598608396024,B,294,Incorrect
1,new_learn,4,707,B,30.292696215451087,37.117855035842766,1.5146348107725545,0.5830459034880727,B,452,Correct
1,new_learn,4,708,A,44.5298688672582,84.53715536528628,2.22649344336291,1.327906531254812,A,1578,Correct
1,new_learn,4,709,A,57.027165037160984,54.70264484269955,2.8513582518580494,0.8592671358487824,B,3847,Incorrect
1,new_learn,4,710,B,64.83925311115667,21.15685841184022,3.2419626555578334,0.33233115479838327,A,388,Incorrect
1,new_learn,4,711,B,45.20352834553505,31.170126557003968,2.2601764172767527,0.4896192030147389,A,615,Incorrect
1,new_learn,4,712,A,42.92992584935395,74.1069058646412,2.146496292467697,1.1640685552231358,B,1252,Incorrect
1,new_learn,4,713,B,51.02842609634466,37.11703784281251,2.551421304817233,0.5830330670499706,B,276,Correct
1,new_learn,4,714,A,43.496072459909904,74.59928392749856,2.174803622995495,1.1718028117484431,B,621,Incorrect
1,new_learn,4,715,A,36.476913011148454,87.30290245635335,1.8238456505574225,1.37135078496973,B,110,Incorrect
1,new_learn,4,716,B,47.05344540043921,33.60112327945906,2.3526722700219604,0.5278052102355678,A,501,Incorrect
1,new_learn,4,717,A,51.930962185339574,79.47981559464625,2.5965481092669784,1.2484660239040608,A,316,Correct
1,new_learn,4,718,A,71.97717070244154,37.314143229276475,3.5988585351220768,0.5861291912204615,107,519,Correct
1,new_learn,4,719,B,31.725027488099904,45.61060438523532,1.586251374404995,0.7164496983122285,A,435,Incorrect
1,new_learn,4,720,B,42.521015731079025,44.29924849892111,2.126050786553951,0.6958509682187961,A,1033,Incorrect
1,new_learn,4,721,B,33.540355891105435,47.32398370533356,1.6770177945552718,0.7433633977363949,B,461,Correct
1,new_learn,4,722,A,69.44476176271701,60.08360872681463,3.4722380881358506,0.943791118886622,A,1231,Correct
1,new_learn,4,723,A,36.98333261127378,86.3872795806437,1.8491666305636891,1.3569682144707889,B,533,Incorrect
1,new_learn,4,724,A,73.03948445258754,42.692257202601596,3.651974222629377,0.6706084079642955,B,486,Incorrect
1,new_learn,4,725,A,41.531289077017895,74.96858794569702,2.076564453850895,1.1776038257010104,A,2345,Correct
1,new_learn,4,726,A,55.8238718993575,57.14424653408027,2.7911935949678752,0.8976197255319529,A,1704,Correct
1,new_learn,4,727,B,22.30350228884833,57.84519213622784,1.1151751144424165,0.9086301533033171,A,1205,Incorrect
1,new_learn,4,728,A,47.39098419246053,74.29987530641277,2.3695492096230266,1.1670997121263202,A,936,Correct
1,new_learn,4,729,B,41.27653787133614,46.60600141248759,2.063826893566807,0.7320853582533329,A,956,Incorrect
1,new_learn,4,730,B,38.6498517971926,47.48932107252448,1.9324925898596303,0.7459605110270492,B,621,Correct
1,new_learn,4,731,A,66.22705279164084,64.80168132554938,3.3113526395820423,1.0179024299630641,A,765,Correct
1,new_learn,4,732,A,79.45820010787058,39.81460733411475,3.9729100053935293,0.6254063895320859,B,824,Incorrect
1,new_learn,4,733,A,63.55941870431328,57.214858785095885,3.177970935215664,0.8987289001771734,A,725,Correct
1,new_learn,4,734,B,28.426997219202534,47.20812897839535,1.4213498609601265,0.7415435559412314,A,856,Incorrect
1,new_learn,4,735,A,51.08810079996864,61.856492523496996,2.554405039998432,0.9716395124432506,A,1168,Correct
1,new_learn,4,736,A,41.04612803423559,80.38521333360677,2.05230640171178,1.2626879783305367,B,672,Incorrect
1,new_learn,4,737,B,23.88985388676289,50.98194267131461,1.1944926943381444,0.8008224828096899,A,713,Incorrect
1,new_learn,4,738,A,62.53139610432966,53.56457074031522,3.1265698052164828,0.8413903096523255,B,1058,Incorrect
1,new_learn,4,739,A,86.31674818384113,41.623524008984035,4.315837409192056,0.6538207862157132,B,1809,Incorrect
1,new_learn,4,740,B,55.023994617354006,26.558995586054692,2.7511997308677003,0.41718772709936586,B,2006,Correct
1,new_learn,4,741,A,67.70928090405747,57.535569570213035,3.385464045202873,0.9037666134094285,A,1692,Correct
1,new_learn,4,742,B,36.495402241553826,44.847559439022376,1.8247701120776911,0.7044638163253214,A,629,Incorrect
1,new_learn,4,743,B,11.477841995918837,68.21379757610251,0.5738920997959418,1.0714998266927245,B,255,Correct
1,new_learn,4,744,A,42.0246463950438,80.66263025822128,2.1012323197521905,1.2670456331922886,107,1649,Correct
1,new_learn,4,745,B,18.82378166867568,50.72935346708364,0.9411890834337839,0.7968548208677493,A,10625,Incorrect
1,new_learn,4,746,B,18.24461313650776,58.881536907510224,0.9122306568253878,0.9249090189035519,B,2102,Correct
1,new_learn,4,747,B,27.481451945155683,47.69431500270633,1.3740725972577843,0.7491805481524983,A,2561,Incorrect
1,new_learn,4,748,B,34.48283913645861,33.82621851350271,1.7241419568229304,0.5313409979037158,A,821,Incorrect
1,new_learn,4,749,A,43.3499876857847,75.15949618795594,2.167499384289235,1.1806026053579624,B,3118,Incorrect
1,new_learn,4,750,A,76.01252126154141,43.99822135220569,3.80062606307707,0.6911224448555349,B,1253,Incorrect
1,new_learn,4,751,B,55.46195055208606,19.73845678152007,2.773097527604303,0.31005095409011546,B,354,Correct
1,new_learn,4,752,B,34.436814176561825,56.8002559604159,1.7218407088280911,0.8922163342363122,B,586,Correct
1,new_learn,4,753,B,28.37078176563064,53.71799622505332,1.4185390882815319,0.8438003115309587,B,529,Correct
1,new_learn,4,754,A,45.34760987913924,66.05437187199294,2.267380493956962,1.0375796470527066,A,572,Correct
1,new_learn,4,755,B,24.921284649221654,58.26325005714399,1.2460642324610829,0.9151969917689432,A,834,Incorrect
1,new_learn,4,756,B,15.685286573755285,63.18101514306897,0.7842643286877643,0.9924450650990547,B,1238,Correct
1,new_learn,4,757,B,49.763635793101614,32.52631615923403,2.488181789655081,0.510922179470943,A,913,Incorrect
1,new_learn,4,758,A,55.42888671806894,55.91371487767955,2.771444335903447,0.878290579473162,B,335,Incorrect
1,new_learn,4,759,B,24.101362208823105,45.358906030478856,1.2050681104411551,0.7124960298011107,107,279,Incorrect
1,new_learn,4,760,B,46.288262441787985,44.262008629058975,2.3144131220893995,0.6952660057108986,B,373,Correct
1,new_learn,4,761,B,25.78077083047024,44.12721562695348,1.289038541523512,0.6931486821850489,B,863,Correct
1,new_learn,4,762,A,67.11328517769418,59.13165153907026,3.355664258884709,0.9288378103488735,A,266,Correct
1,new_learn,4,763,B,53.00951504080124,25.657944713861156,2.650475752040062,0.4030340530963964,B,312,Correct
1,new_learn,4,764,A,81.80664153591482,44.560209916949475,4.090332076795741,0.6999501405875377,A,1075,Correct
1,new_learn,4,765,B,64.2264774869254,19.138051134122378,3.2113238743462706,0.30061980423492335,A,206,Incorrect
1,new_learn,4,766,A,57.89800404562231,65.63164169393403,2.894900202281115,1.0309394169435036,A,193,Correct
1,new_learn,4,767,B,45.37002038175593,47.98867628273751,2.2685010190877963,0.7538043643267345,B,246,Correct
1,new_learn,4,768,A,65.334832757074,51.22927048208179,3.2667416378536998,0.8047074989763628,A,81,Correct
1,new_learn,4,769,B,57.47548925715476,31.002025364793752,2.8737744628577384,0.4869786756622024,A,228,Incorrect
1,new_learn,4,770,A,48.862781128873166,63.06917775734763,2.443139056443658,0.9906883275521606,A,411,Correct
1,new_learn,4,771,A,63.54792774537707,66.8553798397588,3.1773963872688533,1.0501618507877069,B,268,Incorrect
1,new_learn,4,772,A,77.60721477576638,42.203172860059695,3.8803607387883186,0.6629258890767183,A,217,Correct
1,new_learn,4,773,B,13.410924821493012,68.34867932637103,0.6705462410746506,1.073618544271459,A,619,Incorrect
1,new_learn,4,774,A,80.5226493649932,34.04937167594447,4.02613246824966,0.5348462795824777,A,306,Correct
1,new_learn,4,775,A,62.29852420327321,48.85384009529974,3.114926210163661,0.7673943257152208,B,266,Incorrect
1,new_learn,4,776,A,77.16102705658211,44.96121607914583,3.8580513528291056,0.7062491306535391,A,280,Correct
1,new_learn,4,777,B,35.8325032422067,36.17007519978625,1.791625162110335,0.5681582126371942,A,287,Incorrect
1,new_learn,4,778,A,58.73117719416655,53.19141591819792,2.9365588597083274,0.8355288074132489,B,429,Incorrect
1,new_learn,4,779,A,42.40288549332762,72.48299032556474,2.120144274666381,1.1385601495850712,A,369,Correct
1,new_learn,4,780,A,51.7547542065339,66.21068576021901,2.587737710326695,1.0400350198672317,A,781,Correct
1,new_learn,4,781,A,30.962551456792447,85.07640283053695,1.5481275728396224,1.336377010631304,A,752,Correct
1,new_learn,4,782,B,42.97506551683254,36.41600402779191,2.1487532758416266,0.5720212536340369,A,736,Incorrect
1,new_learn,4,783,A,72.10831620198901,54.338281607813904,3.6054158100994504,0.8535437315390075,B,442,Incorrect
1,new_learn,4,784,A,41.24074630343798,71.85550121167344,2.062037315171899,1.1287035736330289,A,263,Correct
1,new_learn,4,785,B,54.78024805096227,29.314095789552354,2.7390124025481133,0.4604647398954258,A,312,Incorrect
1,new_learn,4,786,B,36.71908855962738,48.25635133637791,1.835954427981369,0.7580089942370642,B,204,Correct
1,new_learn,4,787,B,53.359621201081005,22.74006195629009,2.6679810600540503,0.3572000579202884,B,221,Correct
1,new_learn,4,788,B,56.76061770706748,14.097082571108686,2.838030885353374,0.2214364552122188,B,208,Correct
1,new_learn,4,789,B,14.913970311466173,66.64671408879936,0.7456985155733087,1.0468841368363573,B,230,Correct
1,new_learn,4,790,B,35.201654116620844,48.26444182051441,1.760082705831042,0.7581360792647004,B,319,Correct
1,new_learn,4,791,A,77.02453493611759,52.39654392508582,3.8512267468058794,0.8230429873427226,B,527,Incorrect
1,new_learn,4,792,B,23.9665610973989,56.86994320194633,1.1983280548699449,0.8933109788665168,B,251,Correct
1,new_learn,4,793,A,70.73610009632115,60.902305149460716,3.5368050048160575,0.9566511722211481,A,216,Correct
1,new_learn,4,794,A,80.37671569311924,45.53630160904682,4.018835784655962,0.7152825530331528,A,246,Correct
1,new_learn,4,795,A,76.61820449615804,51.36927667549478,3.8309102248079023,0.8069067111197796,B,247,Incorrect
1,new_learn,4,796,B,63.64625516244578,22.894564979350577,3.182312758122289,0.3596269857313096,B,127,Correct
1,new_learn,4,797,B,28.902157010515346,44.06587941587221,1.4451078505257673,0.692185215234389,A,122,Incorrect
1,new_learn,4,798,B,23.894691759538023,52.941161318521274,1.1947345879769011,0.8315978173538928,A,220,Incorrect
1,new_learn,4,799,B,49.056526558601256,21.1286900880917,2.452826327930063,0.33188868780362185,B,24,Correct
1,new_learn,4,800,B,20.006638254112726,53.471120298953196,1.0003319127056363,0.8399223935520371,B,251,Correct
1,new_learn,4,801,B,24.815718493240475,53.2112212013024,1.2407859246620236,0.8358399080727654,B,297,Correct
1,new_learn,4,802,A,76.59471933094683,40.157280685971685,3.829735966547341,0.6307890899559596,B,300,Incorrect
1,new_learn,4,803,A,59.32463392739785,73.41222528841294,2.9662316963698925,1.1531565382487845,A,483,Correct
1,new_learn,4,804,A,58.07042353854123,67.2942169716699,2.9035211769270615,1.0570550883363785,A,1077,Correct
1,new_learn,4,805,A,33.28624744487256,78.10317224385096,1.664312372243628,1.2268417607167021,A,464,Correct
1,new_learn,4,806,A,82.57981340320704,32.65829272836858,4.128990670160352,0.5129952625711384,B,639,Incorrect
1,new_learn,4,807,A,47.66414119815515,75.13454231330618,2.3832070599077575,1.180210630811571,A,323,Correct
1,new_learn,4,808,A,71.24193389371905,48.68510592202975,3.5620966946859527,0.764743855519448,A,441,Correct
1,new_learn,4,809,B,51.84132868051768,22.706593331843877,2.5920664340258837,0.3566743339968585,A,454,Incorrect
1,new_learn,4,810,A,66.93016835371361,44.60044465549511,3.3465084176856807,0.700582146382708,B,287,Incorrect
1,new_learn,4,811,B,33.74653984652883,46.49126038525654,1.6873269923264416,0.7302830104122606,A,242,Incorrect
1,new_learn,4,812,A,47.424575791497546,74.91233577582196,2.3712287895748774,1.1767202186828705,B,316,Incorrect
1,new_learn,4,813,A,71.83163768263171,42.46592710916326,3.5915818841315854,0.6670532231701347,B,269,Incorrect
1,new_learn,4,814,A,75.76250933344039,51.53372677176782,3.7881254666720197,0.8094898871914471,B,37,Incorrect
1,new_learn,4,815,B,19.108013171433946,59.86861156871294,0.9554006585716973,0.9404139514244474,B,284,Correct
1,new_learn,4,816,A,64.33129097163658,56.90698517714784,3.216564548581829,0.8938928328523545,A,251,Correct
1,new_learn,4,817,A,46.013970027814075,70.55155299368697,2.3006985013907038,1.1082212029215899,B,283,Incorrect
1,new_learn,4,818,A,81.73514348651665,49.284967573962696,4.086757174325832,0.7741664603138619,A,433,Correct
1,new_learn,4,819,B,41.186802542321544,41.704993578106794,2.0593401271160774,0.6551005072149491,A,292,Incorrect
1,new_learn,4,820,B,53.030492551367146,36.3374820748873,2.6515246275683575,0.5707878336820836,B,227,Correct
1,new_learn,4,821,A,52.52695824087001,78.4759137442451,2.6263479120435007,1.2326967705133336,B,242,Incorrect
1,new_learn,4,822,B,56.04586617264968,33.95033153915246,2.8022933086324837,0.5332905607516961,B,256,Correct
1,new_learn,4,823,B,40.23290810633568,51.503740728951875,2.011645405316784,0.8090188675323431,B,170,Correct
1,new_learn,4,824,A,66.90939876998816,43.123660823710274,3.345469938499408,0.6773848801983308,B,448,Incorrect
1,new_learn,4,825,A,50.41273905528071,77.62917968617683,2.5206369527640358,1.2193963030314756,B,213,Incorrect
1,new_learn,4,826,A,68.62216160760397,50.64506813097711,3.4311080803801985,0.7955308699041612,A,135,Correct
1,new_learn,4,827,A,49.08365919225833,70.54621689876603,2.4541829596129165,1.1081373837385773,A,254,Correct
1,new_learn,4,828,A,87.90535256622029,33.69405739854898,4.395267628311014,0.5292650159645714,A,240,Correct
1,new_learn,4,829,A,42.1758399856396,74.5501089454458,2.10879199928198,1.171030372936656,A,279,Correct
1,new_learn,4,830,A,35.473072562414806,86.95332898952203,1.7736536281207405,1.3658596977932942,A,363,Correct
1,new_learn,4,831,B,48.305172570658385,20.057359502586323,2.415258628532919,0.3150602663186731,A,934,Incorrect
1,new_learn,4,832,A,82.27358540798068,47.36882980555968,4.113679270399034,0.7440678386314575,B,482,Incorrect
1,new_learn,4,833,B,24.293833058103424,52.59113675446565,1.214691652905171,0.8260996443588272,B,386,Correct
1,new_learn,4,834,B,37.47691170118167,52.37069653663058,1.8738455850590836,0.8226369775142953,A,202,Incorrect
1,new_learn,4,835,B,68.65796223850208,14.243231330662695,3.432898111925104,0.22373215455894946,B,251,Correct
1,new_learn,4,836,A,39.75025427804824,69.42888676367825,1.9875127139024118,1.0905864030184462,107,273,Correct
1,new_learn,4,837,B,23.853150679666314,48.839112805431355,1.1926575339833156,0.7671629899869317,B,269,Correct
1,new_learn,4,838,B,57.332850968064164,16.576875268428523,2.8666425484032083,0.26038894781384686,B,256,Correct
1,new_learn,4,839,A,87.82540995585448,32.966351234493715,4.391270497792724,0.5178342342697313,B,179,Incorrect
1,new_learn,4,840,A,50.42628797304453,57.492584382202814,2.5213143986522266,0.9030914036550982,107,222,Correct
1,new_learn,4,841,A,61.016254142064305,51.67687684899714,3.050812707103215,0.8117384833463693,107,268,Correct
1,new_learn,4,842,A,71.1537968316342,42.15997078358946,3.5576898415817095,0.6622472724464248,107,11,Correct
1,new_learn,4,843,A,42.23090879699295,85.62864587849705,2.1115454398496474,1.3450516241436412,100,216,Incorrect
1,new_learn,4,844,A,72.53302975782235,55.392958334872304,3.6266514878911176,0.8701105548272016,107,230,Correct
1,new_learn,4,845,B,63.91424595647415,24.94426688754514,3.1957122978237074,0.3918236280154747,107,263,Incorrect
1,new_learn,4,846,A,67.97647601300005,40.500674374681836,3.3988238006500024,0.6361831054046642,107,122,Correct
1,new_learn,4,847,A,43.01092359614013,69.62560489118223,2.1505461798070065,1.0936764441394184,107,277,Correct
1,new_learn,4,848,A,77.9907898660892,44.69324894858364,3.89953949330446,0.7020399128096505,107,274,Correct
1,new_learn,4,849,A,40.333667497424585,68.09888785344376,2.016683374871229,1.0696948289900707,B,45,Incorrect
1,new_learn,4,850,A,54.32149911126184,77.86833340629329,2.7160749555630925,1.2231529208824583,107,20,Correct
1,new_learn,4,851,B,58.27693337447526,17.79112724390896,2.9138466687237634,0.2794623732427281,107,396,Incorrect
1,new_learn,4,852,B,36.51047393562347,45.2797428170346,1.8255236967811737,0.7112525369521555,107,214,Incorrect
1,new_learn,4,853,A,34.80646951050075,81.04954889767845,1.7403234755250372,1.2731233369685666,107,327,Correct
1,new_learn,4,854,A,75.61115869318166,38.474517308069466,3.7805579346590834,0.6043563046272219,100,502,Incorrect
1,new_learn,4,855,A,39.80471777757623,80.39424394770282,1.9902358888788114,1.2628298308850443,100,181,Incorrect
1,new_learn,4,856,B,22.26339765057458,56.841827389748005,1.1131698825287288,0.8928693367212569,107,84,Incorrect
1,new_learn,4,857,A,43.59443935362677,77.07441542298808,2.1797219676813384,1.210682086362936,B,241,Incorrect
1,new_learn,4,858,A,50.88452952043081,75.35088907340011,2.5442264760215405,1.183608997772266,107,98,Correct
1,new_learn,4,859,A,50.81234097901381,78.02234719493919,2.5406170489506907,1.2255721638172656,100,241,Incorrect
1,new_learn,4,860,A,82.56040266186874,34.728783107558016,4.128020133093437,0.5455184493940879,107,200,Correct
1,new_learn,4,861,A,88.64200124670353,32.13234649595029,4.432100062335177,0.5047337184713957,107,234,Correct
1,new_learn,4,862,B,37.60606375241444,43.53570576076288,1.8803031876207223,0.6838572669342976,107,234,Incorrect
1,new_learn,4,863,A,35.22569545335523,88.93788688417408,1.7612847726677614,1.3970330603056067,100,205,Incorrect
1,new_learn,4,864,A,51.89569601836478,60.188483085097516,2.594784800918239,0.9454384814542794,100,254,Incorrect
1,new_learn,4,865,A,52.41093512563342,64.1180166407107,2.620546756281671,1.0071634502060245,107,311,Correct
1,new_learn,4,866,B,44.38630034917308,36.198478796736154,2.2193150174586536,0.568604375294761,107,263,Incorrect
1,new_learn,4,867,A,76.96617077336634,43.53529390179208,3.8483085386683173,0.6838507974687127,107,291,Correct
1,new_learn,4,868,B,20.34264079409497,59.95966117566703,1.0171320397047483,0.9418441553060434,100,380,Correct
1,new_learn,4,869,B,49.02874831108649,20.431794861275648,2.451437415554324,0.32094188317918637,100,237,Correct
1,new_learn,4,870,A,41.80607946346189,82.32552812569574,2.0903039731730946,1.293166371812928,100,392,Incorrect
1,new_learn,4,871,B,35.50466497966352,50.9998728057561,1.775233248983176,0.8011041287028862,B,409,Correct
1,new_learn,4,872,A,66.524066062285,58.24816001447575,3.3262033031142497,0.9149599579329987,107,279,Correct
1,new_learn,4,873,B,18.78493934960246,54.75487796550806,0.939246967480123,0.8600876118232287,100,324,Correct
1,new_learn,4,874,B,18.677703582156663,53.61068895082288,0.9338851791078332,0.8421147328089634,100,246,Correct
1,new_learn,4,875,A,48.47548461009855,72.78343445271287,2.423774230504927,1.143279514898385,107,221,Correct
1,new_learn,4,876,B,45.954138454133734,45.26218112342807,2.2977069227066864,0.7109766785140611,100,332,Correct
1,new_learn,4,877,B,54.05339436562945,23.05543868817837,2.7026697182814723,0.36215398404035537,107,297,Incorrect
1,new_learn,4,878,B,22.829778434860234,59.93712135720946,1.1414889217430118,0.9414901006656456,107,253,Incorrect
1,new_learn,4,879,A,82.35966669558164,37.09274243893978,4.1179833347790815,0.5826514357383578,100,373,Incorrect
1,new_learn,4,880,B,23.320225938622595,52.071182365020825,1.1660112969311298,0.8179322199084191,100,217,Correct
1,new_learn,4,881,B,48.206486990854145,20.614971384085592,2.4103243495427074,0.3238192132710355,107,271,Incorrect
1,new_learn,4,882,B,27.317933371899166,61.493095339663235,1.3658966685949583,0.9659312828279139,107,334,Incorrect
1,new_learn,4,883,B,15.488002981096315,61.3503872765884,0.7744001490548158,0.9636896298150942,100,256,Correct
1,new_learn,4,884,A,78.80345915676838,51.972540839036725,3.9401729578384193,0.8163827624415665,107,346,Correct
1,new_learn,4,885,B,61.018737062152894,18.553898313358303,3.050936853107645,0.2914439531834925,107,263,Incorrect
1,new_learn,4,886,B,29.985182849900113,61.06638844810519,1.4992591424950057,0.9592285866491393,B,204,Correct
1,new_learn,4,887,B,46.80673325751701,30.059574936396643,2.3403366628758504,0.4721746989510778,B,325,Correct
1,new_learn,4,888,A,44.343291440888926,74.7984479210304,2.2171645720444464,1.1749312724431393,107,257,Correct
1,new_learn,4,889,B,22.315186860309137,46.36846895973527,1.1157593430154569,0.7283542072105533,107,276,Incorrect
1,new_learn,4,890,A,53.88590495128152,73.96327439957237,2.6942952475640762,1.1618123974457129,100,196,Incorrect
1,new_learn,4,891,B,59.685860613431544,20.104493636877365,2.9842930306715774,0.31580064756878334,B,299,Correct
1,new_learn,4,892,B,38.647130746961174,39.276902382125165,1.932356537348059,0.6169601398972394,B,257,Correct
1,new_learn,4,893,B,33.123655751106334,43.9225213735353,1.6561827875553166,0.6899333523711958,B,268,Correct
1,new_learn,4,894,A,52.981402182531966,74.09603849445993,2.649070109126598,1.1638978509715092,B,228,Incorrect
1,new_learn,4,895,B,27.2424246468618,47.9417288962943,1.3621212323430898,0.7530669165049583,A,216,Incorrect
1,new_learn,4,896,A,71.5051535257354,50.09437584665321,3.57525767628677,0.7868806157300585,A,223,Correct
1,new_learn,4,897,B,38.51813504421177,44.74230169204572,1.9259067522105884,0.7028104315021452,A,278,Incorrect
1,new_learn,4,898,A,71.61764465147466,59.299356477733966,3.5808822325737335,0.9314721133652568,B,257,Incorrect
