experiment,condition,subject,trial,cat,x,y,xt,yt,resp,rt,fb
1,new_learn,32,0,B,57.56932974448827,42.649998405765984,2.8784664872244137,0.669944608335854,B,8760,Correct
1,new_learn,32,1,A,27.446658943558273,38.806507050129824,1.3723329471779135,0.6095711873008418,B,1598,Incorrect
1,new_learn,32,2,B,61.65556991464244,31.160135482166186,3.0827784957321223,0.48946226357817973,A,2091,Incorrect
1,new_learn,32,3,B,73.0983976401613,61.01955502384023,3.654919882008065,0.9584929289410732,B,582,Correct
1,new_learn,32,4,A,40.8645780659008,49.02495352288233,2.0432289032950397,0.7700821691503409,A,1173,Correct
1,new_learn,32,5,B,50.12387157661898,19.72152064217811,2.506193578830949,0.3097849218354311,A,1009,Incorrect
1,new_learn,32,6,B,62.85819632541307,54.835438068551355,3.1429098162706532,0.861353046962695,B,1766,Correct
1,new_learn,32,7,A,23.061970585669847,34.84517059463404,1.1530985292834925,0.547346659765927,A,1143,Correct
1,new_learn,32,8,B,52.00361376570019,38.49349121690376,2.6001806882850094,0.6046543460902405,B,1353,Correct
1,new_learn,32,9,A,30.07935152635566,55.240498296696906,1.5039675763177829,0.8677157181477123,A,751,Correct
1,new_learn,32,10,A,43.856316854273274,68.63027526020929,2.1928158427136637,1.078041842856594,A,872,Correct
1,new_learn,32,11,A,47.906244999153444,55.33660639665858,2.395312249957672,0.8692253806516628,B,2741,Incorrect
1,new_learn,32,12,B,64.59440917629685,34.53347282508948,3.2297204588148425,0.5424505226512194,B,636,Correct
1,new_learn,32,13,B,35.231214532934004,20.234005217813557,1.7615607266467004,0.3178350107249031,A,527,Incorrect
1,new_learn,32,14,A,15.01812793633636,39.053887795959625,0.7509063968168179,0.6134570349695342,A,926,Correct
1,new_learn,32,15,A,53.83831865977717,70.8503180860206,2.691915932988859,1.1129141940177119,B,715,Incorrect
1,new_learn,32,16,B,65.36617207511343,40.086639444179475,3.268308603755671,0.6296794599246854,B,915,Correct
1,new_learn,32,17,A,67.73778735204495,81.2899140115878,3.3868893676022473,1.276898983348751,B,2118,Incorrect
1,new_learn,32,18,B,44.60155202897005,15.509587008690882,2.230077601448502,0.24362402303357483,A,1284,Incorrect
1,new_learn,32,19,A,55.32294414923622,83.03253396355659,2.766147207461811,1.304271993544272,A,882,Correct
1,new_learn,32,20,A,16.445457872008,39.722947590447625,0.8222728936004,0.6239666016454131,A,1530,Correct
1,new_learn,32,21,B,60.31157544859769,47.87762663081196,3.015578772429884,0.7520600004733694,B,1497,Correct
1,new_learn,32,22,B,81.04297185274073,60.21416432073754,4.052148592637036,0.9458418813603883,B,766,Correct
1,new_learn,32,23,B,41.35839590520809,27.91649178019469,2.0679197952604045,0.4385112274532974,A,1260,Incorrect
1,new_learn,32,24,B,70.45751437518365,39.39736074960808,3.522875718759183,0.6188522955089781,B,614,Correct
1,new_learn,32,25,A,28.90558989956497,59.47919414529881,1.4452794949782484,0.9342969968415588,A,630,Correct
1,new_learn,32,26,A,68.87614391015487,86.34077268591912,3.443807195507743,1.356237685876749,A,3190,Correct
1,new_learn,32,27,B,81.35855996945241,52.80686724922543,4.067927998472621,0.8294883310462902,B,1479,Correct
1,new_learn,32,28,A,36.23124277333887,61.633598643412626,1.8115621386669434,0.9681383035622346,A,1005,Correct
1,new_learn,32,29,A,57.17408627620841,73.11178424906576,2.8587043138104207,1.1484372214385346,B,1543,Incorrect
1,new_learn,32,30,A,22.816147792750026,38.31197107956838,1.1408073896375013,0.6018030344405833,A,628,Correct
1,new_learn,32,31,B,66.79299239791581,34.84549526687649,3.3396496198957903,0.5473517597055854,B,1221,Correct
1,new_learn,32,32,A,33.873606273164626,44.76011564365984,1.6936803136582312,0.7030902523997565,A,790,Correct
1,new_learn,32,33,B,45.72655836382167,31.54673908146469,2.286327918191083,0.49553501871521743,A,1607,Incorrect
1,new_learn,32,34,B,59.80121650902866,33.520945921893116,2.990060825451433,0.5265457872480007,B,685,Correct
1,new_learn,32,35,B,54.69294338055355,23.388522460127003,2.7346471690276775,0.3673860516952744,B,915,Correct
1,new_learn,32,36,B,52.54317872251404,33.5728802717347,2.627158936125702,0.527361570107657,B,773,Correct
1,new_learn,32,37,B,85.907644424557,59.23455475482266,4.29538222122785,0.9304542102820662,A,740,Incorrect
1,new_learn,32,38,A,61.08819051133746,84.55454642530346,3.0544095255668733,1.3281797093867522,B,627,Incorrect
1,new_learn,32,39,B,68.06158506303564,36.820392166714164,3.4030792531517817,0.5783733676662219,B,710,Correct
1,new_learn,32,40,A,62.89005480033573,72.98534945099196,3.1445027400167866,1.1464511882746007,A,555,Correct
1,new_learn,32,41,B,36.78785259083074,26.437912350944952,1.8393926295415368,0.41528575608989765,B,479,Correct
1,new_learn,32,42,A,35.707994366451594,49.57144768182559,1.7853997183225798,0.7786664793251703,A,491,Correct
1,new_learn,32,43,A,18.490600246509263,37.276711755337004,0.9245300123254632,0.585541219002755,A,596,Correct
1,new_learn,32,44,A,36.079109537377455,57.81512509628554,1.8039554768688728,0.9081578613443277,A,630,Correct
1,new_learn,32,45,A,32.304558494889044,46.35790282965844,1.6152279247444523,0.7281882348274223,A,833,Correct
1,new_learn,32,46,A,55.988373258021554,77.9924386089664,2.7994186629010778,1.2251023608474088,A,1039,Correct
1,new_learn,32,47,B,47.88758279854894,38.04848257794317,2.394379139927447,0.5976641667355276,B,706,Correct
1,new_learn,32,48,B,46.56687188496609,34.720059930674594,2.328343594248304,0.5453814260520231,B,700,Correct
1,new_learn,32,49,B,59.89600874260411,37.64312895183793,2.9948004371302055,0.5912968868661365,B,708,Correct
1,new_learn,32,50,B,68.24484031782119,46.28572998726665,3.412242015891059,0.7270545464701884,B,906,Correct
1,new_learn,32,51,A,36.10909541699872,66.0868395987312,1.805454770849936,1.0380896489117046,A,739,Correct
1,new_learn,32,52,B,46.13630041695165,29.063238296992488,2.3068150208475826,0.45652427961680564,B,1331,Correct
1,new_learn,32,53,A,46.00184096512943,53.358348650539284,2.3000920482564715,0.8381509806410853,A,685,Correct
1,new_learn,32,54,A,38.39948221538169,58.734612412912746,1.9199741107690844,0.9226011343392527,A,1021,Correct
1,new_learn,32,55,A,26.990395735977867,53.543065503084044,1.3495197867988933,0.8410525061758296,A,643,Correct
1,new_learn,32,56,A,22.187084156080918,52.09770455278239,1.109354207804046,0.8183488294595633,A,622,Correct
1,new_learn,32,57,A,27.55015988276401,40.20596425060927,1.3775079941382007,0.6315538096010397,A,1127,Correct
1,new_learn,32,58,A,28.565584634304265,53.269288876745165,1.428279231715213,0.8367520329856755,A,634,Correct
1,new_learn,32,59,B,43.317698621025905,29.601783731809363,2.1658849310512953,0.4649837315250307,B,830,Correct
1,new_learn,32,60,B,57.350728353400314,44.60472344134429,2.8675364176700158,0.7006493573936582,A,891,Incorrect
1,new_learn,32,61,A,36.29538244175609,56.15445436386323,1.8147691220878044,0.8820721064792801,A,663,Correct
1,new_learn,32,62,B,79.56512582400433,64.3788447453925,3.9782562912002164,1.0112605284936147,B,535,Correct
1,new_learn,32,63,B,67.02373583437559,50.503859347732956,3.3511867917187796,0.7933127675238502,B,531,Correct
1,new_learn,32,64,B,68.05624198771338,42.4127506047769,3.402812099385669,0.6662179285925158,B,568,Correct
1,new_learn,32,65,A,53.11160879666536,60.11419355710293,2.655580439833268,0.9442715442773473,A,781,Correct
1,new_learn,32,66,A,40.405595702634635,56.31069475297509,2.0202797851317316,0.8845263247724192,A,908,Correct
1,new_learn,32,67,B,47.7283660751933,37.018067776818086,2.386418303759665,0.5814784488887037,B,945,Correct
1,new_learn,32,68,A,45.138349697904744,70.23885044097364,2.2569174848952374,1.1033092827097748,A,1331,Correct
1,new_learn,32,69,B,40.081388655718996,25.779343649316274,2.0040694327859496,0.4049409831152935,A,1489,Incorrect
1,new_learn,32,70,A,23.77441198403051,56.04834442226202,1.1887205992015255,0.8804053354142439,A,605,Correct
1,new_learn,32,71,B,77.40483713508279,51.91480185379472,3.8702418567541397,0.8154758005822562,B,1334,Correct
1,new_learn,32,72,A,49.40472661080345,74.07679581369081,2.4702363305401724,1.1635955876488109,A,842,Correct
1,new_learn,32,73,A,16.715026186598458,35.01820962286272,0.8357513093299229,0.5500647504652647,A,790,Correct
1,new_learn,32,74,A,39.3456472980848,51.134023642325104,1.96728236490424,0.8032113651160767,A,679,Correct
1,new_learn,32,75,B,71.43038963682609,50.96150992453269,3.5715194818413045,0.8005015259737762,B,1143,Correct
1,new_learn,32,76,A,47.48983265106629,61.58166523020051,2.374491632553314,0.9673225354151195,A,701,Correct
1,new_learn,32,77,A,17.673975338370223,42.94394640485824,0.8836987669185112,0.6745619327082821,A,563,Correct
1,new_learn,32,78,A,31.578277026395398,54.68508613801567,1.5789138513197698,0.8589913243605753,A,637,Correct
1,new_learn,32,79,B,71.78774818858354,55.997441558391905,3.5893874094291767,0.879605755098339,B,542,Correct
1,new_learn,32,80,A,39.50942905109085,62.84286405918759,1.9754714525545425,0.9871334002944289,A,509,Correct
1,new_learn,32,81,A,41.78531105760932,74.41724263700547,2.089265552880466,1.1689433138441276,A,1155,Correct
1,new_learn,32,82,A,49.00113293098672,55.718932381658334,2.4500566465493363,0.8752309431804213,A,641,Correct
1,new_learn,32,83,A,24.626948683457854,49.88927777590442,1.2313474341728927,0.7836589427684092,A,643,Correct
1,new_learn,32,84,B,75.0585872397042,62.427676247116565,3.7529293619852098,0.9806116453931172,B,891,Correct
1,new_learn,32,85,B,57.88695485273974,25.25555167196636,2.8943477426369872,0.3967132779750346,A,1137,Incorrect
1,new_learn,32,86,A,36.832679633696635,58.99932504458531,1.841633981684832,0.9267592306341276,A,647,Correct
1,new_learn,32,87,A,51.232711530350265,69.79879706782692,2.561635576517513,1.0963969404884493,B,1024,Incorrect
1,new_learn,32,88,B,67.47548688093597,50.46548694583411,3.373774344046799,0.7927100152443203,B,768,Correct
1,new_learn,32,89,B,66.7707665697313,58.38691754769154,3.3385383284865644,0.9171395561679035,B,807,Correct
1,new_learn,32,90,B,79.24968220098494,49.06937167821729,3.9624841100492465,0.7707798879027725,B,704,Correct
1,new_learn,32,91,A,52.82371203764957,69.27342990672396,2.641185601882478,1.0881444924196573,A,1156,Correct
1,new_learn,32,92,A,31.518188795159777,61.42247825155769,1.575909439757989,0.9648220322018625,A,603,Correct
1,new_learn,32,93,A,35.46262359275414,67.04996243760007,1.7731311796377072,1.0532183470871799,A,451,Correct
1,new_learn,32,94,A,35.489311814609195,44.814151297891996,1.7744655907304598,0.7039390424715949,A,1115,Correct
1,new_learn,32,95,B,66.67359398398908,52.46332161974947,3.333679699199454,0.8240919289176175,B,792,Correct
1,new_learn,32,96,A,30.08321885080288,63.03520215865307,1.504160942540144,0.9901546400958599,A,569,Correct
1,new_learn,32,97,A,39.71980169338435,56.46167602909968,1.9859900846692173,0.8868979331119323,A,599,Correct
1,new_learn,32,98,B,59.65924267965972,52.04950555353595,2.982962133982986,0.8175917213498484,B,1106,Correct
1,new_learn,32,99,B,62.66108850861635,46.33446526986897,3.1330544254308177,0.7278200784991588,B,527,Correct
1,new_learn,32,100,A,24.29862054744247,40.080167182222084,1.2149310273721234,0.6295777938715982,A,550,Correct
1,new_learn,32,101,A,28.48560361667123,38.04406642522943,1.4242801808335617,0.5975947979709144,A,756,Correct
1,new_learn,32,102,A,56.65803411439184,75.5812984082686,2.832901705719592,1.1872282591409726,B,1131,Incorrect
1,new_learn,32,103,A,25.292942010117113,51.97951218511491,1.2646471005058557,0.8164922680896908,A,472,Correct
1,new_learn,32,104,A,51.94125128277487,77.40024679890979,2.597062564138744,1.2158002336474596,A,818,Correct
1,new_learn,32,105,B,63.11162188572047,55.78288270760092,3.155581094286023,0.8762354725513007,B,1869,Correct
1,new_learn,32,106,B,69.7443833995645,50.770265393627696,3.4872191699782253,0.7974974639071244,B,795,Correct
1,new_learn,32,107,B,58.5220783237712,26.291790082570017,2.92610391618856,0.4129904728656348,B,1860,Correct
1,new_learn,32,108,A,31.142052301002813,47.86623477211467,1.5571026150501408,0.7518810575753989,A,452,Correct
1,new_learn,32,109,A,45.68456198817625,59.69027684895825,2.2842280994088124,0.9376126761971406,A,1024,Correct
1,new_learn,32,110,A,26.412073487388398,52.530057865883684,1.3206036743694198,0.8251402194205345,A,687,Correct
1,new_learn,32,111,A,44.67707163759747,54.72136966924027,2.2338535818798735,0.8595612647362827,A,1447,Correct
1,new_learn,32,112,A,40.29451856137992,70.26286966773237,2.0147259280689958,1.1036865758414256,A,1457,Correct
1,new_learn,32,113,B,67.72091758759228,37.09329345586747,3.386045879379614,0.5826600910920179,B,690,Correct
1,new_learn,32,114,A,64.2590660009992,79.2074533622173,3.21295330004996,1.2441877679614899,A,2112,Correct
1,new_learn,32,115,B,33.6300360352221,10.961069305184765,1.681501801761105,0.17217607402328516,A,2443,Incorrect
1,new_learn,32,116,B,80.9064242496282,57.14046771211058,4.045321212481411,0.8975603679352567,B,691,Correct
1,new_learn,32,117,B,55.46060023459558,26.317569811294028,2.7730300117297793,0.41339541989748924,B,1681,Correct
1,new_learn,32,118,B,74.44868917154766,49.96464213974676,3.7224344585773825,0.784842763427357,B,731,Correct
1,new_learn,32,119,B,65.86199309258937,41.82883307729165,3.2930996546294686,0.657045773519266,B,622,Correct
1,new_learn,32,120,A,32.250661263806194,47.32381244985385,1.6125330631903096,0.74336070766161,A,694,Correct
1,new_learn,32,121,A,37.016101826078945,61.974193466201946,1.850805091303947,0.973488354527863,A,1187,Correct
1,new_learn,32,122,B,53.916910136191724,25.01867931919536,2.695845506809586,0.3929924957585152,B,699,Correct
1,new_learn,32,123,A,45.271020282873664,67.74609770448895,2.263551014143683,1.064153214288994,A,1840,Correct
1,new_learn,32,124,B,70.11128133509106,46.1863213255165,3.505564066754553,0.7254930388629013,B,699,Correct
1,new_learn,32,125,B,43.63705711225987,33.04071472218452,2.1818528556129935,0.5190023332028549,A,688,Incorrect
1,new_learn,32,126,B,72.58627410477203,57.864265087088064,3.6293137052386015,0.908929750514841,B,675,Correct
1,new_learn,32,127,B,53.86218193244644,38.26272764415629,2.693109096622322,0.6010295203659426,B,1197,Correct
1,new_learn,32,128,B,78.256310887421,55.13024852681677,3.91281554437105,0.8659839188121353,B,691,Correct
1,new_learn,32,129,A,49.456926957880796,63.36269857198172,2.47284634789404,0.9952989417268111,A,1998,Correct
1,new_learn,32,130,B,71.36255850408472,50.59853120653454,3.568127925204236,0.794799869604414,B,759,Correct
1,new_learn,32,131,B,70.51540313498754,52.449737616219814,3.5257701567493767,0.8238785518891418,B,720,Correct
1,new_learn,32,132,A,24.810331546467907,56.464063998825395,1.2405165773233953,0.8869354432526689,A,2101,Correct
1,new_learn,32,133,B,66.32635297334971,45.75742183066047,3.3163176486674852,0.7187559013520608,B,1073,Correct
1,new_learn,32,134,B,54.13031833471692,33.863247443955046,2.7065159167358455,0.5319226469831125,B,1741,Correct
1,new_learn,32,135,A,50.35522485450028,77.27105234514869,2.517761242725014,1.2137708519133574,A,1046,Correct
1,new_learn,32,136,B,57.19433204442756,40.132910849794705,2.8597166022213782,0.6304062894644458,B,660,Correct
1,new_learn,32,137,A,29.38422476689086,60.46807528318992,1.469211238344543,0.9498303054319199,A,698,Correct
1,new_learn,32,138,B,59.24583601619379,29.611474893675478,2.9622918008096892,0.46513595993964735,B,883,Correct
1,new_learn,32,139,A,43.29145594540932,62.76864177472661,2.164572797270466,0.9859675193764527,A,2665,Correct
1,new_learn,32,140,B,58.06672835461034,44.07212772248917,2.9033364177305168,0.6922833634052152,B,738,Correct
1,new_learn,32,141,A,34.93992743377316,67.81241075257718,1.7469963716886578,1.0651948572125498,A,737,Correct
1,new_learn,32,142,A,19.174047797661792,41.177541757397805,0.9587023898830895,0.6468153133896394,A,709,Correct
1,new_learn,32,143,B,38.367529150304115,25.72646095746228,1.9183764575152056,0.40411030373414064,A,1577,Incorrect
1,new_learn,32,144,B,59.30022245788658,37.211661943398695,2.965011122894329,0.5845194189462413,B,625,Correct
1,new_learn,32,145,B,79.37089224045539,56.017464954952885,3.96854461202277,0.8799202818760183,B,614,Correct
1,new_learn,32,146,A,44.21617313601195,51.922076639301984,2.2108086568005976,0.8155900726457864,A,828,Correct
1,new_learn,32,147,B,32.19354683338495,11.191261218364268,1.6096773416692474,0.1757919201400877,B,1345,Correct
1,new_learn,32,148,A,18.7242255506494,43.81633905146378,0.9362112775324701,0.6882654443563908,A,747,Correct
1,new_learn,32,149,B,55.88350330222328,30.550286839599018,2.794175165111164,0.47988278350172614,B,700,Correct
1,new_learn,32,150,B,73.63769864438267,54.22143427058515,3.6818849322191336,0.8517082978578607,B,602,Correct
1,new_learn,32,151,B,64.40289268732897,36.97251685549491,3.2201446343664486,0.580762936689738,B,645,Correct
1,new_learn,32,152,A,12.361463569091725,35.223984213407405,0.6180731784545863,0.5532970501750178,A,777,Correct
1,new_learn,32,153,B,35.57406425156123,12.926548908532794,1.7787032125780615,0.20304975543657894,A,1398,Incorrect
1,new_learn,32,154,A,23.497184351295907,45.88798922872123,1.1748592175647954,0.7208068492447909,A,834,Correct
1,new_learn,32,155,A,49.32701902965684,56.43013697638686,2.466350951482842,0.8864025188304135,B,713,Incorrect
1,new_learn,32,156,B,85.14414933745164,68.3494200274162,4.257207466872582,1.073630179176269,B,836,Correct
1,new_learn,32,157,B,49.490568846607715,29.85894737757488,2.474528442330386,0.4690232486265673,A,1653,Incorrect
1,new_learn,32,158,A,26.233333898285355,56.66997061647317,1.3116666949142677,0.8901698168393077,A,642,Correct
1,new_learn,32,159,A,18.334838169155837,41.44477016963864,0.9167419084577918,0.6510129274732707,A,751,Correct
1,new_learn,32,160,A,13.413189403852872,36.171387035265326,0.6706594701926436,0.5681788189007132,A,506,Correct
1,new_learn,32,161,A,17.075366416923988,31.926885199634167,0.8537683208461994,0.5015063399758769,A,593,Correct
1,new_learn,32,162,B,70.96429003745715,47.70850095993553,3.5482145018728573,0.7494033806475751,B,2269,Correct
1,new_learn,32,163,B,72.75686682048179,56.935897116643446,3.637843341024089,0.8943469805359566,B,1152,Correct
1,new_learn,32,164,A,30.155263166844946,43.72985487305894,1.5077631583422473,0.686906954058749,A,1058,Correct
1,new_learn,32,165,A,26.695814401561012,43.50938663191137,1.3347907200780507,0.6834438470250536,A,597,Correct
1,new_learn,32,166,B,47.08692430498842,21.837122701309795,2.354346215249421,0.34301672126986876,B,2929,Correct
1,new_learn,32,167,B,40.39180744193301,20.48871135325912,2.0195903720966504,0.3218359253446032,B,853,Correct
1,new_learn,32,168,B,53.12586697428595,33.14128183552313,2.6562933487142977,0.5205820377251417,B,742,Correct
1,new_learn,32,169,B,77.16806824302742,63.46929921435489,3.858403412151371,0.9969734207015487,B,1647,Correct
1,new_learn,32,170,B,75.32311810599722,58.70548442583412,3.7661559052998608,0.9221435929881524,B,591,Correct
1,new_learn,32,171,B,43.41530392846224,31.981095315472782,2.170765196423112,0.5023578704842212,A,1034,Incorrect
1,new_learn,32,172,A,51.10272637951586,69.74308772973193,2.5551363189757925,1.0955218602519712,B,1002,Incorrect
1,new_learn,32,173,B,71.79507342006227,50.91043968118189,3.5897536710031135,0.7996993164671367,B,664,Correct
1,new_learn,32,174,B,82.45892223745338,52.80333975856933,4.122946111872669,0.8294329213526362,B,601,Correct
1,new_learn,32,175,A,22.108836128521396,38.5037992789092,1.1054418064260698,0.6048162647495856,A,694,Correct
1,new_learn,32,176,B,39.43396969864003,12.491357263830594,1.9716984849320014,0.1962137810670785,B,1755,Correct
1,new_learn,32,177,B,41.465378772144405,14.23182261471371,2.07326893860722,0.22355294686788837,B,625,Correct
1,new_learn,32,178,A,18.33943013227279,43.99857166675056,0.9169715066136394,0.6911279475835379,A,592,Correct
1,new_learn,32,179,A,58.975664571704904,86.08020306269853,2.9487832285852456,1.3521446678064566,A,1779,Correct
1,new_learn,32,180,B,34.070356779899676,18.48250658455141,1.7035178389949837,0.2903225345297584,A,1049,Incorrect
1,new_learn,32,181,A,37.05257106819388,53.2414010345697,1.852628553409694,0.836313971785161,A,1086,Correct
1,new_learn,32,182,B,33.36058790601027,15.136515450092983,1.6680293953005134,0.23776382869480256,B,635,Correct
1,new_learn,32,183,A,38.782025353996666,60.8599511813928,1.9391012676998332,0.9559858776464853,A,1400,Correct
1,new_learn,32,184,A,22.536653898954587,47.16112235311755,1.1268326949477292,0.7408051775980172,A,750,Correct
1,new_learn,32,185,B,65.21191809277428,48.069609306047845,3.260595904638714,0.7550756572840572,B,1085,Correct
1,new_learn,32,186,B,66.91611597284248,48.06993340402617,3.345805798642124,0.7550807482031962,B,666,Correct
1,new_learn,32,187,B,45.85136836163267,31.36682629241149,2.2925684180816335,0.49270895523333547,B,1818,Correct
1,new_learn,32,188,A,64.43148312433541,83.30586342559984,3.2215741562167706,1.3085654426940954,B,1343,Incorrect
1,new_learn,32,189,A,59.62154330003201,71.03789893129535,2.9810771650016004,1.1158607070450584,B,1233,Incorrect
1,new_learn,32,190,B,78.58735782601664,66.52928088643638,3.929367891300832,1.0450395004072017,B,745,Correct
1,new_learn,32,191,A,36.540027487042686,61.7004146542393,1.8270013743521343,0.9691878470060111,A,584,Correct
1,new_learn,32,192,B,44.3577173720299,27.347948349583223,2.217885868601495,0.4295805681290188,A,1685,Incorrect
1,new_learn,32,193,B,82.92252295535233,56.57508615907453,4.146126147767617,0.8886793752677907,B,723,Correct
1,new_learn,32,194,B,69.4649248174392,57.419230277858574,3.4732462408719598,0.9019391600785056,B,1293,Correct
1,new_learn,32,195,A,45.3309455798459,60.374287339971666,2.266547278992295,0.9483570878648713,A,741,Correct
1,new_learn,32,196,B,44.74846293444812,34.80091402836035,2.237423146722406,0.5466514792485342,A,2150,Incorrect
1,new_learn,32,197,A,51.295297600419175,67.4236574520868,2.564764880020959,1.059088334648153,B,1737,Incorrect
1,new_learn,32,198,B,51.66307218905583,38.96586194737481,2.5831536094527916,0.6120743281733338,A,1433,Incorrect
1,new_learn,32,199,B,56.279244783057734,23.679962162933084,2.8139622391528865,0.3719639758417742,B,2542,Correct
1,new_learn,32,200,A,28.417891420040995,46.68273301068693,1.4208945710020497,0.733290655379339,A,584,Correct
1,new_learn,32,201,A,32.891821242915974,57.05239047135656,1.6445910621457986,0.8961768538727504,A,622,Correct
1,new_learn,32,202,B,30.854397921630632,13.653889103719845,1.5427198960815316,0.21447478850587995,A,784,Incorrect
1,new_learn,32,203,B,73.23629564896967,59.51886180971478,3.6618147824484835,0.9349200950571303,B,941,Correct
1,new_learn,32,204,A,36.51834632747515,68.36417272188646,1.8259173163737574,1.0738619139591112,A,706,Correct
1,new_learn,32,205,A,54.0493415172589,84.09099107125107,2.702467075862945,1.3208981989126363,A,2831,Correct
1,new_learn,32,206,B,37.651834923840994,22.870641774813734,1.8825917461920496,0.3592512009131933,B,706,Correct
1,new_learn,32,207,A,21.449761048008295,48.307635304901844,1.0724880524004148,0.7588145609308726,A,1275,Correct
1,new_learn,32,208,B,66.75386040583774,51.829362569098116,3.3376930202918866,0.8141337234366022,B,553,Correct
1,new_learn,32,209,B,31.701031963042844,11.040483785936601,1.5850515981521422,0.17342351376987825,B,2813,Correct
1,new_learn,32,210,A,44.294085011614506,61.14170989538571,2.2147042505807253,0.9604117331763105,A,1103,Correct
1,new_learn,32,211,B,78.6385754558733,66.40540049049523,3.9319287727936647,1.0430935916981392,B,718,Correct
1,new_learn,32,212,B,77.38870120888171,65.76356381983135,3.8694350604440855,1.0330116448513282,B,899,Correct
1,new_learn,32,213,A,67.76728287668303,83.90743326811179,3.388364143834151,1.318014879683379,A,2235,Correct
1,new_learn,32,214,A,53.03197360392153,60.06611167281085,2.6515986801960763,0.9435162758050334,B,1595,Incorrect
1,new_learn,32,215,A,41.876810912297195,55.11014050984758,2.0938405456148597,0.8656680628201922,A,855,Correct
1,new_learn,32,216,B,69.52825719554455,54.34500637738436,3.4764128597772275,0.8536493639724057,B,1934,Correct
1,new_learn,32,217,A,50.127258720014524,75.60039725139387,2.5063629360007265,1.1875282630672448,A,680,Correct
1,new_learn,32,218,A,37.04656282871535,56.843636761404774,1.8523281414357677,0.8928977582647797,A,2683,Correct
1,new_learn,32,219,A,45.60374508642986,54.3673759482795,2.280187254321493,0.8540007443703463,A,1034,Correct
1,new_learn,32,220,B,83.56500972244291,54.00759501494502,4.1782504861221454,0.84834931868502,B,681,Correct
1,new_learn,32,221,A,37.24726197075934,56.99124067622328,1.8623630985379669,0.8952163151369543,A,2080,Correct
1,new_learn,32,222,A,44.42046871054937,64.2815693113599,2.2210234355274685,1.0097325295489568,A,620,Correct
1,new_learn,32,223,B,54.545699772961036,40.17263165563175,2.727284988648052,0.6310302224235074,B,2339,Correct
1,new_learn,32,224,B,89.9281310805651,67.68604485439916,4.496406554028255,1.0632099063256482,B,731,Correct
1,new_learn,32,225,A,58.08065411944044,68.04618172339406,2.904032705972022,1.068866923035254,B,2875,Incorrect
1,new_learn,32,226,B,44.86971301545999,30.813168159935618,2.2434856507729997,0.4840121136254033,A,658,Incorrect
1,new_learn,32,227,B,72.86921355430898,60.787861822769614,3.6434606777154492,0.9548535006492224,B,656,Correct
1,new_learn,32,228,B,64.73239184796084,46.43282304228816,3.2366195923980423,0.7293650787754369,B,2154,Correct
1,new_learn,32,229,B,45.66793659675873,27.708281784733508,2.2833968298379363,0.4352406724925733,A,931,Incorrect
1,new_learn,32,230,B,49.47386340155982,31.6487085516625,2.4736931700779907,0.4971367514075369,A,722,Incorrect
1,new_learn,32,231,B,63.62657088866262,31.02489808465441,3.1813285444331307,0.4873379595056117,B,476,Correct
1,new_learn,32,232,A,21.79958198189774,53.691091010426504,1.0899790990948872,0.8433776854078845,A,604,Correct
1,new_learn,32,233,B,37.613132434794586,18.777273051464697,1.8806566217397291,0.29495271536465545,B,977,Correct
1,new_learn,32,234,A,45.86019976236996,54.00279524573682,2.293009988118498,0.848273924086603,A,579,Correct
1,new_learn,32,235,B,58.12065875056654,45.7890331290778,2.906032937528327,0.7192524504664524,A,717,Incorrect
1,new_learn,32,236,A,57.53379280644365,69.04475527955296,2.876689640322182,1.0845524797757433,B,1056,Incorrect
1,new_learn,32,237,A,38.45711933042542,54.675786839353776,1.9228559665212712,0.8588452513187765,A,650,Correct
1,new_learn,32,238,B,34.02552182064606,15.360656158300397,1.7012760910323033,0.2412846227061767,B,1695,Correct
1,new_learn,32,239,A,35.115758617541466,52.06356692256817,1.7557879308770734,0.8178125968181037,A,2970,Correct
1,new_learn,32,240,B,66.80079855473568,43.05770775311829,3.3400399277367843,0.6763488917880635,B,1083,Correct
1,new_learn,32,241,B,60.793475461481606,39.77567961108924,3.03967377307408,0.6247949142886964,B,4104,Correct
1,new_learn,32,242,B,84.35254758149047,60.357439694556156,4.217627379074523,0.9480924456695331,B,571,Correct
1,new_learn,32,243,B,71.4960009521175,59.84995737506503,3.5748000476058746,0.9401209320358329,B,602,Correct
1,new_learn,32,244,B,61.146676781163144,40.29643712449729,3.0573338390581575,0.6329749541808185,B,603,Correct
1,new_learn,32,245,B,34.85000326784813,11.338356718341998,1.7425001633924067,0.17810249085061847,A,1258,Incorrect
1,new_learn,32,246,A,41.31140438831256,52.9971794005105,2.065570219415628,0.8324777473281203,A,1472,Correct
1,new_learn,32,247,A,57.37138998866946,78.4351565159177,2.868569499433473,1.232056557467863,B,1848,Incorrect
1,new_learn,32,248,A,60.07204027090944,82.04031840072116,3.003602013545472,1.2886863079293656,A,2312,Correct
1,new_learn,32,249,B,84.25536806900706,67.52341212914143,4.212768403450354,1.060655277451133,B,685,Correct
1,new_learn,32,250,B,54.514413367102065,27.466284302658398,2.725720668355103,0.43143938493320133,A,788,Incorrect
1,new_learn,32,251,A,33.89901182108136,56.569142340291776,1.6949505910540679,0.8885860099806799,A,657,Correct
1,new_learn,32,252,A,35.903440314323156,56.16286996165839,1.7951720157161577,0.8822042983803243,A,553,Correct
1,new_learn,32,253,B,47.646290969681594,28.377778105250748,2.3823145484840795,0.4457570961032851,B,1090,Correct
1,new_learn,32,254,A,33.637778307455235,56.36066758939078,1.6818889153727616,0.8853112962512321,A,695,Correct
1,new_learn,32,255,A,39.255537898054044,49.70882932953872,1.9627768949027022,0.7808244652011384,A,1644,Correct
1,new_learn,32,256,A,22.382746536957765,46.10688380775411,1.1191373268478884,0.7242452372517925,A,810,Correct
1,new_learn,32,257,A,52.7756504516743,69.98735027040527,2.638782522583715,1.0993587272686043,B,884,Incorrect
1,new_learn,32,258,A,45.91839192820353,71.56491968783361,2.295919596410177,1.1241391297302081,A,646,Correct
1,new_learn,32,259,A,49.65200217942883,80.73568826740849,2.4826001089714413,1.2681932257170307,A,550,Correct
1,new_learn,32,260,A,30.5381270416745,58.99034394452652,1.526906352083725,0.9266181558442982,A,931,Correct
1,new_learn,32,261,B,43.38002261063559,23.509181891984312,2.16900113053178,0.3692813656188205,B,1349,Correct
1,new_learn,32,262,B,52.63639552941166,24.601801208751354,2.6318197764705826,0.38644418971244876,B,3055,Correct
1,new_learn,32,263,A,57.68080552224467,76.0135837618005,2.8840402761122332,1.1940185815955242,B,1550,Incorrect
1,new_learn,32,264,B,58.29501176698269,42.42680413892149,2.9147505883491345,0.6664386809906439,B,942,Correct
1,new_learn,32,265,B,55.67795230837318,30.051770393796357,2.7838976154186588,0.4720521054825894,B,1054,Correct
1,new_learn,32,266,B,71.07649108152319,47.19458946844134,3.5538245540761593,0.7413308778162078,A,697,Incorrect
1,new_learn,32,267,B,53.687009707478914,39.18329444722862,2.6843504853739457,0.6154897498942957,B,303,Correct
1,new_learn,32,268,A,24.566032673423713,44.06130853132471,1.2283016336711856,0.692113415947815,A,591,Correct
1,new_learn,32,269,B,50.82211991803837,33.9368540349689,2.541105995901918,0.5330788566110372,B,627,Correct
1,new_learn,32,270,A,36.17843251582364,60.188270981801416,1.8089216257911818,0.9454351497434952,A,1308,Correct
1,new_learn,32,271,B,85.8122115881789,66.78445656778347,4.290610579408945,1.0490477906366757,B,4095,Correct
1,new_learn,32,272,A,55.14901295215805,83.82042375313821,2.757450647607903,1.3166481374182117,A,1334,Correct
1,new_learn,32,273,B,48.85515940898027,30.51892521344117,2.442757970449014,0.4793901562300154,B,817,Correct
1,new_learn,32,274,B,53.38514511772965,31.108366514559172,2.669257255886482,0.488649078536589,B,2794,Correct
1,new_learn,32,275,B,62.85115760900451,46.24341033870823,3.142557880450225,0.7263897909851201,B,3834,Correct
1,new_learn,32,276,A,35.57076769792468,62.08859325874086,1.778538384896234,0.9752853422669252,A,739,Correct
1,new_learn,32,277,A,31.973209252243915,58.85223372736621,1.5986604626121956,0.9244487256262158,A,1368,Correct
1,new_learn,32,278,B,78.67399917410393,65.94436293834424,3.9336999587051964,1.0358516307638064,B,744,Correct
1,new_learn,32,279,B,40.21410644950065,19.00094820046127,2.0107053224750326,0.29846619638904665,A,647,Incorrect
1,new_learn,32,280,A,51.54320981139759,68.66157984893246,2.577160490569879,1.0785335741863762,B,2679,Incorrect
1,new_learn,32,281,A,29.095395581648503,39.93047980238603,1.4547697790824252,0.6272265100074579,A,596,Correct
1,new_learn,32,282,A,23.312304525489306,53.882978515844854,1.1656152262744655,0.8463918472945742,A,560,Correct
1,new_learn,32,283,B,47.38013594489829,29.020392054090408,2.3690067972449147,0.4558512524071301,A,2997,Incorrect
1,new_learn,32,284,A,28.734715389289768,43.03371882140674,1.4367357694644882,0.675972074529901,A,453,Correct
1,new_learn,32,285,A,23.687874377826255,54.755548862769416,1.1843937188913127,0.8600981502527667,A,464,Correct
1,new_learn,32,286,A,16.438176802574546,34.332358674006706,0.8219088401287273,0.5392914289533464,A,433,Correct
1,new_learn,32,287,A,37.27502399273635,50.734161113076354,1.8637511996368175,0.796930339194408,B,795,Incorrect
1,new_learn,32,288,B,65.36666002773563,43.69730397035593,3.2683330013867815,0.6863956456747514,A,410,Incorrect
1,new_learn,32,289,B,76.61243122037386,49.3542488869947,3.8306215610186936,0.7752547286341239,B,564,Correct
1,new_learn,32,290,B,60.061119740320585,50.10667474792883,3.0030559870160296,0.7870738064195321,B,889,Correct
1,new_learn,32,291,B,74.81700761315834,42.925497023814266,3.740850380657917,0.6742721305085271,B,600,Correct
1,new_learn,32,292,B,53.30783544318093,42.4220622541107,2.6653917721590465,0.666364195638215,B,754,Correct
1,new_learn,32,293,B,34.94750489156574,18.46901400247025,1.7473752445782873,0.2901105935460378,A,583,Incorrect
1,new_learn,32,294,A,44.60983165340589,64.03046834561059,2.2304915826702945,1.00578824480242,B,710,Incorrect
1,new_learn,32,295,B,53.66155497920539,22.315395573484057,2.6830777489602697,0.3505294139780385,B,1569,Correct
1,new_learn,32,296,A,31.593508598368583,48.73697820668477,1.5796754299184292,0.7655586634614336,A,550,Correct
1,new_learn,32,297,A,47.30069031136047,73.73309370226193,2.3650345155680235,1.1581967275073695,B,1301,Incorrect
1,new_learn,32,298,A,39.76957897117659,57.04627694389018,1.9884789485588297,0.8960808228078709,A,2119,Correct
1,new_learn,32,299,A,25.183517259511547,37.416060333398654,1.2591758629755774,0.5877301013483883,A,1397,Correct
1,new_learn,32,300,B,39.185021295978686,18.850742739936983,1.9592510647989343,0.2961067745324858,A,887,Incorrect
1,new_learn,32,301,A,15.162113358722795,32.119635260581845,0.7581056679361398,0.5045340508531381,A,723,Incorrect
1,new_learn,32,302,A,47.589779299559304,70.87713877951646,2.379488964977965,1.1133354924859657,B,822,Incorrect
1,new_learn,32,303,B,69.39971716201393,43.6748564257539,3.4699858581006966,0.6860430404686871,B,607,Correct
1,new_learn,32,304,B,81.01723016510938,56.59859617139733,4.050861508255469,0.8890486696777862,B,708,Correct
1,new_learn,32,305,B,86.17350907105481,63.265120408720634,4.30867545355274,0.9937661875225522,B,563,Incorrect
1,new_learn,32,306,B,77.70073139349702,60.608544055453635,3.885036569674851,0.9520367837469322,B,906,Incorrect
1,new_learn,32,307,A,33.48628502179427,47.939653445217004,1.6743142510897133,0.7530343153956718,A,631,Correct
1,new_learn,32,308,A,48.57748009892714,75.48725964947096,2.428874004946357,1.185751101772016,B,959,Correct
1,new_learn,32,309,B,67.7632650114473,42.30821596570097,3.388163250572365,0.6645759023216828,A,1553,Incorrect
1,new_learn,32,310,A,50.639146337191875,73.92142004975369,2.531957316859594,1.1611549508561572,B,504,Incorrect
1,new_learn,32,311,B,65.40060168626908,50.77888989441313,3.2700300843134538,0.7976329372486664,B,480,Incorrect
1,new_learn,32,312,B,43.045502434337536,24.278284078254444,2.152275121716877,0.38136239451005105,A,2280,Incorrect
1,new_learn,32,313,B,65.2672808215365,50.90566748411079,3.2633640410768248,0.7996243549708364,B,518,Incorrect
1,new_learn,32,314,A,67.98271371793936,86.22690542154854,3.399135685896968,1.3544490630705939,A,785,Incorrect
1,new_learn,32,315,A,25.323767121465302,41.69736003656055,1.266188356073265,0.6549805998247363,A,620,Correct
1,new_learn,32,316,A,25.718136718857426,52.92144077013678,1.2859068359428714,0.8312880477042455,A,509,Correct
1,new_learn,32,317,B,66.12012496097499,40.33219741111843,3.3060062480487495,0.6335366754495146,A,1725,Incorrect
1,new_learn,32,318,A,19.462114318525888,45.0872768401598,0.9731057159262945,0.7082292884570763,A,1564,Correct
1,new_learn,32,319,A,19.231062034957755,39.231739418732104,0.9615531017478878,0.6162507217271894,A,575,Correct
1,new_learn,32,320,B,36.177333113913235,13.180943026160204,1.8088666556956616,0.20704576889185258,B,853,Incorrect
1,new_learn,32,321,B,63.18788622189179,38.88340615589098,3.1593943110945895,0.6107791156294763,A,1017,Incorrect
1,new_learn,32,322,B,52.89471850288365,22.902346151506684,2.644735925144182,0.3597492120977194,B,481,Correct
1,new_learn,32,323,B,72.30495751802289,62.11500112191095,3.6152478759011446,0.9757001560115861,B,442,Incorrect
1,new_learn,32,324,A,49.266684820668814,71.66068329658393,2.463334241033441,1.1256433809788644,B,478,Incorrect
1,new_learn,32,325,B,42.03152828361743,13.583553293730585,2.1015764141808715,0.2133699561861472,B,605,Incorrect
1,new_learn,32,326,A,46.280555179040256,59.668943753765724,2.3140277589520126,0.937277576721465,A,460,Correct
1,new_learn,32,327,A,50.64360347695443,70.10097941756617,2.532180173847722,1.1011436097383758,A,597,Correct
1,new_learn,32,328,A,52.46311801527078,80.7474186354855,2.623155900763539,1.268377485907904,A,980,Correct
1,new_learn,32,329,B,45.82406014615509,34.50029183670136,2.2912030073077547,0.5419293169044245,B,776,Correct
1,new_learn,32,330,A,58.09994443936543,77.07257587659818,2.9049972219682716,1.2106531908358136,A,505,Incorrect
1,new_learn,32,331,A,16.062683147247974,32.38235683744931,0.8031341573623988,0.5086608717322697,A,600,Incorrect
1,new_learn,32,332,B,66.23282317449409,35.84904900964132,3.3116411587247048,0.5631155450343481,B,490,Correct
1,new_learn,32,333,A,42.332380003877425,68.43908603137669,2.116619000193871,1.075038649472864,B,453,Correct
1,new_learn,32,334,A,43.620042459293046,59.07929254963167,2.181002122964652,0.9280153572660252,B,298,Incorrect
1,new_learn,32,335,A,42.839277962051874,50.239553808557616,2.1419638981025937,0.7891610658229685,107,222,Incorrect
1,new_learn,32,336,A,52.83735994872765,62.64616388248722,2.641867997436383,0.9840436411440205,B,213,Correct
1,new_learn,32,337,A,39.3923646804447,49.19641773643577,1.969618234022235,0.772775522718606,B,140,Correct
1,new_learn,32,338,B,54.553375403293735,45.10663376437502,2.727668770164687,0.7085333463116293,B,119,Incorrect
1,new_learn,32,339,B,56.53418092517467,42.05424431715111,2.8267090462587334,0.6605865249951612,A,15,Correct
1,new_learn,32,340,B,45.90916623808366,22.237943026215675,2.295458311904183,0.3493127922105377,B,2134,Incorrect
1,new_learn,32,341,A,46.44154511034631,71.26808958072584,2.3220772555173155,1.1194765333109378,A,375,Incorrect
1,new_learn,32,342,A,26.132559126724413,37.71415933656684,1.3066279563362206,0.5924126295403664,B,382,Correct
1,new_learn,32,343,B,69.58710596713884,51.357516555910365,3.479355298356942,0.8067219835933209,A,524,Incorrect
1,new_learn,32,344,B,78.34003205229702,54.56677476095781,3.9170016026148513,0.8571328935955701,B,150,Incorrect
1,new_learn,32,345,B,76.12690830428579,60.60033991658835,3.8063454152142895,0.9519079134349911,100,333,Incorrect
1,new_learn,32,346,B,55.91757807092314,48.13241904173145,2.795878903546157,0.7560622703050449,B,438,Correct
1,new_learn,32,347,A,57.889567222471406,69.69171292884833,2.8944783611235705,1.0947148667667934,A,687,Correct
1,new_learn,32,348,A,39.94893902638673,62.92866568753957,1.9974469513193367,0.9884811691209121,B,188,Correct
1,new_learn,32,349,B,42.612796406735924,23.010275920999266,2.130639820336796,0.361444568952427,A,218,Correct
1,new_learn,32,350,A,54.2404088226115,69.84115146298328,2.7120204411305746,1.0970622417718017,B,100,Correct
1,new_learn,32,351,A,28.253165514754997,40.84652183291735,1.4126582757377497,0.6416156645749412,A,162,Correct
1,new_learn,32,352,A,26.13117978754542,43.732206023946915,1.306558989377271,0.6869438858505347,B,311,Incorrect
1,new_learn,32,353,B,59.00635498374869,27.498024324703202,2.9503177491874344,0.431937956033605,A,215,Correct
1,new_learn,32,354,A,12.563153091344098,32.992352641223505,0.628157654567205,0.5182426634115578,B,234,Incorrect
1,new_learn,32,355,B,31.748277725483074,11.961044812829268,1.5874138862741538,0.18788365256621364,A,242,Incorrect
1,new_learn,32,356,A,42.708839169287565,56.1904136700529,2.1354419584643782,0.8826369539400484,B,679,Incorrect
1,new_learn,32,357,A,26.908084081962386,48.031859991452194,1.3454042040981193,0.7544826924369985,A,433,Correct
1,new_learn,32,358,B,48.53732424994045,24.80998170107602,2.426866212497022,0.38971428123898805,B,464,Incorrect
1,new_learn,32,359,A,23.82989630439701,39.71068309232405,1.1914948152198506,0.6237739513593882,A,228,Incorrect
1,new_learn,32,360,B,32.73776007802485,14.318114200346137,1.6368880039012423,0.22490841192533556,A,1229,Incorrect
1,new_learn,32,361,A,49.96897170637571,78.34758414172224,2.4984485853187857,1.2306809738307138,B,622,Incorrect
1,new_learn,32,362,A,50.38765323303643,68.94265229613757,2.5193826616518216,1.0829486498627063,A,552,Incorrect
1,new_learn,32,363,A,21.545908889086924,50.761499582843626,1.077295444454346,0.7973597708733144,A,242,Correct
1,new_learn,32,364,B,54.34031738322016,39.71837942198525,2.717015869161008,0.6238948450230043,A,939,Incorrect
1,new_learn,32,365,B,68.6094045202355,43.06450858481265,3.430470226011775,0.67645571900251,B,739,Incorrect
1,new_learn,32,366,A,58.69894622506634,77.03876226511167,2.9349473112533166,1.210122047868627,A,2239,Correct
1,new_learn,32,367,A,47.766600130980585,65.7069415151374,2.388330006549029,1.0321222237690493,A,734,Incorrect
1,new_learn,32,368,B,66.74202524440537,51.90593184122433,3.3371012622202683,0.8153364707506144,A,448,Correct
1,new_learn,32,369,A,22.215908735291976,38.19600177840706,1.1107954367645987,0.5999813929177314,B,1592,Incorrect
1,new_learn,32,370,B,33.3812315990328,16.93688450714298,1.66906157995164,0.26604395971169587,A,40,Correct
1,new_learn,32,371,B,58.241243531487264,51.03605539208345,2.912062176574363,0.8016724834398556,A,1874,Incorrect
1,new_learn,32,372,A,55.586453157267215,76.77512178484157,2.7793226578633607,1.2059807928886,A,243,Incorrect
1,new_learn,32,373,A,32.46798676720072,49.16400841242344,1.623399338360036,0.7722664382474813,A,586,Incorrect
1,new_learn,32,374,B,48.21621092854597,32.6084532526781,2.410810546427298,0.5122123859176987,B,295,Incorrect
1,new_learn,32,375,B,73.28014741934138,56.24862966133581,3.6640073709670684,0.8835514085927275,A,240,Correct
1,new_learn,32,376,B,71.08156166312051,45.953002933164846,3.5540780831560257,0.7218280821261044,A,347,Incorrect
1,new_learn,32,377,A,26.457206113622007,54.057100320639385,1.3228603056811006,0.8491269462084358,A,511,Incorrect
1,new_learn,32,378,B,70.02003168804305,60.597026917905396,3.5010015844021525,0.9518558729733726,A,1089,Incorrect
1,new_learn,32,379,B,73.47619832128107,49.70210550468658,3.6738099160640534,0.7807188476073408,A,249,Correct
1,new_learn,32,380,A,23.884603385315163,43.05552605692726,1.1942301692657582,0.676314621784433,A,797,Incorrect
1,new_learn,32,381,B,73.93311012811336,41.75052480616929,3.696655506405668,0.6558157100728993,B,3282,Incorrect
1,new_learn,32,382,B,71.32337931258525,60.212433256169675,3.566168965629262,0.9458146898617421,B,1396,Incorrect
1,new_learn,32,383,A,26.21702513334796,46.01193244774033,1.310851256667398,0.7227537447764543,A,928,Correct
1,new_learn,32,384,B,60.440579913001166,44.917274456761945,3.0220289956500586,0.7055588972631989,A,1644,Incorrect
1,new_learn,32,385,A,48.9574067888788,65.40367136154273,2.44787033944394,1.0273584673361191,B,1003,Incorrect
1,new_learn,32,386,B,63.993440072684585,31.16182331718035,3.1996720036342294,0.4894887760285845,A,770,Correct
1,new_learn,32,387,A,51.19090175136269,58.645372864329346,2.559545087568134,0.9211993627880565,A,588,Correct
1,new_learn,32,388,B,34.565425524622285,13.538750642953826,1.7282712762311143,0.21266619779343915,B,1295,Incorrect
1,new_learn,32,389,B,82.12970389985391,66.15350624078417,4.106485194992695,1.0391368460762702,B,344,Correct
1,new_learn,32,390,A,63.57086175363237,76.1853208790077,3.1785430876816183,1.1967162219243586,A,1420,Correct
1,new_learn,32,391,A,38.871045344728415,59.29835192856772,1.943552267236421,0.9314563339438524,A,1905,Correct
1,new_learn,32,392,A,28.95024330682727,58.065050734919836,1.4475121653413634,0.9120836840957139,A,932,Correct
1,new_learn,32,393,B,32.21304598474038,12.123020997352583,1.6106522992370191,0.19042796852298843,B,994,Correct
1,new_learn,32,394,B,38.6364843627568,17.628187828423606,1.93182421813784,0.276902926889383,B,3222,Correct
1,new_learn,32,395,B,39.12286895419038,26.29421605298751,1.956143447709519,0.4130285799198418,B,756,Incorrect
1,new_learn,32,396,A,29.4455074017298,47.2282993562266,1.47227537008649,0.7418603914953051,107,765,Incorrect
1,new_learn,32,397,B,40.66670067615614,14.148147714343807,2.0333350338078073,0.22223858460642865,B,442,Correct
1,new_learn,32,398,A,43.81249831611196,67.77516162049375,2.190624915805598,1.0646097492140203,A,1807,Correct
1,new_learn,32,399,A,31.513668007120607,49.96351884438885,1.5756834003560303,0.7848251187451359,A,1537,Incorrect
1,new_learn,32,400,B,35.41947643944367,12.85203384488143,1.7709738219721833,0.2018792755538344,B,678,Correct
1,new_learn,32,401,B,36.44973786609837,21.83583804978049,1.8224868933049183,0.34299654201083435,A,567,Incorrect
1,new_learn,32,402,A,30.155254453611306,53.69537779173085,1.5077627226805652,0.8434450220111509,B,308,Incorrect
1,new_learn,32,403,B,58.559305680824686,48.24977901335029,2.927965284041234,0.7579057564283613,A,314,Correct
1,new_learn,32,404,B,79.7685239996809,54.20157094457788,3.988426199984045,0.8513962854625592,B,484,Correct
1,new_learn,32,405,B,45.721730142919675,23.701488659501177,2.286086507145984,0.3723021132591534,A,577,Incorrect
1,new_learn,32,406,A,32.65250327664581,50.93306714141071,1.6326251638322904,0.800054747781258,B,115,Correct
1,new_learn,32,407,B,55.939681638403144,24.263191543109016,2.7969840819201575,0.3811253215223664,A,165,Correct
1,new_learn,32,408,B,58.791557434168155,33.37774350767089,2.939577871708408,0.5242963689855165,A,600,Incorrect
1,new_learn,32,409,A,48.03538550758485,60.43070517756496,2.401769275379243,0.9492432971854436,100,303,Incorrect
1,new_learn,32,410,B,87.67816534049032,60.35482349900544,4.383908267024516,0.9480513505659205,107,103,Incorrect
1,new_learn,32,411,A,17.91094410926647,34.76056394809997,0.8955472054633234,0.5460176616699454,107,209,Incorrect
1,new_learn,32,412,A,27.205098069802077,58.20896402163793,1.360254903490104,0.9143442687172516,A,261,Correct
1,new_learn,32,413,A,40.77027105677319,68.8258211951638,2.0385135528386598,1.0811134712200563,A,515,Incorrect
1,new_learn,32,414,B,42.86238515592176,29.047704133216634,2.1431192577960876,0.45628026954281625,A,375,Incorrect
1,new_learn,32,415,A,16.522640172088536,38.02054713855033,0.8261320086044267,0.5972253578796708,B,250,Correct
1,new_learn,32,416,B,60.502246802820295,48.686423945566425,3.025112340141015,0.7647645589847484,B,993,Correct
1,new_learn,32,417,B,64.2355002879653,52.48966892035322,3.2117750143982646,0.8245057913477107,B,717,Correct
1,new_learn,32,418,B,59.55962316013994,50.22865486373453,2.977981158006997,0.7889898655980281,B,827,Incorrect
1,new_learn,32,419,B,41.017124740227004,27.057730652063672,2.0508562370113506,0.425021839196673,A,297,Incorrect
1,new_learn,32,420,A,29.593767856948894,47.82274172689827,1.4796883928474447,0.7511978704187284,B,251,Correct
1,new_learn,32,421,A,15.87463520040616,34.64887843217215,0.793731760020308,0.5442633096881891,B,825,Incorrect
1,new_learn,32,422,A,46.38183874305767,58.22641596835107,2.3190919371528835,0.9146184032551757,A,187,Correct
1,new_learn,32,423,B,44.644433420940615,36.44243862455478,2.232221671047031,0.5724364873089912,A,811,Correct
1,new_learn,32,424,B,79.03082362002215,49.30942710878331,3.951541181001107,0.7745506697883752,B,461,Correct
1,new_learn,32,425,B,35.36816630701587,23.57961797160222,1.7684083153507937,0.370387772970197,A,504,Incorrect
1,new_learn,32,426,B,88.85773958439975,66.8606050338168,4.442886979219987,1.0502439279440379,B,316,Correct
1,new_learn,32,427,B,84.57278484457046,66.50367862773136,4.228639242228524,1.0446373410678869,B,467,Correct
1,new_learn,32,428,B,80.45783675579064,60.490052316648566,4.022891837789532,0.950175519866227,B,658,Incorrect
1,new_learn,32,429,B,44.84765296946337,37.33850448436384,2.242382648473168,0.5865118569205349,107,127,Incorrect
1,new_learn,32,430,A,46.13592317248614,74.93386540858425,2.306796158624307,1.177058405363473,B,282,Incorrect
1,new_learn,32,431,B,65.0477850805656,46.20765914772768,3.2523892540282806,0.7258282125904125,A,457,Incorrect
1,new_learn,32,432,B,46.0894855466388,38.432875952296534,2.30447427733194,0.6037022037403131,A,585,Incorrect
1,new_learn,32,433,A,21.506128560373412,33.583942004389286,1.0753064280186706,0.5275353273978753,A,773,Incorrect
1,new_learn,32,434,A,59.05824805927044,85.49885491388514,2.952912402963522,1.3430128724390058,B,596,Incorrect
1,new_learn,32,435,A,39.318672331700064,69.48438350544201,1.9659336165850032,1.091458143799562,B,519,Incorrect
1,new_learn,32,436,A,50.329596968802356,75.18686445911284,2.5164798484401176,1.181032505156002,A,420,Incorrect
1,new_learn,32,437,A,37.10784734784793,69.70957131851937,1.8553923673923964,1.0949953856957708,B,244,Correct
1,new_learn,32,438,A,32.49609741265956,65.32510591189371,1.624804870632978,1.0261243641389024,A,1238,Incorrect
1,new_learn,32,439,A,36.28945048697529,68.3651444349348,1.8144725243487645,1.0738771775919815,B,308,Incorrect
1,new_learn,32,440,A,33.00988885194113,54.061823557281876,1.6504944425970565,0.8492011386361219,A,417,Correct
1,new_learn,32,441,B,69.46550766579865,41.613618623525824,3.473275383289933,0.6536651927847805,B,574,Incorrect
1,new_learn,32,442,A,39.60673822363849,49.50115012679166,1.9803369111819245,0.7775622479128708,A,323,Incorrect
1,new_learn,32,443,A,60.873584796540484,77.4268864199989,3.0436792398270245,1.2162186878369992,B,65,Correct
1,new_learn,32,444,A,20.823537494631122,39.90584078967228,1.0411768747315562,0.6268394813007917,A,839,Incorrect
1,new_learn,32,445,B,74.47030203994618,63.768771603182586,3.723515101997309,1.0016775219850191,B,831,Correct
1,new_learn,32,446,B,60.21525255860166,52.8050331155452,3.010762627930083,0.8294595205418127,B,1624,Correct
1,new_learn,32,447,A,31.21495120781533,63.95003285721981,1.5607475603907666,1.0045247671053383,A,1172,Incorrect
1,new_learn,32,448,A,57.66601613046856,68.27582601192088,2.8833008065234282,1.0724741670841276,B,340,Correct
1,new_learn,32,449,A,53.55137430783807,66.42007452610153,2.6775687153919034,1.0433240909104355,B,550,Correct
1,new_learn,32,450,B,53.793553859835356,26.429995280230777,2.6896776929917676,0.41516139503392957,A,795,Incorrect
1,new_learn,32,451,B,82.98946622667512,58.886498279314665,4.149473311333756,0.9249869519496148,B,370,Incorrect
1,new_learn,32,452,A,25.538984362729487,45.07643762320974,1.2769492181364743,0.7080590264353714,B,244,Incorrect
1,new_learn,32,453,B,72.18100135568754,59.71984438148344,3.609050067784377,0.9380771219119703,B,276,Incorrect
1,new_learn,32,454,A,49.526097600412996,74.89142909262844,2.4763048800206495,1.176391817271212,B,232,Incorrect
1,new_learn,32,455,A,53.845860620898975,65.27405816281126,2.6922930310449487,1.0253225079714037,B,214,Correct
1,new_learn,32,456,B,52.53962942583916,41.99853187660928,2.6269814712919577,0.6597113960255623,A,580,Correct
1,new_learn,32,457,A,62.50874452040183,83.061978600463,3.1254372260200913,1.304734508819236,B,750,Incorrect
1,new_learn,32,458,B,58.42622038902433,41.649271527986116,2.9213110194512164,0.6542252272984386,A,690,Incorrect
1,new_learn,32,459,B,57.32281153294187,31.148474130099906,2.8661405766470933,0.489279087488268,B,306,Correct
1,new_learn,32,460,B,51.60241784443022,39.383533072606376,2.580120892221511,0.6186350908665541,B,930,Incorrect
1,new_learn,32,461,B,65.37678589140108,45.700228531713364,3.2688392945700544,0.7178575111130269,B,442,Incorrect
1,new_learn,32,462,A,31.83597112944212,41.73865053318649,1.5917985564721062,0.6556291894290518,A,207,Correct
1,new_learn,32,463,B,62.11664121359014,43.774830675104454,3.105832060679507,0.6876134323052265,B,419,Incorrect
1,new_learn,32,464,A,44.53058846088969,67.65628075263062,2.2265294230444845,1.0627423729083643,A,378,Incorrect
1,new_learn,32,465,B,52.10078465393545,37.22823021754978,2.605039232696772,0.5847796727880197,107,53,Correct
1,new_learn,32,466,B,43.865130468454325,21.961386020009563,2.193256523422716,0.3449686449155581,B,67,Correct
1,new_learn,32,467,A,24.600880288923577,50.55732967820791,1.2300440144461788,0.7941526775108758,A,583,Correct
1,new_learn,32,468,B,72.38179557108677,40.82202832237841,3.619089778554338,0.6412309214110924,B,591,Correct
1,new_learn,32,469,B,40.08805191571482,21.09251992457299,2.004402595785741,0.3313205282036742,A,1295,Incorrect
1,new_learn,32,470,A,46.881326091332895,75.98304867358266,2.3440663045666446,1.1935389375514147,B,262,Correct
1,new_learn,32,471,B,64.94344342056495,51.530012350527926,3.2471721710282475,0.8094315411990491,B,258,Incorrect
1,new_learn,32,472,B,33.44643443280674,16.905642599152365,1.672321721640337,0.2655532129685586,A,343,Correct
1,new_learn,32,473,A,53.45296847462966,82.20037159508055,2.6726484237314825,1.2912004176272809,B,648,Incorrect
1,new_learn,32,474,A,25.059026204690902,41.21691240055888,1.252951310234545,0.6474337460062491,A,692,Incorrect
1,new_learn,32,475,A,58.77967683587397,77.9857630079015,2.938983841793698,1.22499750075109,A,861,Incorrect
1,new_learn,32,476,A,40.78345327582092,48.423294845072306,2.039172663791046,0.7606313367394584,B,288,Correct
1,new_learn,32,477,B,38.243314397881875,19.820581645005536,1.9121657198940938,0.31134096842913045,A,1660,Incorrect
1,new_learn,32,478,A,67.6565373026047,81.25011617361727,3.382826865130235,1.2762738403717664,B,689,Incorrect
1,new_learn,32,479,A,24.93062995118494,53.809560748395256,1.246531497559247,0.8452386037002609,B,591,Correct
1,new_learn,32,480,A,13.519091452123405,39.9261976708806,0.6759545726061702,0.627159246443062,A,1553,Incorrect
1,new_learn,32,481,A,65.04877491418858,77.62677181776486,3.252438745709429,1.2193584803229065,B,938,Correct
1,new_learn,32,482,A,52.67034407145338,59.92784841467696,2.6335172035726693,0.9413444416249592,B,942,Correct
1,new_learn,32,483,B,66.8688033483606,48.437882105911214,3.34344016741803,0.760860472896896,B,1045,Correct
1,new_learn,32,484,B,70.62975182795975,61.02312072597669,3.5314875913979877,0.958548938859257,B,2605,Incorrect
1,new_learn,32,485,A,41.4651318585277,68.33371019589623,2.0732565929263846,1.0733834097198076,B,558,Incorrect
1,new_learn,32,486,A,25.94439463249906,42.38065024649906,1.297219731624953,0.6657136973437995,A,675,Incorrect
1,new_learn,32,487,A,36.00409662348745,55.85255918078439,1.8002048311743724,0.877329948032707,A,544,Correct
1,new_learn,32,488,B,56.85396743322307,49.57561358936574,2.8426983716611534,0.7787319172477886,B,2028,Correct
1,new_learn,32,489,B,69.62115992812896,45.50080884736908,3.4810579964064483,0.7147250340364408,B,1115,Correct
1,new_learn,32,490,B,70.12648957525661,57.04692490131241,3.506324478762831,0.8960910008992584,B,3195,Correct
1,new_learn,32,491,B,53.01504871399023,39.48826927341152,2.650752435699512,0.620280283261626,B,1072,Incorrect
1,new_learn,32,492,A,51.044400081069355,61.85953969118657,2.5522200040534675,0.9716873772413896,B,983,Incorrect
1,new_learn,32,493,B,47.44400467937451,18.743895043812998,2.372200233968725,0.2944284148465053,A,764,Incorrect
1,new_learn,32,494,B,78.68512791201935,49.50845169414812,3.934256395600968,0.7776769406647044,B,483,Incorrect
1,new_learn,32,495,A,37.483712854770985,51.198543518852716,1.8741856427385495,0.804224840966625,A,533,Incorrect
1,new_learn,32,496,B,68.7893913212034,46.383084267045405,3.43946956606017,0.7285837839209307,B,789,Incorrect
1,new_learn,32,497,A,40.05337627925737,50.38453032427872,2.0026688139628686,0.791438351606631,100,968,Correct
1,new_learn,32,498,B,40.30699354226648,14.301549868920208,2.015349677113324,0.22464822001573898,A,149,Incorrect
1,new_learn,32,499,A,23.1301046120804,54.38150120229703,1.15650523060402,0.8542226233416044,B,775,Incorrect
1,new_learn,32,500,B,71.40836949022898,53.20794010363378,3.5704184745114493,0.8357883687111081,100,497,Incorrect
1,new_learn,32,501,B,66.70276599014215,57.57944231015718,3.3351382995071077,0.9044557647969355,B,501,Incorrect
1,new_learn,32,502,A,20.70887984386405,48.91907981329509,1.0354439921932026,0.7684191088091031,A,338,Incorrect
1,new_learn,32,503,A,41.7140442029862,72.17493665525822,2.08570221014931,1.1337212538473396,B,284,Incorrect
1,new_learn,32,504,A,24.708779669861208,49.63638614411144,1.2354389834930604,0.7796865303054336,B,356,Correct
1,new_learn,32,505,B,66.01522070151186,54.60039276977143,3.300761035075593,0.857660964043156,A,603,Correct
1,new_learn,32,506,A,23.73840433008803,41.04211436275106,1.1869202165044015,0.6446880248490544,A,654,Incorrect
1,new_learn,32,507,B,35.02421220220634,21.905098826535788,1.751210610110317,0.34408448774801614,B,197,Incorrect
1,new_learn,32,508,A,21.971595284155622,53.555799455032925,1.0985797642077813,0.8412525306252985,A,1601,Incorrect
1,new_learn,32,509,A,44.23696835447431,57.283260027979864,2.2118484177237154,0.8998033443878768,B,213,Incorrect
1,new_learn,32,510,B,41.66513664398591,30.802984192433627,2.0832568321992952,0.4838521442379601,B,1615,Incorrect
1,new_learn,32,511,B,53.8585271714895,45.07191060505088,2.6929263585744754,0.7079879162004187,A,700,Incorrect
1,new_learn,32,512,A,39.45175965345234,71.27396839168597,1.9725879826726171,1.1195688774575587,B,258,Correct
1,new_learn,32,513,A,35.58384977789917,64.14074779658253,1.7791924888949584,1.007520510367497,B,501,Incorrect
1,new_learn,32,514,B,81.3112812636264,50.08726567335024,4.06556406318132,0.7867689293889866,A,32,Correct
1,new_learn,32,515,B,74.59942645791595,58.5576496275886,3.729971322895798,0.9198214094075872,A,448,Correct
1,new_learn,32,516,B,41.62498203985321,33.136376413126406,2.08124910199266,0.52050498353032,A,486,Correct
1,new_learn,32,517,B,35.260242627131014,15.566045185342112,1.7630121313565508,0.24451086599858773,A,227,Incorrect
1,new_learn,32,518,B,68.95349343456174,41.74077500042107,3.4476746717280866,0.6556625604823365,B,390,Correct
1,new_learn,32,519,A,22.197017999545903,49.93911421142501,1.1098508999772951,0.7844417716669723,B,506,Incorrect
1,new_learn,32,520,A,53.32950133072956,68.95578872543615,2.6664750665364783,1.0831549964116005,A,253,Incorrect
1,new_learn,32,521,B,66.36403741790471,33.43755175197111,3.318201870895235,0.5252358346901047,B,620,Incorrect
1,new_learn,32,522,B,78.72405442607796,51.9767580035593,3.9362027213038977,0.816449005506982,A,478,Incorrect
1,new_learn,32,523,A,32.26207186828531,52.42946843269011,1.6131035934142657,0.8235601642987861,B,397,Correct
1,new_learn,32,524,A,12.727097232358801,35.043229099234196,0.6363548616179401,0.5504577554810911,A,875,Correct
1,new_learn,32,525,B,77.44727056954085,55.67199723614242,3.872363528477042,0.8744936876386813,B,664,Incorrect
1,new_learn,32,526,A,35.47728712084371,52.30455656217073,1.7738643560421854,0.821598053224937,A,1278,Incorrect
1,new_learn,32,527,A,20.800549144606254,39.5492240742405,1.0400274572303128,0.6212377590340528,A,662,Incorrect
1,new_learn,32,528,B,37.19581996904897,18.570521945378868,1.8597909984524483,0.29170507658465145,B,562,Correct
1,new_learn,32,529,A,55.272786888009826,74.1184695229408,2.7636393444004916,1.164250196742949,B,930,Incorrect
1,new_learn,32,530,A,50.11147414899369,77.82007693991812,2.5055737074496847,1.2223949100811962,100,15,Incorrect
1,new_learn,32,531,A,39.768237931647135,66.30159145876651,1.988411896582357,1.0414629632408632,A,569,Correct
1,new_learn,32,532,A,32.244365608580495,44.32739798235274,1.6122182804290248,0.696293139270552,B,873,Correct
1,new_learn,32,533,B,42.24579332930093,14.566492780143157,2.112289666465047,0.22880993353333254,B,656,Correct
1,new_learn,32,534,A,52.821397628276415,80.65410400066855,2.641069881413821,1.2669117030518373,A,1015,Incorrect
1,new_learn,32,535,B,41.59060520002724,23.354297709338045,2.0795302600013623,0.36684845056702675,B,1422,Correct
1,new_learn,32,536,A,23.78858968235123,35.700385701954026,1.1894294841175614,0.5607803472579043,B,574,Incorrect
1,new_learn,32,537,B,73.88700693052718,42.577194781683474,3.6943503465263587,0.6688010116829923,A,296,Correct
1,new_learn,32,538,A,40.568881920245445,49.80733116917524,2.0284440960122723,0.7823717284799743,B,723,Correct
1,new_learn,32,539,B,59.57901787105701,40.65285804408373,2.9789508935528506,0.6385736008936108,A,1635,Incorrect
1,new_learn,32,540,B,80.10008436214939,50.89096863243364,4.005004218107469,0.7993934659486107,100,1332,Correct
1,new_learn,32,541,A,49.547737550622514,59.86485601516428,2.4773868775311256,0.9403549593272542,A,543,Correct
1,new_learn,32,542,A,55.93772270731615,68.44171837380946,2.7968861353658077,1.0750799982111068,B,683,Incorrect
1,new_learn,32,543,A,29.126785352407346,50.947403631096265,1.4563392676203675,0.8002799448346298,A,1016,Incorrect
1,new_learn,32,544,B,72.52348173641596,41.3940321951654,3.6261740868207983,0.6502159372339551,B,843,Correct
1,new_learn,32,545,B,44.113286276582954,17.12864847451497,2.2056643138291476,0.26905618106729123,A,866,Incorrect
1,new_learn,32,546,A,56.421921927423256,69.63606568227888,2.8210960963711624,1.0938407618617183,B,448,Correct
1,new_learn,32,547,B,34.54900420558613,19.987922115131187,1.7274502102793066,0.3139695463871055,B,540,Incorrect
1,new_learn,32,548,A,33.092368273341656,63.93857144482642,1.654618413667083,1.004344731660464,A,178,Correct
1,new_learn,32,549,A,24.99150510819557,49.74037579955579,1.2495752554097785,0.7813199959934001,A,232,Incorrect
1,new_learn,32,550,B,83.90568404607423,63.88456034811868,4.195284202303712,1.0034963273373174,B,393,Correct
1,new_learn,32,551,B,33.79124246866718,20.347893273543583,1.6895621234333589,0.3196239601209685,B,818,Incorrect
1,new_learn,32,552,B,35.8705977814692,17.756708894756585,1.7935298890734601,0.27892173107849916,A,378,Correct
1,new_learn,32,553,B,56.741708914941725,33.210787033625095,2.8370854457470864,0.5216738228238589,B,439,Incorrect
1,new_learn,32,554,A,35.199361170936655,62.66441238626081,1.7599680585468327,0.984330287970991,A,287,Incorrect
1,new_learn,32,555,A,29.417436105242597,40.099095311921545,1.47087180526213,0.6298751162376481,A,236,Correct
1,new_learn,32,556,A,42.53967148872132,51.20432102615421,2.126983574436066,0.8043155938390972,A,298,Incorrect
1,new_learn,32,557,B,51.65014249938275,20.310846982380447,2.582507124969138,0.3190420383401642,B,278,Correct
1,new_learn,32,558,A,54.555735203569164,72.86945905689602,2.7277867601784584,1.1446307862210339,A,247,Incorrect
1,new_learn,32,559,A,39.362438118972364,55.667604958580284,1.9681219059486181,0.8744246939040727,B,220,Incorrect
1,new_learn,32,560,A,48.80991928294515,68.72678197624042,2.4404959641472574,1.0795577668071215,B,226,Correct
1,new_learn,32,561,B,44.54385547235971,22.586836639076374,2.2271927736179857,0.35479320026577554,B,78,Correct
1,new_learn,32,562,B,55.02608174626327,24.480767258935085,2.751304087313164,0.38454299287456,B,225,Correct
1,new_learn,32,563,A,28.513339732050106,41.17002254122322,1.4256669866025051,0.6466972018181654,B,26,Correct
1,new_learn,32,564,B,47.37783371697489,19.82652901556763,2.3688916858487445,0.31143438950746066,B,411,Correct
1,new_learn,32,565,A,35.08787845152072,67.47360020396086,1.7543939225760363,1.059872833560091,B,150,Correct
1,new_learn,32,566,B,64.99911433784,56.88724688017989,3.249955716892,0.89358278440861,B,240,Correct
1,new_learn,32,567,B,75.53883318422338,43.391885856162695,3.776941659211169,0.6815981491556379,B,271,Incorrect
1,new_learn,32,568,A,17.386325196885355,48.194528089656984,0.8693162598442677,0.7570378769484666,A,207,Incorrect
1,new_learn,32,569,B,46.47487367895734,33.20767635812469,2.323743683947867,0.5216249604473598,A,139,Correct
1,new_learn,32,570,B,52.45993975751463,36.96611911384291,2.6229969878757315,0.5806624411988706,A,285,Correct
1,new_learn,32,571,B,59.83041975657314,48.634729207783494,2.991520987828657,0.7639525399425078,A,355,Incorrect
1,new_learn,32,572,A,42.92713613048355,67.26389902052773,2.146356806524177,1.056578855073478,B,206,Correct
1,new_learn,32,573,A,60.786591317328885,77.83211199902715,3.0393295658664443,1.2225839563476082,B,245,Correct
1,new_learn,32,574,A,41.981252031256616,50.226534287593125,2.0990626015628306,0.788956555665892,B,289,Incorrect
1,new_learn,32,575,A,21.814437606287143,46.72003369511007,1.0907218803143572,0.7338765731601271,A,200,Incorrect
1,new_learn,32,576,A,17.51261998529638,45.88371043300778,0.875630999264819,0.7207396380788927,A,162,Correct
1,new_learn,32,577,A,42.2434208751911,63.51147231423122,2.112171043759555,0.9976358742053016,A,201,Incorrect
1,new_learn,32,578,A,52.107499670237345,77.2130778717602,2.6053749835118674,1.2128601910148926,B,21,Correct
1,new_learn,32,579,B,58.691893316992996,45.81938829918274,2.93459466584965,0.7197292683634531,B,283,Correct
1,new_learn,32,580,B,33.84722617527272,21.86854662597269,1.6923613087636362,0.3435103271242083,B,276,Correct
1,new_learn,32,581,A,41.0551858927893,53.65878891420138,2.052759294639465,0.8428702852669024,B,408,Incorrect
1,new_learn,32,582,B,68.53478027706677,47.24436366348059,3.4267390138533385,0.742112729043576,B,261,Correct
1,new_learn,32,583,A,54.542400433565035,81.40708388372022,2.727120021678252,1.2787394833963175,A,275,Incorrect
1,new_learn,32,584,B,83.08368790701309,66.18647435684642,4.154184395350654,1.0396547080323897,A,151,Correct
1,new_learn,32,585,B,62.272195150507315,33.95083167893155,3.1136097575253654,0.533298416928975,A,205,Incorrect
1,new_learn,32,586,A,39.7005355094278,57.92499779823184,1.98502677547139,0.9098837377106506,B,268,Incorrect
1,new_learn,32,587,A,54.194052565887276,72.22675575137424,2.7097026282943637,1.1345352263057085,B,270,Correct
1,new_learn,32,588,B,48.635142070639375,28.510698504341654,2.431757103531969,0.44784500484976625,A,253,Incorrect
1,new_learn,32,589,A,21.044216583092457,36.943650686174635,1.0522108291546228,0.5803095079623687,B,212,Incorrect
1,new_learn,32,590,B,57.4675718541664,38.85624416099456,2.87337859270832,0.610352456011359,B,251,Correct
1,new_learn,32,591,A,20.45297634783094,46.13848627855032,1.0226488173915471,0.7247416477022357,B,274,Incorrect
1,new_learn,32,592,A,37.186866813596936,44.5392499646488,1.8593433406798467,0.6996209024267007,A,515,Incorrect
1,new_learn,32,593,B,44.8319473945053,16.454750339947978,2.241597369725265,0.2584706139231736,A,264,Correct
1,new_learn,32,594,B,66.70201094529149,44.55427562014411,3.3351005472645743,0.6998569248712978,B,448,Incorrect
1,new_learn,32,595,B,53.08889963650128,35.71528890754401,2.654444981825064,0.5610144462638864,A,214,Incorrect
1,new_learn,32,596,A,44.07563897698424,55.86561963342442,2.203781948849212,0.8775351011430395,A,193,Incorrect
1,new_learn,32,597,B,71.29931117399619,52.500939884189435,3.5649655586998095,0.8246828352336444,A,261,Correct
1,new_learn,32,598,A,30.94484821571522,53.52769745390485,1.5472424107857607,0.8408111054238228,A,273,Incorrect
1,new_learn,32,599,B,43.515378686008695,25.3881783344376,2.1757689343004345,0.39879657271748353,B,242,Correct
1,new_learn,32,600,B,23.388522460127003,45.30705661944645,1.1694261230063503,0.711681581157149,A,540,Incorrect
1,new_learn,32,601,B,37.211661943398695,40.69977754211342,1.8605830971699349,0.6393106106452118,A,1843,Incorrect
1,new_learn,32,602,B,56.03457362754721,34.88356750929346,2.8017286813773605,0.5479497970909997,B,772,Correct
1,new_learn,32,603,B,37.09329345586747,32.27908241240772,1.8546646727933733,0.5070386408571979,A,1109,Incorrect
1,new_learn,32,604,A,68.94265229613757,49.61234676696357,3.447132614806878,0.7793089206522106,B,637,Incorrect
1,new_learn,32,605,B,37.018067776818086,52.2716339248067,1.8509033888409043,0.8210809056465387,A,632,Incorrect
1,new_learn,32,606,A,59.49617733384385,61.00750784595145,2.9748088666921926,0.9583036923133136,B,502,Incorrect
1,new_learn,32,607,A,58.78555015444694,63.93536863673538,2.9392775077223465,1.0042944220686159,A,193,Correct
1,new_learn,32,608,A,69.63606568227888,43.578078072576744,3.4818032841139437,0.6845228496518477,A,481,Correct
1,new_learn,32,609,A,44.05991907154665,83.61947631551467,2.2029959535773327,1.3134916624492332,B,784,Incorrect
1,new_learn,32,610,A,63.01502393789764,69.37101493396275,3.150751196894882,1.089677354443026,A,34,Correct
1,new_learn,32,611,A,62.5131426707117,69.80080089130628,3.125657133535585,1.0964284164740585,B,606,Incorrect
1,new_learn,32,612,A,51.49006831203427,67.65725952155441,2.5745034156017135,1.0627577473746672,A,182,Correct
1,new_learn,32,613,A,68.33371019589623,58.5348681414723,3.4166855097948114,0.919463558660483,A,998,Correct
1,new_learn,32,614,A,58.22641596835107,53.61816125694233,2.9113207984175533,0.8422321075190146,A,575,Correct
1,new_learn,32,615,A,69.48438350544201,60.681327668299936,3.4742191752721006,0.9531800660640306,A,530,Correct
1,new_learn,32,616,B,40.65285804408373,40.42098212894299,2.0326429022041865,0.634931302535858,B,2956,Correct
1,new_learn,32,617,A,61.974193466201946,62.983898173921055,3.0987096733100974,0.98934875898819,A,615,Correct
1,new_learn,32,618,B,17.128648474514975,55.886713723417046,0.8564324237257488,0.8778664463338143,B,702,Correct
1,new_learn,32,619,B,41.51474245513121,29.951351208531136,2.0757371227565606,0.470474724609046,A,5028,Incorrect
1,new_learn,32,620,A,31.97486388558953,89.20040619386904,1.5987431942794765,1.4011567039794222,A,1408,Correct
1,new_learn,32,621,B,16.936884507142977,66.6187684009672,0.8468442253571489,1.046445166998392,A,2255,Incorrect
1,new_learn,32,622,A,46.68273301068693,71.582108579959,2.334136650534347,1.1244091322163305,B,619,Incorrect
1,new_learn,32,623,A,54.061823557281876,66.99011114805887,2.703091177864094,1.0522782052295272,A,879,Correct
1,new_learn,32,624,A,69.76384833433434,51.691487678841206,3.488192416716717,0.8119679897248743,A,431,Correct
1,new_learn,32,625,A,70.5711564575651,53.08069716847059,3.528557822878255,0.8337896413594585,A,438,Correct
1,new_learn,32,626,A,80.65410400066855,47.178602371723585,4.032705200033428,0.7410797530882041,A,472,Correct
1,new_learn,32,627,A,58.85772121200044,48.53578279387541,2.9428860606000224,0.7623982933073444,A,540,Correct
1,new_learn,32,628,A,53.2414010345697,62.94742893180612,2.662070051728485,0.9887759014726385,A,490,Correct
1,new_learn,32,629,A,41.04211436275106,76.26159566991197,2.0521057181375526,1.1979143435381532,B,947,Incorrect
1,new_learn,32,630,B,14.831460725512628,61.03983682343235,0.7415730362756314,0.958811514704074,A,241,Incorrect
1,new_learn,32,631,B,19.820581645005536,61.756685602118125,0.9910290822502767,0.9700717489883444,B,409,Correct
1,new_learn,32,632,A,59.07929254963167,56.379957540706954,2.9539646274815836,0.8856143020979472,A,448,Correct
1,new_learn,32,633,B,64.47408771261533,14.310644414208383,3.223704385630766,0.22479107679906432,A,1318,Incorrect
1,new_learn,32,634,B,29.611474893675478,40.75416398380621,1.480573744683774,0.6401649108735965,B,516,Correct
1,new_learn,32,635,B,48.57741714160061,22.167389467158742,2.428870857080031,0.3482045394964483,B,645,Correct
1,new_learn,32,636,A,77.9924386089664,44.011626741978446,3.8996219304483195,0.6913330162256779,A,603,Correct
1,new_learn,32,637,B,13.573276655010773,66.99379922185749,0.6786638327505387,1.0523361373572855,B,538,Correct
1,new_learn,32,638,B,30.51892521344117,51.14484059101973,1.5259462606720586,0.8033812773488432,B,701,Correct
1,new_learn,32,639,A,39.053887795959625,84.98187206366364,1.9526943897979812,1.3348921248175667,B,1340,Incorrect
1,new_learn,32,640,A,46.35790282965844,67.69544150511095,2.317895141482922,1.0633575085698705,B,639,Incorrect
1,new_learn,32,641,B,21.982888559078386,50.69178491296896,1.0991444279539193,0.7962646953996859,A,418,Incorrect
1,new_learn,32,642,B,33.210787033625095,43.258291085058275,1.6605393516812545,0.6794996473983396,B,498,Correct
1,new_learn,32,643,B,14.318114200346137,67.26223992197515,0.715905710017307,1.0565527940143562,B,701,Correct
1,new_learn,32,644,A,63.36269857198172,50.543073042119204,3.168134928599086,0.79392873479487,A,528,Correct
1,new_learn,32,645,B,36.06175671439792,56.27990783868959,1.803087835719896,0.8840427250536892,A,775,Incorrect
1,new_learn,32,646,A,72.22675575137424,45.805947434112724,3.6113377875687123,0.7195181397486438,B,412,Incorrect
1,new_learn,32,647,A,51.97951218511491,74.70705798988288,2.5989756092557457,1.1734957227616136,A,1279,Correct
1,new_learn,32,648,B,41.649271527986116,41.57377961097567,2.082463576399306,0.6530394030390114,A,653,Incorrect
1,new_learn,32,649,B,29.85894737757488,50.509431153392285,1.492947368878744,0.7934002892424832,A,535,Incorrect
1,new_learn,32,650,B,42.42680413892149,41.70498823301731,2.1213402069460745,0.6551004232544797,A,895,Incorrect
1,new_learn,32,651,B,29.047704133216634,57.13761484407824,1.4523852066608316,0.8975155551889966,B,488,Correct
1,new_learn,32,652,A,40.65201993799203,77.99396224025517,2.0326009968996015,1.225126293991727,B,1303,Incorrect
1,new_learn,32,653,B,19.99585305637342,58.01670921827581,0.999792652818671,0.9113243373279526,B,500,Correct
1,new_learn,32,654,A,83.90743326811179,32.232717123316974,4.19537166340559,0.5063103365992526,A,670,Correct
1,new_learn,32,655,B,19.763975559266385,61.86827194772047,0.9881987779633192,0.9718245432062707,B,724,Correct
1,new_learn,32,656,B,18.48250658455141,65.92964322010033,0.9241253292275704,1.0356204139703167,B,606,Correct
1,new_learn,32,657,B,66.55903467836208,15.374991250540319,3.327951733918104,0.24150979780852408,A,546,Incorrect
1,new_learn,32,658,A,48.307635304901844,78.5502389519917,2.415381765245092,1.2338642681464997,B,1021,Incorrect
1,new_learn,32,659,B,53.94452468339413,37.20024111515109,2.6972262341697064,0.5843400209956382,A,723,Incorrect
1,new_learn,32,660,B,38.85624416099456,42.5324281458336,1.9428122080497277,0.668097819011433,A,249,Incorrect
1,new_learn,32,661,A,57.283260027979864,55.76303164552569,2.864163001398993,0.8759236527973934,A,408,Correct
1,new_learn,32,662,A,54.675786839353776,61.54288066957458,2.733789341967689,0.9667133089614438,A,494,Correct
1,new_learn,32,663,A,52.34597532534526,67.67152402107178,2.617298766267263,1.0629818136091216,A,483,Correct
1,new_learn,32,664,B,57.419230277858574,30.535075182560803,2.8709615138929285,0.47964383935172505,B,708,Correct
1,new_learn,32,665,B,25.3881783344376,56.484621313991305,1.26940891672188,0.8872583568041826,B,797,Correct
1,new_learn,32,666,A,48.651890138796084,73.51312764408097,2.4325945069398043,1.1547415087452675,A,1558,Correct
1,new_learn,32,667,A,75.98304867358266,53.118673908667105,3.7991524336791325,0.834386178599502,A,763,Correct
1,new_learn,32,668,A,37.416060333398654,74.81648274048845,1.8708030166699328,1.1752145627247303,B,713,Incorrect
1,new_learn,32,669,B,49.57561358936574,43.14603256677693,2.478780679468287,0.6777362947166619,A,1387,Incorrect
1,new_learn,32,670,A,60.8599511813928,61.217974646003334,3.0429975590696405,0.9616096970776513,B,458,Incorrect
1,new_learn,32,671,B,31.54673908146469,54.27344163617833,1.5773369540732345,0.852525227646261,B,1277,Correct
1,new_learn,32,672,B,48.634729207783494,40.16958024342686,2.4317364603891747,0.6309822909526775,B,987,Correct
1,new_learn,32,673,B,63.88456034811868,16.094315953925772,3.194228017405934,0.252808923827031,A,647,Incorrect
1,new_learn,32,674,A,65.27405816281126,46.154139379101025,3.2637029081405626,0.7249875260307159,A,419,Correct
1,new_learn,32,675,B,45.46863872254269,22.513540218464158,2.2734319361271345,0.35364186278312676,B,767,Correct
1,new_learn,32,676,A,64.03046834561059,55.39016834659411,3.201523417280529,0.8700667297938096,A,1320,Correct
1,new_learn,32,677,A,62.08859325874086,64.42923230207532,3.1044296629370427,1.0120520143831502,A,880,Correct
1,new_learn,32,678,B,14.566492780143157,57.75420667069907,0.7283246390071579,0.9072009569528743,B,781,Correct
1,new_learn,32,679,B,37.64312895183793,40.10399125739589,1.8821564475918964,0.6299520215693211,B,834,Correct
1,new_learn,32,680,A,55.718932381658334,50.99886706901328,2.7859466190829165,0.8010883306270726,B,3800,Incorrect
1,new_learn,32,681,B,14.231822614713707,58.534621227855595,0.7115911307356854,0.9194596801504614,B,601,Correct
1,new_learn,32,682,B,68.3494200274162,14.855850662548363,3.41747100137081,0.233355156521445,A,588,Incorrect
1,new_learn,32,683,A,49.02495352288233,59.1354219340992,2.451247676144116,0.9288970355754937,A,509,Correct
1,new_learn,32,684,B,13.653889103719848,69.14560207836936,0.6826944551859924,1.0861365775872416,B,586,Correct
1,new_learn,32,685,A,49.93911421142501,77.8029820004541,2.4969557105712505,1.2221263834000275,A,682,Correct
1,new_learn,32,686,A,34.64887843217215,84.12536479959384,1.7324439216086074,1.321438140174827,A,1401,Correct
1,new_learn,32,687,A,78.91622182283567,47.260196104392435,3.9458110911417834,0.7423614244438612,A,1127,Correct
1,new_learn,32,688,A,34.775013683459036,84.09940418204138,1.7387506841729519,1.3210303517478998,A,548,Correct
1,new_learn,32,689,B,31.108366514559172,46.61485488227035,1.5554183257279588,0.7322244282314742,A,672,Incorrect
1,new_learn,32,690,A,39.66818312299392,86.22690962565805,1.9834091561496963,1.3544491291085918,A,869,Correct
1,new_learn,32,691,B,21.018892938011746,59.95503309897181,1.0509446469005872,0.9417714576473137,B,809,Correct
1,new_learn,32,692,B,23.43909884213672,63.13012793908804,1.1719549421068358,0.9916457307681138,B,1103,Correct
1,new_learn,32,693,B,20.1687778071012,65.90634094642004,1.00843889035506,1.035254382711287,B,513,Correct
1,new_learn,32,694,A,56.464063998825395,75.1896684535321,2.8232031999412697,1.1810765501973433,A,1282,Correct
1,new_learn,32,695,B,23.010275920999266,57.387203593264076,1.1505137960499632,0.9014360860933011,B,1100,Correct
1,new_learn,32,696,A,73.11178424906576,42.82591372379159,3.655589212453288,0.6727078796896697,A,1275,Correct
1,new_learn,32,697,A,33.30866984754136,85.06879972462905,1.665433492377068,1.3362575813229802,A,1048,Correct
1,new_learn,32,698,B,62.81444879664957,16.665502836442144,3.1407224398324787,0.26178110639673247,A,2400,Incorrect
1,new_learn,32,699,A,64.37731140093638,44.79033852753563,3.2188655700468187,0.703564992349529,A,765,Correct
1,new_learn,32,700,B,20.94326485666433,57.559181554024136,1.0471632428332165,0.9041375095838168,A,3499,Incorrect
1,new_learn,32,701,A,56.16286996165839,64.09655968567685,2.808143498082919,1.0068264051445104,A,711,Correct
1,new_learn,32,702,B,47.70850095993553,29.035709962542853,2.3854250479967765,0.45609186555044295,B,1109,Correct
1,new_learn,32,703,B,21.905098826535788,64.97578779779366,1.0952549413267894,1.0206372880337895,B,1250,Correct
1,new_learn,32,704,A,39.9261976708806,86.4809085478766,1.9963098835440298,1.3584389348488994,A,974,Correct
1,new_learn,32,705,A,45.396194022047126,78.00056850775093,2.269809701102356,1.2252300649988883,A,702,Correct
1,new_learn,32,706,A,56.843636761404774,62.95343717128465,2.8421818380702386,0.9888702786776723,A,1215,Correct
1,new_learn,32,707,B,46.383084267045405,31.210608678796603,2.3191542133522702,0.4902550946968663,B,1013,Correct
1,new_learn,32,708,A,53.543065503084044,73.00960426402213,2.677153275154202,1.1468321819867497,A,578,Correct
1,new_learn,32,709,B,12.491357263830594,60.56603030135997,0.6245678631915297,0.9513689792592465,B,722,Correct
1,new_learn,32,710,A,38.04406642522943,71.51439638332877,1.9022033212614715,1.1233455115188706,A,1974,Correct
1,new_learn,32,711,A,77.07257587659818,41.90005556063457,3.853628793829909,0.6581645336714688,A,743,Correct
1,new_learn,32,712,A,77.82007693991812,49.88852585100631,3.8910038469959063,0.7836471315597295,A,711,Correct
1,new_learn,32,713,B,40.17263165563175,45.454300227038964,2.0086315827815873,0.7139944783366524,A,2110,Incorrect
1,new_learn,32,714,B,62.978561899263184,15.667252282519243,3.1489280949631593,0.24610062336350183,A,616,Incorrect
1,new_learn,32,715,B,62.072464098515084,26.46983944630928,3.103623204925754,0.4157872657311328,B,507,Correct
1,new_learn,32,716,B,46.28572998726665,31.755159682178814,2.3142864993633325,0.4988088818555187,B,613,Correct
1,new_learn,32,717,A,86.34077268591912,31.123856089845134,4.3170386342959555,0.48889238821621706,B,622,Incorrect
1,new_learn,32,718,A,47.82274172689827,70.40623214305111,2.3911370863449135,1.1059385083377347,A,861,Correct
1,new_learn,32,719,A,80.73568826740849,50.34799782057117,4.036784413370424,0.7908645003803068,A,498,Correct
1,new_learn,32,720,A,49.25711381114563,72.1645227806985,2.462855690557282,1.1335576730882784,A,812,Correct
1,new_learn,32,721,B,51.90593184122433,33.25797475559463,2.5952965920612168,0.5224150458272544,B,1286,Correct
1,new_learn,32,722,B,46.24341033870823,37.14884239099549,2.3121705169354114,0.5835326517245826,B,2566,Correct
1,new_learn,32,723,A,57.891375103543176,58.45488254007868,2.894568755177159,0.9182071477718272,A,695,Correct
1,new_learn,32,724,A,51.198543518852716,62.516287145229015,2.5599271759426356,0.9820035421258074,A,726,Correct
1,new_learn,32,725,A,55.667604958580284,60.637561881027636,2.7833802479290144,0.9524925946851645,A,822,Correct
1,new_learn,32,726,A,80.7474186354855,47.53688198472922,4.037370931774275,0.7467075960889515,A,1087,Correct
1,new_learn,32,727,B,46.254841284726815,39.32089104439913,2.3127420642363408,0.617651112188445,B,914,Correct
1,new_learn,32,728,A,64.2815693113599,55.57953128945063,3.2140784655679955,0.8730412359445108,A,952,Correct
1,new_learn,32,729,A,43.50938663191137,73.30418559843899,2.1754693315955684,1.1514594547671932,A,1785,Correct
1,new_learn,32,730,A,57.81512509628554,63.920890462622545,2.8907562548142773,1.0040669994414644,A,1365,Correct
1,new_learn,32,731,B,49.96464213974676,25.551310828452344,2.498232106987338,0.401359051941276,B,932,Correct
1,new_learn,32,732,A,37.276711755337004,81.50939975349074,1.8638355877668502,1.280346657320401,A,968,Correct
1,new_learn,32,733,A,75.48725964947096,51.42251990107286,3.774362982473548,0.8077430537514272,A,752,Correct
1,new_learn,32,734,A,41.12423352225852,68.73177203843821,2.056211676112926,1.0796361505208292,B,1615,Incorrect
1,new_learn,32,735,B,52.449737616219814,29.484596865012463,2.6224868808109907,0.463142964525899,B,814,Correct
1,new_learn,32,736,B,44.60472344134429,42.649271646599686,2.2302361720672144,0.6699331924295652,A,618,Incorrect
1,new_learn,32,737,B,21.09251992457299,59.91194808428518,1.0546259962286495,0.9410946798192169,B,725,Correct
1,new_learn,32,738,B,18.46901400247025,65.05249510843426,0.9234507001235124,1.0218422036517152,B,671,Correct
1,new_learn,32,739,A,76.77512178484157,44.413546842732785,3.8387560892420787,0.6976463624049773,A,852,Correct
1,new_learn,32,740,B,54.22143427058515,26.362301355617333,2.711071713529258,0.4140980613526383,B,2681,Correct
1,new_learn,32,741,B,16.454750339947978,55.1680526054947,0.8227375169973989,0.866577743891387,B,1133,Correct
1,new_learn,32,742,A,66.97643821335983,44.181920995273984,3.3488219106679913,0.6940079921011869,A,589,Correct
1,new_learn,32,743,A,37.494647493053776,76.96497350534054,1.8747323746526887,1.2089629767405543,A,985,Correct
1,new_learn,32,744,B,40.132910849794705,42.80566795557244,2.006645542489735,0.672389859906152,B,1642,Correct
1,new_learn,32,745,A,79.2074533622173,35.7409339990008,3.9603726681108644,0.561417278418493,A,686,Correct
1,new_learn,32,746,A,39.575790360678695,85.02248689418954,1.9787895180339348,1.3355301010836016,A,876,Correct
1,new_learn,32,747,A,77.27105234514869,49.64477514549972,3.8635526172574344,0.7798183044310953,A,712,Correct
1,new_learn,32,748,A,57.83717161282718,54.448241238410965,2.891858580641359,0.8552709733773836,A,1132,Correct
1,new_learn,32,749,A,81.40708388372022,45.457599566434965,4.070354194186011,0.7140463042386933,A,540,Correct
1,new_learn,32,750,B,33.136376413126406,58.37501796014679,1.6568188206563204,0.916952637883847,B,1784,Correct
1,new_learn,32,751,A,54.770654941572964,64.09037271446137,2.7385327470786485,1.0067292204279177,A,2240,Correct
1,new_learn,32,752,A,60.53130302951222,61.63936225568458,3.026565151475611,0.9682288381720933,A,561,Correct
1,new_learn,32,753,A,65.40367136154273,51.0425932111212,3.2701835680771363,0.8017751792611532,A,709,Correct
1,new_learn,32,754,A,42.189825586996335,76.94295336210322,2.109491279349817,1.2086170851394276,A,1765,Correct
1,new_learn,32,755,A,58.99932504458531,63.167320366303365,2.949966252229266,0.9922299480486578,A,578,Correct
1,new_learn,32,756,B,38.855449113693474,46.420091134333376,1.9427724556846737,0.7291650864329521,B,1894,Correct
1,new_learn,32,757,A,38.19600177840706,77.78409126470802,1.909800088920353,1.2218296484168236,A,705,Correct
1,new_learn,32,758,B,15.566045185342112,64.73975737286898,0.7783022592671057,1.0169297307889542,B,712,Correct
1,new_learn,32,759,A,49.88927777590442,75.37305131654215,2.494463888795221,1.1839571214734763,A,519,Correct
1,new_learn,32,760,B,23.159159197340024,56.54512142863439,1.1579579598670011,0.8882086903827029,B,641,Correct
1,new_learn,32,761,B,40.33219741111843,33.87987503902501,2.0166098705559214,0.5321838326357059,B,2876,Correct
1,new_learn,32,762,B,21.416602219112022,54.51102867148946,1.070830110955601,0.8562572360698694,B,728,Correct
1,new_learn,32,763,A,71.27396839168597,60.54824034654766,3.5636984195842984,0.951089535302516,A,552,Correct
1,new_learn,32,764,B,54.34500637738436,30.471742804455445,2.7172503188692176,0.47864901668277426,B,2612,Correct
1,new_learn,32,765,B,12.804419125099386,62.46368302342832,0.6402209562549693,0.9811772385128193,B,759,Correct
1,new_learn,32,766,B,35.01444485233696,44.26023865535903,1.750722242616848,0.6952382030290346,B,1974,Correct
1,new_learn,32,767,A,69.74308772973193,48.89727362048414,3.4871543864865964,0.7680765779334149,A,588,Correct
1,new_learn,32,768,B,30.193194404788642,37.24941950264478,1.5096597202394322,0.5851125132999659,B,624,Correct
1,new_learn,32,769,A,42.94394640485824,82.32602466162977,2.147197320242912,1.293174171381141,A,871,Correct
1,new_learn,32,770,B,23.354297709338045,58.40939479997276,1.1677148854669022,0.9174926280211014,B,1054,Correct
1,new_learn,32,771,B,42.577194781683474,26.11299306947282,2.1288597390841737,0.41018193595148494,B,2142,Correct
1,new_learn,32,772,B,21.961386020009563,56.134869531545675,1.0980693010004783,0.8817644686526269,B,1201,Correct
1,new_learn,32,773,B,31.160135482166186,38.34443008535756,1.5580067741083092,0.6023128993112337,B,1651,Correct
1,new_learn,32,774,A,69.84115146298328,45.7595911773885,3.4920575731491637,0.7187899773707801,A,561,Correct
1,new_learn,32,775,A,44.32739798235274,67.7556343914195,2.216369899117637,1.0643030162169973,A,1071,Correct
1,new_learn,32,776,A,40.080167182222084,75.70137945255753,2.004008359111104,1.1891144877738402,A,670,Correct
1,new_learn,32,777,A,39.722947590447625,83.554542127992,1.9861473795223814,1.3124716786167927,A,532,Correct
1,new_learn,32,778,B,50.503859347732956,32.976264165624414,2.525192967386648,0.51798994622781,A,765,Incorrect
1,new_learn,32,779,B,35.06410009994488,43.13271496552177,1.753205004997244,0.6775271023253286,B,1073,Correct
1,new_learn,32,780,B,65.94436293834424,21.326000825896074,3.2972181469172117,0.33498803762542484,A,602,Incorrect
1,new_learn,32,781,A,75.60039725139387,49.872741279985476,3.7800198625696937,0.7833991880979341,A,645,Correct
1,new_learn,32,782,B,41.613618623525824,30.534492334201346,2.0806809311762913,0.479634683991104,B,888,Correct
1,new_learn,32,783,B,60.212433256169675,28.676620687414754,3.0106216628084836,0.45045130440681636,A,664,Incorrect
1,new_learn,32,784,B,50.96150992453269,28.569610363173908,2.5480754962266348,0.44877039016434983,B,449,Correct
1,new_learn,32,785,B,43.4264524867934,29.40269571734312,2.17132262433967,0.46185646430670607,B,484,Correct
1,new_learn,32,786,A,69.04475527955296,42.46620719355635,3.452237763977648,0.6670576227254933,B,425,Incorrect
1,new_learn,32,787,A,53.69537779173085,69.8447455463887,2.6847688895865423,1.0971186975019156,A,320,Correct
1,new_learn,32,788,B,61.35365175222837,27.54203290225172,3.0676825876114187,0.4326292411532119,B,456,Correct
1,new_learn,32,789,A,40.099095311921545,70.5825638947574,2.004954765596077,1.10870832101651,A,404,Correct
1,new_learn,32,790,B,25.32177016385567,56.51463554562909,1.2660885081927835,0.8877298192522648,B,764,Correct
1,new_learn,32,791,A,65.3021932009704,59.88086294987106,3.2651096600485197,0.9406063956696606,A,553,Correct
1,new_learn,32,792,B,28.377778105250748,52.353709030318406,1.4188889052625373,0.8223701383891295,B,673,Correct
1,new_learn,32,793,B,16.905642599152365,66.55356556719326,0.8452821299576183,1.045420963280505,B,602,Correct
1,new_learn,32,794,A,45.0872768401598,80.53788568147411,2.25436384200799,1.2650861499628683,A,1455,Correct
1,new_learn,32,795,B,45.8345435841295,44.67129675817291,2.291727179206475,0.7016950886090277,B,2206,Correct
1,new_learn,32,796,A,53.269288876745165,71.43441536569574,2.6634644438372583,1.122089172631758,A,1025,Correct
1,new_learn,32,797,A,76.1853208790077,36.42913824636763,3.809266043950385,0.5722275654569775,B,951,Incorrect
1,new_learn,32,798,A,46.13848627855032,79.54702365216906,2.306924313927516,1.2495217256029392,B,701,Incorrect
1,new_learn,32,799,B,37.01026029939446,39.930336216465015,1.850513014969723,0.6272242545650848,B,802,Correct
1,new_learn,32,800,A,58.79485040800107,56.76316485838876,2.9397425204000536,0.8916337085681022,A,569,Correct
1,new_learn,32,801,B,35.626545426279954,44.33885294969488,1.7813272713139978,0.6964730734767978,B,738,Correct
1,new_learn,32,802,A,55.33660639665858,52.093755000846556,2.7668303198329287,0.8182867900428303,A,1358,Correct
1,new_learn,32,803,B,60.490052316648566,19.542163244209362,3.024502615832428,0.30696758241630306,A,1166,Incorrect
1,new_learn,32,804,B,17.756708894756585,64.1294022185308,0.8878354447378293,1.0073422944442065,B,718,Correct
1,new_learn,32,805,A,86.85670538015897,38.363173086718064,4.342835269007948,0.6026073136881357,A,600,Correct
1,new_learn,32,806,B,66.18647435684642,16.916312092986914,3.3093237178423207,0.2657208089857993,B,1421,Correct
1,new_learn,32,807,A,54.38150120229703,76.8698953879196,2.719075060114852,1.2074694931645205,A,1065,Correct
1,new_learn,32,808,A,47.16112235311755,77.46334610104542,2.3580561176558774,1.2167913951676392,A,784,Correct
1,new_learn,32,809,A,37.210068410121536,75.22785144747557,1.8605034205060769,1.1816763272636677,A,739,Correct
1,new_learn,32,810,A,74.74926210252063,56.44353695942012,3.7374631051260314,0.8866130052716911,A,821,Correct
1,new_learn,32,811,A,54.5192414031789,65.544342063926,2.725962070158945,1.029568117562032,A,2961,Correct
1,new_learn,32,812,A,52.65088026770541,73.32501136671776,2.6325440133852704,1.1517865851703428,A,730,Correct
1,new_learn,32,813,A,60.46807528318992,70.61577523310913,3.023403764159496,1.1092300034994185,A,637,Correct
1,new_learn,32,814,A,48.031859991452194,73.09191591803761,2.4015929995726095,1.1481251304245492,A,1161,Correct
1,new_learn,32,815,B,59.71984438148344,27.818998644312458,2.9859922190741717,0.43697980885598214,B,1115,Correct
1,new_learn,32,816,B,34.84549526687649,33.20700760208419,1.7422747633438247,0.5216144556520406,B,763,Correct
1,new_learn,32,817,B,15.136515450092986,66.63941209398973,0.7568257725046493,1.0467694373701046,B,831,Correct
1,new_learn,32,818,A,63.51147231423122,57.7565791248089,3.175573615711561,0.9072382233748862,A,1054,Correct
1,new_learn,32,819,A,52.07495681536888,76.35750051677743,2.6037478407684436,1.199420813349934,A,973,Correct
1,new_learn,32,820,B,60.35482349900544,12.321834659509676,3.017741174950272,0.19355092622531847,B,944,Correct
1,new_learn,32,821,B,52.2111184341821,26.178152276431632,2.6105559217091048,0.4112054543809626,B,2425,Correct
1,new_learn,32,822,A,53.358348650539284,53.99815903487057,2.667917432526964,0.8482010986566133,A,2207,Correct
1,new_learn,32,823,A,55.86561963342442,55.92436102301576,2.793280981671221,0.8784578087330486,A,877,Correct
1,new_learn,32,824,B,43.391885856162695,24.46116681577662,2.1695942928081347,0.3842351098333913,B,769,Correct
1,new_learn,32,825,A,75.50111065303972,40.329733946792615,3.775055532651986,0.6334979794423728,A,831,Correct
1,new_learn,32,826,B,58.38691754769154,33.22923343026871,2.9193458773845773,0.5219635781447626,A,998,Incorrect
1,new_learn,32,827,A,52.42946843269011,67.73792813171468,2.6214734216345055,1.0640248869399411,A,2128,Correct
1,new_learn,32,828,A,83.03253396355659,44.67705585076378,4.15162669817783,0.7017855522239018,A,787,Correct
1,new_learn,32,829,B,34.720059930674594,53.43312811503391,1.7360029965337298,0.8393256137225639,B,643,Correct
1,new_learn,32,830,B,56.88724688017989,35.00088566216,2.844362344008994,0.549792626326891,B,2767,Correct
1,new_learn,32,831,B,21.68996942538551,55.02803704284628,1.0844984712692756,0.8643783845763644,B,753,Correct
1,new_learn,32,832,B,49.560076539850606,22.336461785375278,2.47800382699253,0.35086032126062067,B,2487,Correct
1,new_learn,32,833,B,21.83583804978049,63.55026213390163,1.0917919024890246,0.9982451832678548,B,761,Correct
1,new_learn,32,834,B,13.180943026160207,63.822666886086765,0.6590471513080104,1.0025241071091935,B,646,Correct
1,new_learn,32,835,A,64.14074779658253,64.41615022210084,3.207037389829127,1.0118465215514425,A,1979,Correct
1,new_learn,32,836,B,23.701488659501177,54.278269857080325,1.1850744329750589,0.8526010691628392,B,851,Correct
1,new_learn,32,837,B,38.26272764415629,46.13781806755356,1.9131363822078145,0.7247311514684435,B,1685,Correct
1,new_learn,32,838,B,36.97251685549491,35.59710731267103,1.8486258427747455,0.559158054112674,B,693,Correct
1,new_learn,32,839,B,54.20157094457788,20.231476000319105,2.7100785472288944,0.3177952818694036,B,2106,Correct
1,new_learn,32,840,A,50.226534287593125,58.018747968743384,2.5113267143796563,0.9113563619454098,A,2022,Correct
1,new_learn,32,841,A,83.43717828849827,43.429506593315324,4.171858914424914,0.6821890943129445,A,755,Correct
1,new_learn,32,842,B,15.3606561583004,65.97447817935394,0.76803280791502,1.0363246798633923,B,704,Correct
1,new_learn,32,843,A,72.86945905689602,45.444264796430836,3.643472952844801,0.713836842161282,A,1482,Correct
1,new_learn,32,844,B,48.665633782812264,19.779228657700827,2.4332816891406135,0.3106913972235281,B,1045,Correct
1,new_learn,32,845,A,39.5492240742405,79.19945085539375,1.977461203712025,1.2440620648782545,A,911,Correct
1,new_learn,32,846,B,22.870641774813734,62.348165076159006,1.1435320887406868,0.9793626868403241,B,1228,Correct
1,new_learn,32,847,B,31.02489808465441,36.37342911133738,1.5512449042327205,0.5713524884102331,B,2108,Correct
1,new_learn,32,848,B,44.05655397978518,40.555757277702966,2.202827698989259,0.6370483456220122,B,1489,Correct
1,new_learn,32,849,A,43.81633905146378,81.27577444935059,2.190816952573189,1.2766768796245043,A,1124,Correct
1,new_learn,32,850,A,55.11014050984758,58.123189087702805,2.7555070254923795,0.9129969192056878,A,1094,Correct
1,new_learn,32,851,B,46.43282304228816,35.26760815203916,2.3216411521144082,0.5539822934006486,B,760,Correct
1,new_learn,32,852,A,56.66997061647317,73.76666610171465,2.833498530823659,1.1587240815247897,A,612,Correct
1,new_learn,32,853,A,70.10097941756617,49.35639652304557,3.5050489708783084,0.775288463622324,A,783,Correct
1,new_learn,32,854,B,62.219116344404796,11.866753399648303,3.11095581722024,0.1864025265114841,B,1067,Correct
1,new_learn,32,855,A,67.26389902052773,57.07286386951645,3.3631949510263865,0.896498449259016,A,948,Correct
1,new_learn,32,856,B,26.437912350944952,63.21214740916926,1.3218956175472476,0.9929340895914062,B,873,Correct
1,new_learn,32,857,B,33.520945921893116,40.19878349097134,1.6760472960946557,0.6314410144924111,B,995,Correct
1,new_learn,32,858,B,55.221115575169335,29.954069279255577,2.761055778758467,0.47051741996414526,B,2026,Correct
1,new_learn,32,859,B,44.55427562014411,33.29798905470851,2.227713781007205,0.5230435889679279,B,1275,Correct
1,new_learn,32,860,A,66.0868395987312,63.89090458300128,3.3043419799365603,1.0035959823458163,A,614,Correct
1,new_learn,32,861,B,36.3456697026466,37.95299061471526,1.81728348513233,0.5961641824847592,B,629,Correct
1,new_learn,32,862,B,52.500939884189435,28.700688826003812,2.625046994209472,0.45082936584370115,B,1672,Correct
1,new_learn,32,863,A,53.04304617256957,77.6410433694486,2.6521523086284784,1.219582657332531,A,606,Correct
1,new_learn,32,864,A,71.00786103124375,60.715202090086095,3.5503930515621875,0.9537121642371706,A,1002,Correct
1,new_learn,32,865,B,20.234005217813557,64.768785467066,1.011700260890678,1.0173857030263396,B,634,Correct
1,new_learn,32,866,B,57.04692490131241,29.873510424743387,2.8523462450656205,0.46925200443655957,B,1686,Correct
1,new_learn,32,867,A,69.79879706782692,48.767288469649735,3.489939853391346,0.7660347759587292,A,1311,Correct
1,new_learn,32,868,B,64.3788447453925,20.434874175995674,3.2189422372696246,0.3209902529416989,B,956,Correct
1,new_learn,32,869,B,60.787861822769614,27.130786445691015,3.0393930911384808,0.4261693969194822,B,2180,Correct
1,new_learn,32,870,B,43.991385833919075,25.911345775408478,2.199569291695954,0.40701446766324095,B,711,Correct
1,new_learn,32,871,A,43.03371882140674,71.26528461071024,2.151685941070337,1.119432472944965,A,767,Correct
1,new_learn,32,872,B,37.22823021754978,47.89921534606455,1.861411510877489,0.7523991152195594,B,2534,Correct
1,new_learn,32,873,A,43.72985487305894,69.84473683315505,2.186492743652947,1.0971185606347618,A,840,Correct
1,new_learn,32,874,A,68.44171837380946,44.06227729268385,3.422085918690473,0.6921286332156596,A,853,Correct
1,new_learn,32,875,B,16.39949206462454,61.10300133176003,0.819974603231227,0.9598037004807233,B,551,Correct
1,new_learn,32,876,A,42.7130717898747,81.67183570325328,2.1356535894937347,1.2828981952526652,A,744,Correct
1,new_learn,32,877,A,61.7004146542393,63.459972512957314,3.0850207327119654,0.9968269172185845,A,771,Correct
1,new_learn,32,878,B,23.61542585743846,65.53933932326248,1.180771292871923,1.0294895346954502,B,587,Correct
1,new_learn,32,879,A,54.057100320639385,73.54279388637799,2.702855016031969,1.1552075049895674,A,703,Correct
1,new_learn,32,880,B,50.10667474792883,39.938880259679415,2.5053337373964415,0.6273584640820563,B,1286,Correct
1,new_learn,32,881,A,40.20596425060927,72.449840117236,2.0102982125304636,1.1380394273303183,A,611,Correct
1,new_learn,32,882,A,76.36544414301869,53.46317577589845,3.8182722071509345,0.8397976012757117,A,771,Correct
1,new_learn,32,883,A,75.5812984082686,43.34196588560816,3.77906492041343,0.6808140080918302,A,847,Correct
1,new_learn,32,884,B,32.9819908955922,42.36415483272109,1.6490995447796097,0.6654545879900856,B,623,Correct
1,new_learn,32,885,B,50.495935994095426,30.21350761737274,2.524796799704771,0.4745926678495873,B,1674,Correct
1,new_learn,32,886,B,20.310846982380447,48.34985750061725,1.0155423491190223,0.7594777856302625,B,671,Correct
1,new_learn,32,887,B,25.25555167196636,42.11304514726026,1.262777583598318,0.6615101662746407,B,635,Correct
1,new_learn,32,888,B,35.71528890754401,46.91110036349872,1.7857644453772001,0.7368778413689052,B,2360,Correct
1,new_learn,32,889,A,72.41735172898908,59.70034791279733,3.6208675864494535,0.9377708720979943,A,553,Correct
1,new_learn,32,890,A,41.35317569379478,80.04739866337911,2.067658784689739,1.2573815978992262,A,1348,Correct
1,new_learn,32,891,B,48.437882105911214,33.1311966516394,2.4218941052955607,0.5204236200271454,B,1736,Correct
1,new_learn,32,892,B,62.66852414595573,21.286344386940996,3.1334262072977865,0.3343651157389808,A,1037,Incorrect
1,new_learn,32,893,B,22.237943026215675,54.09083376191634,1.1118971513107838,0.8496568298649158,B,719,Correct
1,new_learn,32,894,A,53.809560748395256,75.06937004881506,2.690478037419763,1.1791869072748553,A,1825,Correct
1,new_learn,32,895,A,47.52240136511355,69.5037109565107,2.376120068255678,1.0917617386910121,A,1228,Correct
1,new_learn,32,896,B,40.086639444179475,34.633827924886575,2.004331972208974,0.5440268968725834,B,829,Correct
1,new_learn,32,897,B,12.123020997352583,67.78695401525962,0.6061510498676291,1.0647949837178439,B,913,Correct
1,new_learn,32,898,B,33.5728802717347,47.45682127748596,1.6786440135867349,0.7454500054403684,B,2629,Correct
