experiment,condition,subject,trial,cat,x,y,xt,yt,resp,rt,fb
2,new_learn,46,0,A,47.319485562655025,55.16420727224194,2.365974278132751,0.8665173415378995,A,1505,Correct
2,new_learn,46,1,A,17.681391569775524,44.97778696272891,0.8840695784887762,0.7065094254841796,B,914,Incorrect
2,new_learn,46,2,B,53.3860346047488,26.66052684408845,2.66930173023744,0.4187825763711088,A,1186,Incorrect
2,new_learn,46,3,A,57.25043865156975,71.71742993482523,2.862521932578488,1.1265347550879383,B,1017,Incorrect
2,new_learn,46,4,B,55.95975505310292,26.843987001638414,2.7979877526551458,0.42166436178703576,A,879,Incorrect
2,new_learn,46,5,B,56.231077159104956,47.519787141185866,2.811553857955248,0.746439070914501,B,719,Correct
2,new_learn,46,6,A,17.45529547159614,34.24103114900795,0.8727647735798071,0.5378568595453134,A,658,Correct
2,new_learn,46,7,B,76.18246130113732,59.36121904627612,3.809123065056866,0.9324438483195779,B,791,Correct
2,new_learn,46,8,A,29.111822014759433,54.187976388363225,1.4555911007379718,0.8511827426728953,A,859,Correct
2,new_learn,46,9,B,64.8146884057677,45.220053863067676,3.2407344202883848,0.7103149450557408,B,689,Correct
2,new_learn,46,10,A,22.505721609531392,51.22636212719337,1.1252860804765696,0.8046618146446055,A,691,Correct
2,new_learn,46,11,A,31.94240613077389,53.644762265124335,1.5971203065386945,0.8426499551784278,B,1001,Incorrect
2,new_learn,46,12,B,68.63600291439963,41.85397474220814,3.4318001457199814,0.6574406978682692,B,864,Correct
2,new_learn,46,13,A,37.50158468085493,70.55455784705566,1.8750792340427467,1.1082684030479308,B,1018,Incorrect
2,new_learn,46,14,A,26.24560152897123,49.77263427098375,1.3122800764485616,0.7818267108776706,B,1204,Incorrect
2,new_learn,46,15,B,52.9153814598767,39.35339323174514,2.645769072993835,0.6181616553534041,A,611,Incorrect
2,new_learn,46,16,A,46.79582624768011,64.41274690963651,2.3397913123840057,1.0117930624442635,A,537,Correct
2,new_learn,46,17,B,49.04703205588132,35.610340634352525,2.452351602794066,0.55936592264356,A,848,Incorrect
2,new_learn,46,18,B,82.25682980218076,65.836477647599,4.112841490109037,1.034156972579628,B,875,Correct
2,new_learn,46,19,A,31.95881897821727,59.16142016697028,1.5979409489108636,0.9293054148624643,A,891,Correct
2,new_learn,46,20,B,74.46093071651605,50.068742950931494,3.723046535825802,0.7864779751456106,B,1058,Correct
2,new_learn,46,21,B,70.17044410143237,57.31111064794264,3.5085222050716185,0.9002408209032418,B,659,Correct
2,new_learn,46,22,A,57.3897464197288,83.99355442089066,2.8694873209864404,1.319367667587823,A,903,Correct
2,new_learn,46,23,A,65.3735211414297,77.18225348443946,3.2686760570714855,1.2123760026711012,A,719,Correct
2,new_learn,46,24,A,53.74785397786408,78.3308017598435,2.687392698893204,1.230417356792614,A,548,Correct
2,new_learn,46,25,A,42.58756382592137,53.114425225598374,2.1293781912960683,0.8343194404419211,B,736,Incorrect
2,new_learn,46,26,B,45.90625409117533,23.12157424944099,2.2953127045587665,0.36319283900737376,A,1125,Incorrect
2,new_learn,46,27,B,54.60330920688141,24.157307452751056,2.7301654603440704,0.37946209812036336,B,604,Correct
2,new_learn,46,28,B,81.184589767212,67.81060984883493,4.0592294883606,1.0651665686827176,B,1393,Correct
2,new_learn,46,29,A,62.58373864652787,75.49238813200583,3.1291869323263932,1.185831659787294,B,1380,Incorrect
2,new_learn,46,30,B,87.52219935634764,60.09974302403352,4.376109967817382,0.9440445558346907,A,1591,Incorrect
2,new_learn,46,31,A,35.22708560574397,56.804719075033795,1.7613542802871986,0.8922864406767907,B,778,Incorrect
2,new_learn,46,32,B,51.62840828860057,20.70873363605189,2.581420414430028,0.32529202728084233,A,1643,Incorrect
2,new_learn,46,33,A,37.92687291750438,61.912685988873605,1.8963436458752192,0.9725221973332852,A,790,Correct
2,new_learn,46,34,B,39.797661618471906,16.37233047685427,1.9898830809235954,0.25717596574114826,B,1258,Correct
2,new_learn,46,35,A,35.290241889805635,59.799459037005455,1.7645120944902817,0.9393277059965004,B,951,Incorrect
2,new_learn,46,36,A,46.10793540207903,61.61169572491461,2.3053967701039513,0.9677942533230071,A,752,Correct
2,new_learn,46,37,B,53.61700842711993,38.58109447269895,2.6808504213559963,0.606030414814424,B,1445,Correct
2,new_learn,46,38,A,31.91884107534368,51.135466728781886,1.5959420537671838,0.8032340330651323,A,880,Correct
2,new_learn,46,39,B,60.04631212270647,35.104883198069146,3.0023156061353236,0.551426215800909,B,815,Correct
2,new_learn,46,40,A,45.33402872223951,60.77799462516175,2.2667014361119753,0.9546985070716404,B,973,Incorrect
2,new_learn,46,41,A,27.352266808055912,48.43782200318606,1.3676133404027957,0.7608595288054968,B,1073,Incorrect
2,new_learn,46,42,B,72.88429856791977,50.26609247203467,3.6442149283959884,0.7895779341740466,B,712,Correct
2,new_learn,46,43,A,18.48863483425017,37.2686001334528,0.9244317417125086,0.5854138019441545,A,819,Correct
2,new_learn,46,44,A,59.03499292769086,72.07615201181807,2.951749646384543,1.132169548296744,B,931,Incorrect
2,new_learn,46,45,A,42.37043539832312,66.63342028462272,2.1185217699161556,1.046675318248659,A,1480,Correct
2,new_learn,46,46,A,23.280333205577747,38.72777606067564,1.1640166602788873,0.6083344838104463,B,873,Incorrect
2,new_learn,46,47,A,35.41556732241081,56.88568251515363,1.7707783661205405,0.89355821142024,B,1268,Incorrect
2,new_learn,46,48,B,68.37055685218195,56.2629706460566,3.4185278426090973,0.883776676253948,B,809,Correct
2,new_learn,46,49,B,69.09152714216617,49.508095246676234,3.4545763571083086,0.7776713416009091,B,716,Correct
2,new_learn,46,50,B,44.53335046428998,17.595974374958033,2.2266675232144992,0.27639691914561204,B,1493,Correct
2,new_learn,46,51,B,33.614123168694135,11.831289693316169,1.6807061584347067,0.18584546391507356,B,1002,Correct
2,new_learn,46,52,B,45.170300321906616,19.529194816254364,2.258515016095331,0.30676387482634293,A,1984,Incorrect
2,new_learn,46,53,A,29.34742405162179,56.49858222426343,1.4673712025810894,0.8874776542699243,B,833,Incorrect
2,new_learn,46,54,B,64.18711655217781,45.7284245844011,3.2093558276088907,0.7183004136729468,B,599,Correct
2,new_learn,46,55,A,50.12435553639837,78.17018620868879,2.506217776819918,1.2278944136148144,B,1453,Incorrect
2,new_learn,46,56,A,36.022788920348205,52.81394688078698,1.8011394460174102,0.8295995376388097,A,785,Correct
2,new_learn,46,57,B,74.17635833781074,62.32803336054957,3.7088179168905366,0.9790464585910104,B,702,Correct
2,new_learn,46,58,B,80.1058544277776,59.38728620565496,4.00529272138888,0.9328533103016005,B,794,Correct
2,new_learn,46,59,A,50.523224233840956,79.39925873348372,2.5261612116920475,1.2472006396879385,A,867,Correct
2,new_learn,46,60,B,89.25853688387119,65.31364180964592,4.46292684419356,1.0259442864418937,B,917,Correct
2,new_learn,46,61,A,62.490024259569935,84.49355139394657,3.124501212978497,1.327221601674671,A,1134,Correct
2,new_learn,46,62,A,31.445506557379602,58.590206656064886,1.57227532786898,0.9203328140150063,B,668,Incorrect
2,new_learn,46,63,B,73.37435269809241,55.51721057393501,3.6687176349046204,0.8720623044343591,B,1552,Correct
2,new_learn,46,64,A,50.13256246447732,72.63541849603601,2.506628123223866,1.1409544856878346,A,1850,Correct
2,new_learn,46,65,A,30.388416116711817,43.16148548768585,1.519420805835591,0.6779790286306816,A,813,Correct
2,new_learn,46,66,B,61.300875581379835,50.391659040074614,3.0650437790689917,0.7915503292125005,B,839,Correct
2,new_learn,46,67,A,18.49503951020607,32.59563742877554,0.9247519755103035,0.5120110754265886,A,770,Correct
2,new_learn,46,68,B,78.88419296776111,63.69591157570309,3.9442096483880555,1.0005330393496694,B,1450,Correct
2,new_learn,46,69,B,52.95458090315002,32.29776349579289,2.647729045157501,0.5073320826288177,B,687,Correct
2,new_learn,46,70,B,65.97973700726212,52.800494384966434,3.2989868503631055,0.8293882263285983,B,784,Correct
2,new_learn,46,71,A,49.97500423925892,60.78852691629007,2.498750211962946,0.9548639479138112,B,744,Incorrect
2,new_learn,46,72,B,82.83096778631645,68.08741465781031,4.1415483893158225,1.0695146084544942,B,682,Correct
2,new_learn,46,73,B,72.04795004404028,42.79229092957061,3.6023975022020136,0.6721797340730808,B,609,Correct
2,new_learn,46,74,A,66.84328418627874,85.60128502664546,3.342164209313937,1.3446218408877764,A,808,Correct
2,new_learn,46,75,A,27.271760111999388,37.51387799527464,1.3635880055999694,0.589266617588093,A,751,Correct
2,new_learn,46,76,B,84.18850600850821,65.31520816886554,4.209425300425411,1.0259688907549802,B,682,Correct
2,new_learn,46,77,A,59.985804709842625,73.161292028468,2.9992902354921314,1.1492148878188628,A,771,Correct
2,new_learn,46,78,B,47.437998804556216,23.079549891203985,2.371899940227811,0.3625327219318278,B,806,Correct
2,new_learn,46,79,A,22.534892904490942,46.628708972855144,1.126744645224547,0.7324420477774909,A,687,Correct
2,new_learn,46,80,A,56.33110635830009,77.2150439990038,2.8165553179150042,1.2128910748694148,A,1454,Correct
2,new_learn,46,81,B,76.89421359987725,57.80052290745074,3.8447106799938626,0.9079284906984791,B,1267,Correct
2,new_learn,46,82,A,32.58125748605022,54.4235784339506,1.629062874302511,0.8548835709508354,A,2508,Correct
2,new_learn,46,83,B,58.20294704105538,39.045794034802725,2.910147352052769,0.613329898466582,B,2025,Correct
2,new_learn,46,84,B,46.28881833092103,17.257564686671103,2.3144409165460518,0.2710811921924829,A,1394,Incorrect
2,new_learn,46,85,B,53.7032782391471,26.171290148858837,2.685163911957355,0.41109766433310924,B,741,Correct
2,new_learn,46,86,B,85.02380828838949,63.422125658092284,4.251190414419474,0.9962324202125572,B,640,Correct
2,new_learn,46,87,A,51.23722635433993,60.412680641557,2.5618613177169967,0.948960168435909,A,731,Correct
2,new_learn,46,88,B,46.419836740405415,29.65686099416284,2.3209918370202707,0.4658488831389784,A,836,Incorrect
2,new_learn,46,89,B,73.55500315493121,61.89163838888068,3.6777501577465608,0.9721915824057179,B,620,Correct
2,new_learn,46,90,B,58.7152957970814,29.104441519901386,2.93576478985407,0.45717149832877974,B,686,Correct
2,new_learn,46,91,B,68.30299894505345,36.528650829190575,3.4151499472526723,0.5737907054526591,B,689,Correct
2,new_learn,46,92,A,57.32564246556677,65.53909469276451,2.8662821232783386,1.029485692048574,A,781,Correct
2,new_learn,46,93,A,39.10059754514052,68.17605906573527,1.955029877257026,1.0709070315580889,A,2195,Correct
2,new_learn,46,94,A,19.094978134240964,36.24870249329352,0.9547489067120482,0.5693932872754648,B,1377,Incorrect
2,new_learn,46,95,A,25.782306295861176,46.217155634694734,1.289115314793059,0.7259773830588654,A,681,Correct
2,new_learn,46,96,A,41.3978994417284,54.365055969829015,2.06989497208642,0.8539643022340638,B,712,Incorrect
2,new_learn,46,97,A,19.080868303272283,34.63737061520744,0.9540434151636141,0.5440825453220133,A,719,Correct
2,new_learn,46,98,B,79.08623776517611,53.521850648451675,3.9543118882588058,0.8407192640185295,B,643,Correct
2,new_learn,46,99,B,38.12003673565653,27.005741599539224,1.9060018367828264,0.42420519706928356,A,634,Incorrect
2,new_learn,46,100,B,81.96840493441553,53.59483882498169,4.098420246720776,0.8418657596144576,B,1392,Correct
2,new_learn,46,101,A,50.924025585243136,76.22484175237975,2.546201279262157,1.1973370143516038,A,905,Correct
2,new_learn,46,102,B,68.84959340009299,36.133210877385665,3.4424796700046496,0.5675791492150281,B,726,Correct
2,new_learn,46,103,B,39.936145641989796,28.767480722860675,1.99680728209949,0.45187853050612553,B,1133,Correct
2,new_learn,46,104,A,62.84877609599849,76.10073821852453,3.1424388047999243,1.1953876006003832,A,1143,Correct
2,new_learn,46,105,A,37.297448606109384,64.08293751476764,1.8648724303054691,1.0066124285842386,B,2003,Incorrect
2,new_learn,46,106,A,14.71155475703739,34.707883351311416,0.7355777378518695,0.5451901567906572,A,792,Correct
2,new_learn,46,107,A,43.4456638650398,62.79023074371161,2.1722831932519897,0.9863066381082618,B,726,Incorrect
2,new_learn,46,108,A,31.35199466818713,48.911975119587574,1.5675997334093565,0.7683075085413152,B,1319,Incorrect
2,new_learn,46,109,B,54.06094111361246,23.658088371114072,2.7030470556806225,0.3716203831233504,B,1992,Correct
2,new_learn,46,110,A,30.835038921855084,45.32820765076639,1.5417519460927542,0.7120138207802018,A,861,Correct
2,new_learn,46,111,B,75.87590854688267,55.12553139378302,3.7937954273441337,0.8659098222597112,B,639,Correct
2,new_learn,46,112,B,47.972681728292756,27.839491871676934,2.3986340864146376,0.43730171571866505,B,1325,Correct
2,new_learn,46,113,A,43.35207393668537,56.39364568509582,2.1676036968342687,0.8858293149672137,B,1420,Incorrect
2,new_learn,46,114,A,15.092031574456406,32.541175542489384,0.7546015787228203,0.5111555901173025,A,679,Correct
2,new_learn,46,115,B,74.40645238221136,60.54738459133441,3.7203226191105676,0.9510760931310601,B,1339,Correct
2,new_learn,46,116,B,32.69917461131718,11.826814188122427,1.634958730565859,0.18577516284388473,A,1652,Incorrect
2,new_learn,46,117,B,86.6729618910225,66.36789371925252,4.333648094551125,1.0425044367131595,B,1526,Correct
2,new_learn,46,118,A,54.405838409563174,70.34068560613491,2.7202919204781586,1.1049089057435137,B,1542,Incorrect
2,new_learn,46,119,B,43.53681149420362,21.698245138098617,2.176840574710181,0.34083523760820533,A,1296,Incorrect
2,new_learn,46,120,B,76.36205599657643,46.37261466286625,3.8181027998288215,0.7284193277630546,B,745,Correct
2,new_learn,46,121,B,79.18030117465246,61.367836932717296,3.959015058732623,0.9639637283726052,B,932,Correct
2,new_learn,46,122,B,81.84604403337802,51.18074431718689,4.092302201668901,0.8039452517606595,B,590,Correct
2,new_learn,46,123,A,24.557797250540936,37.552863054408135,1.227889862527047,0.5898789934649608,A,922,Correct
2,new_learn,46,124,B,78.12563189726009,51.64215325977207,3.9062815948630045,0.8111930464822906,B,1183,Correct
2,new_learn,46,125,A,31.675688771869158,59.11531681263799,1.5837844385934579,0.9285812250660836,B,2356,Incorrect
2,new_learn,46,126,A,35.146312625688545,42.952032703024216,1.7573156312844274,0.6746889519828471,A,1029,Correct
2,new_learn,46,127,B,77.4888168936232,62.38393406116052,3.87444084468116,0.9799245447428597,B,851,Correct
2,new_learn,46,128,A,56.014992428657834,73.40853004718157,2.8007496214328915,1.153098493535256,B,958,Incorrect
2,new_learn,46,129,B,46.47297540304986,28.29090438295296,2.3236487701524933,0.44439248686448146,A,941,Incorrect
2,new_learn,46,130,B,71.6871013974773,44.54948546589101,3.5843550698738653,0.6997816813042422,B,572,Correct
2,new_learn,46,131,B,48.68549217097707,36.13487980885741,2.4342746085488534,0.5676053647292829,B,1661,Correct
2,new_learn,46,132,B,60.09439812393059,44.39950626524584,3.0047199061965295,0.6974258135295516,B,934,Correct
2,new_learn,46,133,B,56.429491281940834,46.093350679863725,2.8214745640970413,0.7240326593759898,B,809,Correct
2,new_learn,46,134,A,59.065175358991,85.17955842572675,2.9532587679495497,1.3379973749314287,A,856,Correct
2,new_learn,46,135,A,53.26258206818109,72.56880547950799,2.6631291034090543,1.139908130871045,B,926,Incorrect
2,new_learn,46,136,A,27.323970763508918,41.176074276808954,1.366198538175446,0.6467922622584533,B,777,Incorrect
2,new_learn,46,137,A,22.62301268981108,40.60886902895807,1.131150634490554,0.6378826230598237,A,693,Correct
2,new_learn,46,138,A,61.78753418322896,70.70033745554575,3.0893767091614484,1.110558303783309,A,1416,Correct
2,new_learn,46,139,A,49.25213268380527,77.91820235001978,2.4626066341902635,1.2239362604187256,B,850,Incorrect
2,new_learn,46,140,B,75.67862597022288,59.19981789197148,3.7839312985111437,0.929908564916356,B,873,Correct
2,new_learn,46,141,B,36.437470384809465,26.734964056472293,1.8218735192404734,0.41995183336900266,A,1122,Incorrect
2,new_learn,46,142,B,87.21612977909336,69.22959987087037,4.360806488954668,1.0874560118264363,B,740,Correct
2,new_learn,46,143,A,26.055643589290085,46.03725490414352,1.302782179464504,0.7231515089914899,A,1694,Correct
2,new_learn,46,144,A,18.392246402023314,33.970218105884825,0.9196123201011658,0.5336029382114537,B,3282,Incorrect
2,new_learn,46,145,A,57.44170641372271,67.51488073007012,2.8720853206861356,1.060521266547897,B,684,Incorrect
2,new_learn,46,146,A,32.82720926418619,54.405554583363916,1.6413604632093095,0.8546004529678729,A,1199,Correct
2,new_learn,46,147,B,42.857741723229,14.90458642800207,2.14288708616145,0.23412069613502723,A,1990,Incorrect
2,new_learn,46,148,B,59.186656107209195,51.58551559713244,2.9593328053604595,0.810303384157965,B,827,Correct
2,new_learn,46,149,B,60.8380889592438,51.9134240936139,3.0419044479621897,0.815454158775944,B,1064,Correct
2,new_learn,46,150,A,63.02403450729341,73.79110954344655,3.1512017253646705,1.1591080382096568,B,712,Incorrect
2,new_learn,46,151,B,35.80772326373567,12.109824671879931,1.7903861631867835,0.19022068112719207,A,901,Incorrect
2,new_learn,46,152,B,55.073014768156476,32.54367763731371,2.7536507384078237,0.511194892930896,B,909,Correct
2,new_learn,46,153,A,44.40490169845735,61.52151057082784,2.2202450849228677,0.9663776282352978,A,1383,Correct
2,new_learn,46,154,A,56.49185685875048,77.11085798057152,2.8245928429375238,1.2112545247188466,B,2038,Incorrect
2,new_learn,46,155,A,17.331475533287993,43.11095134129628,0.8665737766643997,0.6771852401154171,A,716,Correct
2,new_learn,46,156,B,62.2094644910287,42.16611475496635,3.110473224551435,0.6623437817231324,B,484,Correct
2,new_learn,46,157,A,43.278376504893814,54.603578278838214,2.1639188252446906,0.8577110019025668,A,728,Correct
2,new_learn,46,158,A,19.428823309580643,49.19098242353995,0.9714411654790323,0.7726901450232887,A,487,Correct
2,new_learn,46,159,B,53.55767378816544,25.55180184865293,2.677883689408272,0.40136676486855066,B,538,Correct
2,new_learn,46,160,B,68.95093511057225,46.20293549296419,3.447546755528612,0.725754013594897,B,595,Correct
2,new_learn,46,161,B,43.32586626378456,30.342765493752317,2.1662933131892284,0.47662304582385073,B,514,Correct
2,new_learn,46,162,B,63.56105456460641,35.7569651014459,3.1780527282303206,0.5616690943868452,107,399,Incorrect
2,new_learn,46,163,B,36.72100666381844,18.358968386781942,1.8360503331909224,0.288382001057007,A,756,Incorrect
2,new_learn,46,164,B,57.73733616621711,40.30216292977873,2.8868668083108555,0.6330648949198587,B,628,Correct
2,new_learn,46,165,A,30.630828982266117,48.65044884777699,1.5315414491133057,0.7641994634701109,B,712,Incorrect
2,new_learn,46,166,B,80.72924590908801,63.78655295669199,4.036462295454401,1.0019568308327993,B,802,Correct
2,new_learn,46,167,B,31.404837159402327,16.831295931939927,1.5702418579701163,0.26438537825089126,A,693,Incorrect
2,new_learn,46,168,A,35.72906809547605,66.29949563720089,1.7864534047738028,1.0414300421526943,A,647,Correct
2,new_learn,46,169,A,58.146014649208894,78.01231328448995,2.9073007324604445,1.2254145515204953,B,537,Incorrect
2,new_learn,46,170,B,82.6292094269797,67.73048222486224,4.131460471348984,1.0639079269086065,B,390,Correct
2,new_learn,46,171,B,81.86463316012998,66.55616596592631,4.093231658006499,1.0454618102482853,B,714,Correct
2,new_learn,46,172,B,56.0400333970728,43.30642550557137,2.80200166985364,0.6802557411076833,B,571,Correct
2,new_learn,46,173,A,44.66909316489224,63.18926084101217,2.233454658244612,0.992574588219465,A,900,Correct
2,new_learn,46,174,A,26.41124516906721,59.31064819868068,1.3205622584533605,0.9316494833031196,A,1469,Correct
2,new_learn,46,175,A,37.42189762474541,58.46131128041371,1.8710948812372705,0.9183081301888691,A,709,Correct
2,new_learn,46,176,B,72.1905713889507,45.142591026477604,3.6095285694475354,0.7090981616639528,B,850,Correct
2,new_learn,46,177,B,67.37057901733061,38.60741270456912,3.368528950866531,0.606443820633918,B,1046,Correct
2,new_learn,46,178,A,63.55734523099588,83.5219454782535,3.1778672615497943,1.3119596516400422,A,1009,Correct
2,new_learn,46,179,A,46.02430371758077,63.34410742529282,2.301215185879039,0.9950069126775128,100,1580,Incorrect
2,new_learn,46,180,A,41.48244374331644,69.9063628374534,2.0741221871658215,1.0980865796466308,A,614,Correct
2,new_learn,46,181,A,36.559163090616615,61.494830956998236,1.8279581545308305,0.9659585458412593,A,456,Correct
2,new_learn,46,182,A,37.572391274915766,52.65275070514671,1.8786195637457883,0.8270674740329186,100,467,Incorrect
2,new_learn,46,183,B,65.07901235846106,34.78339314151856,3.253950617923053,0.5463762618016015,A,883,Incorrect
2,new_learn,46,184,A,65.99080676950518,79.53403333613142,3.2995403384752593,1.2493176741957808,B,528,Incorrect
2,new_learn,46,185,A,23.357928473463097,40.51075982720862,1.1678964236731548,0.6363415273224956,A,589,Correct
2,new_learn,46,186,B,64.06284049244343,31.952934643581912,3.2031420246221716,0.5019155236845586,B,692,Correct
2,new_learn,46,187,B,40.93731226409012,24.37127645971433,2.0468656132045058,0.3828231154222221,A,836,Incorrect
2,new_learn,46,188,B,49.678119793895426,23.27493742883287,2.4839059896947715,0.3656018621959172,B,708,Correct
2,new_learn,46,189,B,82.94217200501467,61.43385844675856,4.147108600250733,0.9650007918900598,B,800,Correct
2,new_learn,46,190,A,51.66430723989857,71.64585484450133,2.5832153619949287,1.12541045619823,A,887,Correct
2,new_learn,46,191,A,21.131776428193746,52.08069281821571,1.0565888214096872,0.8180816097578658,A,931,Correct
2,new_learn,46,192,A,41.833896895330575,51.468211587980576,2.0916948447665287,0.8084607770910242,B,878,Incorrect
2,new_learn,46,193,A,59.621910362893495,78.22930037196969,2.9810955181446745,1.228822976720246,A,680,Correct
2,new_learn,46,194,A,22.636353367089953,39.19735159307894,1.1318176683544976,0.615710559024965,A,918,Correct
2,new_learn,46,195,A,12.062517115431014,38.952791472809075,0.6031258557715506,0.6118690176389606,A,909,Correct
2,new_learn,46,196,A,39.92441154727046,53.60976933666227,1.996220577363523,0.8421002875435075,A,881,Correct
2,new_learn,46,197,A,63.59963958963689,74.22526162203543,3.1799819794818442,1.1659276831128347,100,1338,Incorrect
2,new_learn,46,198,B,51.42514932465472,28.559757703268716,2.5712574662327357,0.4486156249444675,B,737,Correct
2,new_learn,46,199,B,33.94571132406946,20.37316608345106,1.697285566203473,0.3200209444906729,A,1654,Incorrect
2,new_learn,46,200,A,46.27506048241883,59.46781417720533,2.3137530241209414,0.9341182407207561,B,1374,Incorrect
2,new_learn,46,201,B,64.20152725345343,31.122861564546078,3.210076362672672,0.4888767662493505,B,542,Correct
2,new_learn,46,202,A,54.37976472962487,84.07588868258712,2.7189882364812434,1.3206609711462447,A,1159,Correct
2,new_learn,46,203,A,45.18861223222969,73.64361759061805,2.259430611611484,1.1567912400323086,B,1370,Incorrect
2,new_learn,46,204,A,32.144459242882995,41.66662473478608,1.6072229621441496,0.6544978108334335,A,1116,Correct
2,new_learn,46,205,A,33.84872959088104,64.54253903745813,1.6924364795440523,1.0138318324205546,B,1296,Incorrect
2,new_learn,46,206,A,27.380609176329216,41.32403774850751,1.3690304588164608,0.6491164670368924,A,787,Correct
2,new_learn,46,207,A,14.641562552659458,39.03555370701288,0.7320781276329729,0.6131690437738074,B,1637,Incorrect
2,new_learn,46,208,B,83.15120167239634,55.30728948412457,4.157560083619817,0.8687648716664487,B,984,Correct
2,new_learn,46,209,B,32.847056555614174,13.903774425774237,1.642352827780709,0.21839997796590996,A,927,Incorrect
2,new_learn,46,210,A,66.30203444616072,84.24672879835194,3.3151017223080363,1.3233445214093704,B,1270,Incorrect
2,new_learn,46,211,B,68.00746217063393,53.34868240421853,3.400373108531696,0.8379991435989401,B,673,Correct
2,new_learn,46,212,B,46.978421070983096,37.87696330478752,2.3489210535491547,0.5949699482930533,A,684,Incorrect
2,new_learn,46,213,B,84.4109822638512,59.80151929442927,4.22054911319256,0.9393600684444364,B,603,Correct
2,new_learn,46,214,B,75.65397102048213,51.01083955781345,3.7826985510241062,0.8012763940413716,B,522,Correct
2,new_learn,46,215,B,40.574368593296995,16.669893832518238,2.0287184296648495,0.2618500800018055,A,844,Incorrect
2,new_learn,46,216,B,69.6189453394927,57.46827849201645,3.480947266974635,0.9027096076248561,B,805,Correct
2,new_learn,46,217,A,57.01110226229759,67.19920116974862,2.8505551131148796,1.0555625836099245,A,1298,Correct
2,new_learn,46,218,A,63.808613696590264,83.03751313777632,3.190430684829513,1.30435020623002,A,2281,Correct
2,new_learn,46,219,A,34.521948997232386,56.364401159010136,1.7260974498616193,0.8853699430256714,B,808,Incorrect
2,new_learn,46,220,B,63.15846799456309,30.135726746602813,3.1579233997281544,0.4733708887885842,B,804,Correct
2,new_learn,46,221,A,32.10398778959908,45.346515989111936,1.6051993894799539,0.7123014074864309,A,711,Correct
2,new_learn,46,222,B,67.67981042733983,37.06555183960715,3.383990521366991,0.5822243268028073,B,670,Correct
2,new_learn,46,223,A,11.525864347556706,36.69988175549777,0.5762932173778352,0.5764803945534295,A,1255,Correct
2,new_learn,46,224,B,69.08447975729645,42.86919514468004,3.454223987864822,0.6733877426591702,B,701,Correct
2,new_learn,46,225,B,68.11807852219103,53.53105447979683,3.405903926109551,0.8408638374632235,B,745,Correct
2,new_learn,46,226,B,64.15669237619205,37.74929921366238,3.2078346188096027,0.5929646054390235,B,1082,Correct
2,new_learn,46,227,A,62.872040609662015,87.66064018141128,3.143602030483101,1.3769701160144996,A,693,Correct
2,new_learn,46,228,B,61.681479022077866,44.1090191496242,3.084073951103893,0.6928628525875544,B,722,Correct
2,new_learn,46,229,A,44.66604095818996,54.512543828879615,2.2333020479094983,0.856281036106499,A,649,Correct
2,new_learn,46,230,A,58.68250481769624,85.08968620324676,2.934125240884812,1.336585665361904,A,1322,Correct
2,new_learn,46,231,B,81.90587254341322,60.212904370024575,4.095293627170661,0.9458220901008698,B,714,Correct
2,new_learn,46,232,A,57.18511148384871,71.86827519167349,2.8592555741924355,1.128904226841655,A,1798,Correct
2,new_learn,46,233,B,87.88615220946573,62.49766891826836,4.394307610473287,0.9817110877005951,B,668,Correct
2,new_learn,46,234,A,52.092521360482934,62.18081895712994,2.6046260680241464,0.9767340201495818,A,697,Correct
2,new_learn,46,235,B,72.42388438392999,53.1345570013126,3.621194219196499,0.834635669635359,B,792,Correct
2,new_learn,46,236,B,62.09134202916686,48.91228997638869,3.104567101458343,0.768312454300382,B,1144,Correct
2,new_learn,46,237,A,53.63859818626162,73.21679474481803,2.681929909313081,1.1500867224485607,B,877,Incorrect
2,new_learn,46,238,B,66.00752077226647,36.941303564261275,3.300376038613324,0.5802726394575682,B,983,Correct
2,new_learn,46,239,B,62.39096538264344,40.65556077894133,3.1195482691321716,0.6386160553534771,B,1487,Correct
2,new_learn,46,240,B,34.40401022976222,12.537959941608765,1.720200511488111,0.19694581421780602,A,2275,Incorrect
2,new_learn,46,241,A,57.12168020299922,79.01846229093587,2.856084010149961,1.2412191031558313,B,814,Incorrect
2,new_learn,46,242,A,41.40390102143319,56.686511692088956,2.07019505107166,0.890429643447493,B,676,Incorrect
2,new_learn,46,243,A,63.976311895463084,75.01219397114849,3.198815594773154,1.1782887875470633,B,538,Incorrect
2,new_learn,46,244,A,38.316533710435884,68.7392916006875,1.9158266855217942,1.0797542675284322,A,1113,Correct
2,new_learn,46,245,A,58.1164557193339,78.70161433298988,2.905822785966695,1.236242067070891,B,2093,Incorrect
2,new_learn,46,246,A,40.303883407959525,68.33665010821218,2.0151941703979763,1.0734295897544777,B,1452,Incorrect
2,new_learn,46,247,B,36.05554664812344,19.737357397851174,1.8027773324061718,0.310033685011827,A,864,Incorrect
2,new_learn,46,248,A,32.61903462252921,51.64772180304387,1.6309517311264607,0.8112805169554602,A,696,Correct
2,new_learn,46,249,B,66.42060810822001,40.60035195178927,3.3210304054110003,0.637748837124506,B,612,Correct
2,new_learn,46,250,A,57.89166998146696,77.09045284022656,2.8945834990733483,1.2109340015238308,A,1101,Correct
2,new_learn,46,251,A,56.4679218188694,73.52535991745549,2.82339609094347,1.154933652846118,A,734,Correct
2,new_learn,46,252,A,14.850084155958882,32.754577911062256,0.7425042077979441,0.5145077066841385,A,3042,Correct
2,new_learn,46,253,B,68.29824748327417,57.19630928031873,3.414912374163708,0.8984375252374951,B,733,Correct
2,new_learn,46,254,A,29.58995977625255,58.63197045128207,1.4794979888126276,0.920988838176208,A,1108,Correct
2,new_learn,46,255,B,80.58403867061938,49.0298732956641,4.0292019335309694,0.7701594487604835,B,1891,Correct
2,new_learn,46,256,A,49.88209986489801,79.7555640487356,2.4941049932449006,1.25279747049209,A,789,Correct
2,new_learn,46,257,B,67.12731427685931,41.629684777103115,3.3563657138429654,0.6539175593350299,B,727,Correct
2,new_learn,46,258,A,65.88482217103757,84.38397749833183,3.2942411085518786,1.3255004189472284,A,831,Correct
2,new_learn,46,259,B,65.87696374546691,52.93685820623607,3.293848187273346,0.831530224224179,B,839,Correct
2,new_learn,46,260,B,54.882950342121426,35.15656406633055,2.744147517106071,0.5522380169812148,B,2919,Correct
2,new_learn,46,261,A,13.990335044547479,39.69957346655662,0.699516752227374,0.6235994417659129,A,905,Correct
2,new_learn,46,262,B,60.93786071841341,32.58793166669709,3.0468930359206707,0.5118900335989088,B,2379,Correct
2,new_learn,46,263,B,85.67826609267985,57.64040059952967,4.283913304633993,0.9054132953672756,B,3707,Correct
2,new_learn,46,264,B,61.010146665274796,27.85218590605169,3.05050733326374,0.43750111314434587,B,641,Correct
2,new_learn,46,265,A,17.12596703974277,35.83352616016929,0.8562983519871383,0.5628717126850276,A,641,Correct
2,new_learn,46,266,A,30.03961870617178,59.634579358004345,1.501980935308589,0.9367377820551199,A,804,Correct
2,new_learn,46,267,B,76.74103189779484,54.12555723276633,3.837051594889742,0.8502022648695629,B,794,Correct
2,new_learn,46,268,A,55.38136080310033,82.44125656968451,2.769068040155016,1.2949842299601606,B,1443,Incorrect
2,new_learn,46,269,B,74.8444387768918,64.2297990501424,3.7422219388445903,1.0089193241873802,B,671,Correct
2,new_learn,46,270,B,34.34292627437703,21.079452260073708,1.7171463137188514,0.3311152618097216,A,1393,Incorrect
2,new_learn,46,271,B,77.18777954266915,47.35731604322338,3.8593889771334573,0.743886980875603,B,731,Correct
2,new_learn,46,272,A,39.406347766054694,51.8672857281111,1.9703173883027347,0.8147294190253828,B,1170,Incorrect
2,new_learn,46,273,A,38.99553331513551,51.9262478023756,1.9497766657567754,0.8156555931221315,A,2203,Correct
2,new_learn,46,274,A,23.265524851108857,48.009545913994565,1.163276242555443,0.754132183727936,A,616,Correct
2,new_learn,46,275,A,16.871363817020445,43.06287064385248,0.8435681908510222,0.6764299902860724,A,2260,Correct
2,new_learn,46,276,B,52.83549015080222,26.571666869132194,2.641774507540111,0.417386767148505,B,2655,Correct
2,new_learn,46,277,B,59.292814265795876,34.22133835744402,2.964640713289794,0.5375475258987836,B,3492,Correct
2,new_learn,46,278,B,59.31813253803744,38.70123736871322,2.9659066269018717,0.6079176150119212,B,1158,Correct
2,new_learn,46,279,A,39.31018106768744,56.33310128523449,1.965509053384372,0.8848782857581121,B,1039,Incorrect
2,new_learn,46,280,B,55.34526388212506,30.309464511162318,2.767263194106253,0.4760999552125404,A,936,Incorrect
2,new_learn,46,281,B,64.47313757435242,33.213379815723385,3.2236568787176214,0.5217145501498205,B,6088,Correct
2,new_learn,46,282,A,20.229972433709676,36.28671297272195,1.0114986216854838,0.5699903544901236,A,653,Correct
2,new_learn,46,283,A,20.31884743141999,36.834389209201746,1.0159423715709994,0.5785932326954768,A,646,Correct
2,new_learn,46,284,B,51.771389181467775,25.361459854485418,2.5885694590733888,0.39837687981581926,B,1698,Correct
2,new_learn,46,285,B,57.58163766895127,46.101739377445085,2.8790818834475633,0.7241644287294638,B,4673,Correct
2,new_learn,46,286,A,15.136948794848987,34.35561990559371,0.7568474397424494,0.5396568155246824,A,744,Correct
2,new_learn,46,287,A,64.50046707286114,87.84258389656532,3.2250233536430573,1.3798280812089734,B,1826,Incorrect
2,new_learn,46,288,A,39.051417776186256,60.527627040522376,1.952570888809313,0.95076574224864,B,482,Incorrect
2,new_learn,46,289,A,50.97668348631072,67.41972765609181,2.548834174315536,1.0590266055570132,B,842,Incorrect
2,new_learn,46,290,A,27.41097503887716,38.20829234893489,1.370548751943858,0.6001744527481248,A,1021,Correct
2,new_learn,46,291,A,63.24494170132197,72.96326401478244,3.1622470850660984,1.1461042710538651,A,5237,Correct
2,new_learn,46,292,B,48.16480223901342,24.558985580545993,2.408240111950671,0.38577164339730474,B,1910,Correct
2,new_learn,46,293,A,17.434947341262944,32.51627113276126,0.8717473670631471,0.5107643925640832,A,2676,Correct
2,new_learn,46,294,B,54.199470699740594,33.95702932939665,2.70997353498703,0.5333957693948282,B,1900,Correct
2,new_learn,46,295,B,80.68225602492424,67.4194658610615,4.034112801246212,1.0590224932902934,B,726,Correct
2,new_learn,46,296,B,81.32267419763568,55.38433854135279,4.066133709881784,0.8699751554272197,B,628,Correct
2,new_learn,46,297,A,36.168467192121675,61.14838436521375,1.808423359606084,0.9605165755032025,A,802,Correct
2,new_learn,46,298,A,48.07670111413016,56.49543135672082,2.4038350557065082,0.8874281605583028,B,680,Incorrect
2,new_learn,46,299,A,57.76555498602713,83.67983344959299,2.8882777493013565,1.314439750094294,A,709,Correct
2,new_learn,46,300,B,64.52948642754113,44.144660490696396,3.2264743213770566,0.6934227054639369,B,711,Incorrect
2,new_learn,46,301,B,74.93211741432629,59.394613370726745,3.7466058707163143,0.9329684051414061,B,11154,Correct
2,new_learn,46,302,A,34.581212447324695,52.76755035725838,1.7290606223662348,0.828870742751462,B,1263,Incorrect
2,new_learn,46,303,B,51.5164784221136,30.443155582436724,2.57582392110568,0.4781999696493715,B,667,Incorrect
2,new_learn,46,304,A,41.56930355636721,54.04107626773454,2.0784651778183605,0.8488752409740027,A,607,Correct
2,new_learn,46,305,A,52.45673258092531,74.38075353730756,2.6228366290462657,1.168370144406392,B,728,Correct
2,new_learn,46,306,A,69.04894620566995,88.50360777918452,3.4524473102834974,1.3902114200763929,B,773,Correct
2,new_learn,46,307,B,38.641186798142414,19.94930793371201,1.9320593399071209,0.31336299624375114,A,876,Incorrect
2,new_learn,46,308,A,58.043693669736236,85.84894819299983,2.902184683486812,1.3485121248076948,B,592,Incorrect
2,new_learn,46,309,B,64.79390189781536,56.387208866569075,3.2396950948907683,0.8857282056582333,B,511,Incorrect
2,new_learn,46,310,B,33.601692344046185,19.36909822750782,1.6800846172023092,0.3042490834909883,A,1333,Correct
2,new_learn,46,311,B,57.43946135940759,28.396264921511147,2.871973067970379,0.4460474863340448,B,673,Correct
2,new_learn,46,312,A,59.91951065826193,82.4655734428718,2.9959755329130964,1.295366198510978,A,973,Correct
2,new_learn,46,313,B,49.622380385506986,21.405934873406704,2.481119019275349,0.33624363870758034,B,691,Incorrect
2,new_learn,46,314,B,66.14517220278574,34.18743216402539,3.307258610139287,0.5370149286580078,B,709,Correct
2,new_learn,46,315,A,64.44078430951527,77.48390831189408,3.222039215475763,1.2171143856203577,A,633,Incorrect
2,new_learn,46,316,A,54.16262708524636,70.64841858373121,2.7081313542623184,1.1097427640519328,A,1072,Correct
2,new_learn,46,317,B,58.48523962860537,51.23716379264063,2.9242619814302686,0.8048314868086837,B,908,Incorrect
2,new_learn,46,318,B,74.26818380706936,53.072501437891304,3.713409190353468,0.8336609031245652,A,1096,Incorrect
2,new_learn,46,319,A,23.40091778081955,40.7929427625554,1.1700458890409775,0.6407740465057649,A,4042,Incorrect
2,new_learn,46,320,A,52.252971924844005,65.43453209295969,2.6126485962422006,1.0278432265716384,B,1207,Incorrect
2,new_learn,46,321,B,63.86641731247064,40.63949246883865,3.193320865623532,0.6383636549286061,B,962,Correct
2,new_learn,46,322,A,30.62994335865477,56.30769875201396,1.5314971679327385,0.884479263699371,A,1933,Correct
2,new_learn,46,323,B,55.35771369021465,42.63172222266288,2.7678856845107327,0.6696575267229921,B,2189,Correct
2,new_learn,46,324,A,54.85848771942109,84.65670779400945,2.7429243859710546,1.329784456413789,A,939,Correct
2,new_learn,46,325,A,41.601132653497096,49.900463698159456,2.080056632674855,0.7838346508243096,A,1839,Correct
2,new_learn,46,326,A,24.433574669039224,53.07025230304705,1.2216787334519612,0.833625573797047,A,1198,Correct
2,new_learn,46,327,A,66.65969447938193,86.54468100803057,3.3329847239690964,1.3594406703105046,A,1027,Correct
2,new_learn,46,328,A,41.18498774751195,48.2840080186238,2.0592493873755973,0.7584434243858961,A,1692,Correct
2,new_learn,46,329,A,38.06470195579481,67.73782968985995,1.9032350977897405,1.064023340618903,A,539,Incorrect
2,new_learn,46,330,B,57.788814281834576,32.96643796102946,2.8894407140917284,0.5178355965669692,A,1230,Correct
2,new_learn,46,331,B,42.31704186271932,28.680209686176568,2.115852093135966,0.4505076802675357,A,954,Incorrect
2,new_learn,46,332,A,35.189129560708885,63.03822935780923,1.7594564780354442,0.9902021912290095,B,966,Incorrect
2,new_learn,46,333,B,71.23371170341873,46.32875248198294,3.561685585170937,0.7277303422368874,A,959,Correct
2,new_learn,46,334,B,31.874968409283184,15.429102186716626,1.5937484204641592,0.24235977040637582,B,1103,Incorrect
2,new_learn,46,335,B,81.218190935382,63.854878421535666,4.0609095467691,1.0030300847248292,A,2516,Incorrect
2,new_learn,46,336,A,37.82628091364913,69.73793254805466,1.8913140456824564,1.0954408828475453,A,912,Incorrect
2,new_learn,46,337,B,76.20377138176644,56.721060928233065,3.8101885690883224,0.8909723415797802,B,851,Incorrect
2,new_learn,46,338,A,25.36228060301628,55.15561320703107,1.268114030150814,0.8663823462772448,A,923,Correct
2,new_learn,46,339,A,59.76245273680962,87.19215288832017,2.988122636840481,1.3696111348231235,A,1152,Correct
2,new_learn,46,340,B,84.77736333474515,55.6200143734616,4.238868166737257,0.8736771427411283,B,661,Correct
2,new_learn,46,341,A,60.57655291239869,86.4745324035024,3.0288276456199346,1.3583387786072783,A,1017,Correct
2,new_learn,46,342,A,38.911382494637614,68.11385556852093,1.9455691247318807,1.0699299413087078,B,1008,Incorrect
2,new_learn,46,343,B,45.93441211687392,17.28546988616697,2.296720605843696,0.2715195260411488,B,1592,Correct
2,new_learn,46,344,B,37.749204234315556,13.206847660454937,1.8874602117157777,0.20745267793582386,A,808,Incorrect
2,new_learn,46,345,B,74.79512317540141,48.96706790364361,3.7397561587700703,0.7691729039695965,B,640,Correct
2,new_learn,46,346,A,26.490035234717705,48.260704460255745,1.3245017617358852,0.758077372947038,A,921,Correct
2,new_learn,46,347,A,63.18367078495028,74.65384765142414,3.159183539247514,1.1726598967196287,B,698,Correct
2,new_learn,46,348,A,41.5158207231739,66.38168914105773,2.0757910361586953,1.0427211346921414,A,581,Incorrect
2,new_learn,46,349,B,59.33139541491112,50.24514892836611,2.966569770745556,0.7892489537594003,B,544,Incorrect
2,new_learn,46,350,B,87.13580588629921,68.62770865397944,4.35679029431496,1.0780015267002123,B,661,Correct
2,new_learn,46,351,A,15.519367850964414,41.51049033795951,0.7759683925482207,0.6520452574632185,A,567,Correct
2,new_learn,46,352,A,30.517697375196,55.167397791071096,1.5258848687598001,0.8665674580904739,B,1689,Correct
2,new_learn,46,353,B,45.78835594007898,36.932918506108706,2.289417797003949,0.5801409272721082,B,1153,Incorrect
2,new_learn,46,354,B,38.049094657898,17.55588403231654,1.9024547328949,0.275767181516,A,2154,Incorrect
2,new_learn,46,355,A,35.377354010687526,67.3811186848918,1.7688677005343763,1.0584201372555901,B,819,Correct
2,new_learn,46,356,B,35.58130388510905,12.441749128313077,1.7790651942554525,0.1954345382965779,B,945,Incorrect
2,new_learn,46,357,B,85.98118645490356,69.23846945961424,4.299059322745178,1.0875953350006267,B,1789,Incorrect
2,new_learn,46,358,B,38.05873080458821,27.979280281535566,1.9029365402294105,0.4394975069260095,A,614,Incorrect
2,new_learn,46,359,A,69.0382328241695,87.36762093481067,3.4519116412084747,1.372367380452095,B,672,Incorrect
2,new_learn,46,360,B,66.41375446926435,34.18671274691267,3.3206877234632173,0.5370036280804269,A,729,Correct
2,new_learn,46,361,A,28.897248458211365,52.333769045678615,1.4448624229105684,0.8220569218428442,B,2736,Incorrect
2,new_learn,46,362,B,57.30662732600739,38.56664781749003,2.8653313663003694,0.6058034872850575,B,926,Correct
2,new_learn,46,363,A,24.09275498292805,35.95854268841879,1.2046377491464026,0.5648354677186571,A,1294,Correct
2,new_learn,46,364,B,64.2738272865849,41.12095877872887,3.213691364329245,0.6459265100391166,B,1684,Correct
2,new_learn,46,365,B,48.29731914849678,29.804911380320426,2.4148659574248392,0.4681744531665473,B,721,Incorrect
2,new_learn,46,366,B,81.56680689959228,56.61056102271694,4.078340344979614,0.889236613122821,B,6601,Incorrect
2,new_learn,46,367,B,68.26636211622856,57.41686999748723,3.413318105811428,0.9019020848811306,A,720,Incorrect
2,new_learn,46,368,B,56.00302731209787,46.76957008557606,2.8001513656048935,0.7346546889619936,B,4332,Correct
2,new_learn,46,369,A,58.72128941099453,79.63229521180317,2.9360644705497263,1.2508611681294723,A,1334,Correct
2,new_learn,46,370,A,35.087091132473596,54.64206342691945,1.7543545566236798,0.8583155251949883,A,1836,Correct
2,new_learn,46,371,A,28.7622648949013,49.71208122097289,1.438113244745065,0.7808755457923376,B,725,Incorrect
2,new_learn,46,372,B,40.51224328801783,20.836991886113626,2.0256121644008913,0.32730670316162347,A,668,Incorrect
2,new_learn,46,373,B,53.326784356610716,26.661921446869417,2.6663392178305356,0.4188044827403656,B,610,Correct
2,new_learn,46,374,B,47.77339644153896,30.519122473903227,2.3886698220769476,0.4793932547901077,B,543,Correct
2,new_learn,46,375,B,34.01949299279724,14.884717764516616,1.700974649639862,0.23380859989881447,A,1062,Incorrect
2,new_learn,46,376,A,35.45680578282289,52.49910180072136,1.7728402891411446,0.8246539626860445,B,983,Correct
2,new_learn,46,377,B,41.88938843613131,28.3125335091245,2.0944694218065654,0.44473223638390186,B,7124,Incorrect
2,new_learn,46,378,B,82.69301172696052,54.46616153372586,4.134650586348027,0.8555524647179406,B,564,Incorrect
2,new_learn,46,379,A,17.36884524286328,31.950433945783033,0.8684422621431639,0.5018762428153896,A,893,Incorrect
2,new_learn,46,380,B,51.393615247803105,32.491758016279285,2.5696807623901554,0.5103793414308013,A,1895,Correct
2,new_learn,46,381,B,38.96921275342426,23.337026908118773,1.9484606376712128,0.3665771614558662,A,889,Incorrect
2,new_learn,46,382,B,55.00133008113018,32.14634497333942,2.750066504056509,0.5049536060400314,B,2028,Correct
2,new_learn,46,383,B,77.79281137437562,50.10877618531997,3.889640568718781,0.7871068157208818,B,2126,Incorrect
2,new_learn,46,384,B,55.87043629246858,37.05100341094159,2.7935218146234293,0.5819958006197223,B,1519,Incorrect
2,new_learn,46,385,A,45.208844736935276,54.72341529989383,2.260442236846764,0.8595933974274488,A,1137,Correct
2,new_learn,46,386,B,71.531524501394,42.21292567185363,3.5765762250697004,0.6630790858861367,B,751,Correct
2,new_learn,46,387,A,22.58064608812971,51.096553954877166,1.1290323044064856,0.8026227926419829,A,681,Incorrect
2,new_learn,46,388,B,53.2393719092365,33.85499868047388,2.661968595461825,0.5317930757093443,B,1749,Correct
2,new_learn,46,389,B,77.486401764705,46.44863883861493,3.8743200882352493,0.7296135127231911,B,648,Incorrect
2,new_learn,46,390,A,35.58405592404248,68.84886397151973,1.779202796202124,1.0814754263046469,A,705,Correct
2,new_learn,46,391,B,80.25447255176636,66.88411677646704,4.012723627588318,1.0506132495339533,B,625,Incorrect
2,new_learn,46,392,B,83.5044942742582,63.999446510234044,4.17522471371291,1.005300954951821,B,587,Correct
2,new_learn,46,393,B,43.87083905083395,31.449616125489335,2.1935419525416977,0.49400941489028194,A,585,Incorrect
2,new_learn,46,394,B,36.23073019483067,22.476308748102223,1.8115365097415335,0.3530570322142697,B,715,Incorrect
2,new_learn,46,395,A,23.600125234755296,52.444525858210255,1.180006261737765,0.8237966857857664,A,881,Correct
2,new_learn,46,396,A,23.714892770071017,42.10648325727486,1.1857446385035508,0.6614070923477817,B,597,Incorrect
2,new_learn,46,397,A,34.439158278605426,43.95759341413621,1.7219579139302712,0.690484262696687,A,752,Correct
2,new_learn,46,398,B,52.38303656420195,28.138323872514135,2.6191518282100974,0.4419957578111035,B,470,Correct
2,new_learn,46,399,B,87.08772976558659,69.74275294403328,4.354386488279329,1.0955166014505144,A,4016,Incorrect
2,new_learn,46,400,B,86.01195846065512,69.73090863512436,4.300597923032757,1.0953305514812388,B,621,Incorrect
2,new_learn,46,401,A,61.11783079887701,80.96600383085735,3.05589153994385,1.2718110141277226,A,759,Correct
2,new_learn,46,402,B,54.1479763183137,41.803506158068394,2.707398815915685,0.6566479392024167,B,5231,Correct
2,new_learn,46,403,A,25.86626480386945,40.39792523779541,1.2933132401934726,0.6345691257366387,A,741,Correct
2,new_learn,46,404,B,58.85665727046491,47.01009852368815,2.942832863523245,0.7384329008327554,B,567,Correct
2,new_learn,46,405,A,31.573493784190735,48.29127145982525,1.578674689209537,0.7585575182534873,A,955,Correct
2,new_learn,46,406,A,29.687170831642245,43.68137391973133,1.4843585415821121,0.6861454170246836,B,734,Incorrect
2,new_learn,46,407,B,72.99573949151461,44.916998328534355,3.6497869745757305,0.7055545598511428,A,990,Incorrect
2,new_learn,46,408,A,50.48512082647025,67.40940740378524,2.5242560413235124,1.0588644954128656,B,946,Correct
2,new_learn,46,409,A,37.07642926662273,51.682582306746156,1.8538214633311367,0.8118281044671178,B,643,Incorrect
2,new_learn,46,410,A,21.52754351427082,44.73017752626247,1.076377175713541,0.7026199855513673,A,749,Incorrect
2,new_learn,46,411,B,38.711776757039345,15.074321068245961,1.9355888378519672,0.23678688162927675,B,6793,Incorrect
2,new_learn,46,412,B,37.04101241896758,18.71538026605602,1.852050620948379,0.2939805057649049,A,770,Incorrect
2,new_learn,46,413,B,40.346271338659236,23.85745807362938,2.0173135669329616,0.3747520750872028,B,1890,Correct
2,new_learn,46,414,B,76.19969152182482,62.06377330400505,3.809984576091241,0.9748954713296231,B,1467,Correct
2,new_learn,46,415,A,14.793861326130372,38.24659199835011,0.7396930663065185,0.6007760622343145,B,644,Incorrect
2,new_learn,46,416,A,23.78986697580012,42.5913078336405,1.1894933487900061,0.669022698984732,B,1120,Correct
2,new_learn,46,417,A,57.34058703194397,66.01492075183158,2.8670293515971985,1.0369599503063325,B,983,Incorrect
2,new_learn,46,418,B,65.94810841722818,33.425905420574125,3.297405420861409,0.5250528945443146,A,1107,Correct
2,new_learn,46,419,A,29.334006385096913,61.1789716593871,1.4667003192548458,0.9609970395965434,B,928,Incorrect
2,new_learn,46,420,B,76.24732380743338,50.85895338152627,3.8123661903716686,0.7988905715633434,A,1748,Incorrect
2,new_learn,46,421,B,62.64725581713387,49.42647766816871,3.1323627908566936,0.7763892956756939,B,3786,Correct
2,new_learn,46,422,A,49.57840676738019,68.96878485512988,2.4789203383690093,1.083359139139455,B,4192,Correct
2,new_learn,46,423,A,33.25153701577666,56.81223722060841,1.662576850788833,0.8924045354313199,A,1549,Correct
2,new_learn,46,424,A,60.99011663668425,73.26767249158569,3.0495058318342125,1.1508859082259428,B,701,Correct
2,new_learn,46,425,B,51.14984818247858,29.494502259182457,2.5574924091239293,0.46329855809367576,B,1016,Correct
2,new_learn,46,426,B,55.41234574579654,25.58245208550043,2.770617287289827,0.4018482176631052,B,1522,Correct
2,new_learn,46,427,B,70.55229926433867,39.933621421808894,3.5276149632169336,0.627275858449954,B,1589,Correct
2,new_learn,46,428,A,55.8217288269296,63.4847524943495,2.7910864413464798,0.9972161602560735,B,2719,Incorrect
2,new_learn,46,429,A,42.34974848749746,63.92287643621131,2.117487424374873,1.0040981950416477,B,671,Incorrect
2,new_learn,46,430,A,19.961548046506138,42.64902338732142,0.998077402325307,0.6699292927819412,A,740,Correct
2,new_learn,46,431,B,59.33427341878419,41.63925004556387,2.9667136709392095,0.6540678102206595,B,648,Correct
2,new_learn,46,432,B,53.13443941037301,31.450614296778507,2.6567219705186504,0.4940250941282273,B,1644,Incorrect
2,new_learn,46,433,A,44.54386661778413,74.37696546322344,2.227193330889207,1.1683106414778226,A,1116,Correct
2,new_learn,46,434,A,46.21877830909568,61.06354999013025,2.310938915454784,0.9591840002555312,B,1897,Correct
2,new_learn,46,435,B,65.14562154553337,34.82679344745371,3.2572810772766685,0.5470579922130486,B,1107,Incorrect
2,new_learn,46,436,A,38.35222899999524,51.872040728949194,1.917611449999762,0.8148041104038866,A,3314,Incorrect
2,new_learn,46,437,B,34.933432812309036,16.153303052163057,1.7466716406154519,0.2537354909994253,A,4173,Incorrect
2,new_learn,46,438,B,43.524703601390335,23.99567569243893,2.1762351800695168,0.3769231923664466,B,509,Correct
2,new_learn,46,439,B,48.56241693957071,23.653111507032047,2.4281208469785356,0.3715422067251604,B,507,Correct
2,new_learn,46,440,A,54.92405493139549,81.96407305711624,2.7462027465697747,1.2874886488726671,B,1855,Incorrect
2,new_learn,46,441,B,42.13093896484823,27.601950697446178,2.106546948242411,0.4335704276792229,A,554,Incorrect
2,new_learn,46,442,B,34.01559010038442,12.75182802289325,1.7007795050192211,0.20030524618280945,B,2234,Incorrect
2,new_learn,46,443,A,45.578723931191604,63.185076937529004,2.27893619655958,0.9925088676172349,B,3172,Incorrect
2,new_learn,46,444,A,14.631670144482456,38.64513228568257,0.7315835072241228,0.6070363184285305,A,5282,Correct
2,new_learn,46,445,A,66.14384340767565,81.14496107380596,3.3071921703837823,1.2746220679264926,B,4208,Incorrect
2,new_learn,46,446,A,24.19449999790495,55.60003331524162,1.2097249998952475,0.8733632810125542,A,735,Incorrect
2,new_learn,46,447,B,67.2264112203642,35.67371878357958,3.3613205610182098,0.5603614642836091,B,2518,Incorrect
2,new_learn,46,448,B,75.4289582690635,61.42319599666206,3.771447913453175,0.9648333065155976,B,1475,Correct
2,new_learn,46,449,A,42.83142139416598,65.87323733147791,2.141571069708299,1.0347343923437395,A,980,Correct
2,new_learn,46,450,B,55.76933181337449,29.563814684982567,2.7884665906687247,0.46438731513215636,B,831,Correct
2,new_learn,46,451,B,75.66630588039706,50.42628480891592,3.7833152940198533,0.7920942295175843,A,717,Incorrect
2,new_learn,46,452,B,48.25633089379508,25.791585305500227,2.412816544689754,0.4051332746009698,B,2920,Correct
2,new_learn,46,453,B,82.54656863695433,65.44495473897427,4.127328431847717,1.0280069451123903,B,599,Correct
2,new_learn,46,454,A,24.086832113812363,46.48908043630547,1.2043416056906182,0.7302487678542112,A,1044,Correct
2,new_learn,46,455,B,57.31617108947103,41.115908798079516,2.8658085544735514,0.6458471851285726,B,776,Incorrect
2,new_learn,46,456,B,45.134262530455175,34.746089924716784,2.256713126522759,0.5457903042423028,A,708,Incorrect
2,new_learn,46,457,A,59.666899899663115,78.62886326754136,2.9833449949831556,1.2350992960071214,A,819,Incorrect
2,new_learn,46,458,B,73.54536212514334,47.74594297501023,3.6772681062571673,0.7499915184450466,B,9819,Correct
2,new_learn,46,459,A,29.70411251477217,54.49502985748574,1.4852056257386084,0.8560059272871682,A,609,Correct
2,new_learn,46,460,A,45.669104819901584,53.20124550457296,2.283455240995079,0.8356832101949672,B,662,Correct
2,new_learn,46,461,A,35.159395075412476,62.02502992198643,1.7579697537706238,0.9742868917079984,A,892,Correct
2,new_learn,46,462,B,65.91929235362926,33.653850056719484,3.295964617681463,0.5286334405160119,B,7040,Correct
2,new_learn,46,463,B,50.63803963709203,38.411973184014975,2.531901981854601,0.603373863823948,B,3464,Correct
2,new_learn,46,464,B,52.590197187994406,45.819473517533375,2.6295098593997204,0.7197306069701747,A,9873,Correct
2,new_learn,46,465,B,86.26201718963657,60.177920411109675,4.313100859481828,0.9452725633592671,B,696,Correct
2,new_learn,46,466,A,51.78938214084892,81.82304118506207,2.589469107042446,1.2852733254068303,B,4187,Incorrect
2,new_learn,46,467,A,63.50145913311255,75.13319512648252,3.1750729566556277,1.1801894692504296,A,728,Correct
2,new_learn,46,468,B,81.11023702515402,57.769305839004275,4.055511851257701,0.9074381341339889,B,675,Incorrect
2,new_learn,46,469,B,47.06399751029499,25.93845287601117,2.3531998755147496,0.4074402650038087,A,2192,Incorrect
2,new_learn,46,470,A,66.59516704636832,89.00989620358104,3.3297583523184158,1.3981641800498008,B,415,Incorrect
2,new_learn,46,471,A,39.70803420541397,64.19904391071783,1.9854017102706987,1.0084362235869984,A,913,Correct
2,new_learn,46,472,B,63.635852662731615,48.13958151648552,3.1817926331365807,0.7561747781953895,B,874,Correct
2,new_learn,46,473,A,29.28084429673256,40.39002253804652,1.464042214836628,0.6344449904192656,A,712,Correct
2,new_learn,46,474,B,85.9993172875904,66.11111939767314,4.29996586437952,1.038471035101638,B,1014,Incorrect
2,new_learn,46,475,A,33.35933709571398,56.880494590059655,1.6679668547856992,0.8934767196834269,A,10821,Incorrect
2,new_learn,46,476,A,12.688606244827604,30.098556809935516,0.6344303122413801,0.4727870247887423,B,730,Correct
2,new_learn,46,477,B,61.34716634520896,49.157687123436304,3.067358317260448,0.7721671436722654,B,665,Correct
2,new_learn,46,478,A,27.283956176215106,44.457987517370526,1.3641978088107551,0.6983444348897898,B,5362,Incorrect
2,new_learn,46,479,B,66.82921083246359,46.57808982826996,3.3414605416231793,0.7316469241136919,A,542,Incorrect
2,new_learn,46,480,B,66.3617746364946,53.77540360947852,3.31808873182473,0.8447020646168188,B,567,Correct
2,new_learn,46,481,A,14.703555071915574,35.17437322746839,0.7351777535957786,0.5525177626302009,A,1083,Incorrect
2,new_learn,46,482,A,63.178004477146416,83.49890568406471,3.158900223857321,1.3115977433992236,B,2491,Correct
2,new_learn,46,483,B,79.72811790202411,58.60070825886757,3.9864058951012056,0.9204977728060854,B,1094,Correct
2,new_learn,46,484,A,27.52381881077629,44.67868639428962,1.3761909405388144,0.7018111647417125,A,1132,Correct
2,new_learn,46,485,B,42.88681982081431,19.3031728824196,2.1443409910407154,0.3032135305919156,B,728,Correct
2,new_learn,46,486,B,56.2167576971762,32.780336902602876,2.8108378848588096,0.514912327977078,B,4056,Correct
2,new_learn,46,487,B,86.09855840169563,68.6354901434312,4.304927920084782,1.0781237580506906,B,5381,Incorrect
2,new_learn,46,488,A,48.76063436087345,61.64410309564443,2.4380317180436726,0.9683033071120418,B,812,Incorrect
2,new_learn,46,489,B,58.021153709335415,44.39864104527089,2.901057685466771,0.6974122226859665,B,1685,Correct
2,new_learn,46,490,A,38.074387674822496,50.0274793511873,1.9037193837411248,0.7858298080365255,A,806,Correct
2,new_learn,46,491,B,63.2300603614776,32.659875460408585,3.1615030180738803,0.5130201240678859,B,3574,Correct
2,new_learn,46,492,A,41.358071142641144,71.58874143340162,2.067903557132057,1.1245133208345688,A,2512,Correct
2,new_learn,46,493,A,31.007176368427658,41.06907178737422,1.5503588184213828,0.6451114710848334,A,889,Correct
2,new_learn,46,494,B,60.21016932099518,47.26061276427022,3.010508466049759,0.7423679693219167,B,778,Correct
2,new_learn,46,495,B,47.42359530025267,34.337966478267205,2.3711797650126334,0.5393795161366841,A,1879,Correct
2,new_learn,46,496,A,45.29132475481856,63.512597677754776,2.264566237740928,0.9976535513741929,B,7963,Incorrect
2,new_learn,46,497,A,33.404877284372546,44.96765155778632,1.6702438642186275,0.7063502189156355,A,4663,Correct
2,new_learn,46,498,A,66.8230279943345,81.25826202556264,3.3411513997167246,1.2764017951149103,B,650,Incorrect
2,new_learn,46,499,B,40.28509543052509,22.93555554939915,2.014254771526254,0.3602708640999649,A,750,Correct
2,new_learn,46,500,B,67.28249399425404,56.831581092878885,3.364124699712702,0.8927083882664045,B,10166,Correct
2,new_learn,46,501,B,75.50496331266068,51.13093042932453,3.775248165633034,0.8031627770398837,B,792,Correct
2,new_learn,46,502,A,12.483075418438062,33.689421418555305,0.6241537709219032,0.5291921941611198,B,2764,Incorrect
2,new_learn,46,503,A,36.814997397240845,65.72483099197984,1.8407498698620424,1.032403231014173,A,676,Correct
2,new_learn,46,504,A,20.909995970265502,49.249688016547374,1.045499798513275,0.7736122903218725,A,1049,Correct
2,new_learn,46,505,B,51.746600969495226,28.550753789987276,2.5873300484747612,0.44847419180537484,B,1133,Incorrect
2,new_learn,46,506,A,52.636849946108455,79.93444158315035,2.6318424973054224,1.255607272232138,A,2408,Correct
2,new_learn,46,507,A,55.45238346533088,83.52637465955382,2.772619173266544,1.3120292250572148,A,337,Correct
2,new_learn,46,508,A,60.92912421615921,85.59258269222812,3.0464562108079605,1.3444851449384037,B,4315,Correct
2,new_learn,46,509,B,64.23890124265439,31.96456586089751,3.2119450621327195,0.5020982264189136,A,1882,Correct
2,new_learn,46,510,A,54.76789843245777,72.73135157104552,2.7383949216228882,1.1424613989062655,A,1034,Incorrect
2,new_learn,46,511,B,89.54477350332644,66.23849461376327,4.477238675166322,1.0404718403172288,B,811,Correct
2,new_learn,46,512,A,17.268117474411145,39.55079196463966,0.8634058737205572,0.6212623873988508,A,5510,Correct
2,new_learn,46,513,A,59.605450758737696,75.18384332905971,2.980272537936885,1.1809850493560998,B,826,Incorrect
2,new_learn,46,514,A,17.85824486656294,31.29091149983276,0.8929122433281471,0.4915164884600149,A,1567,Correct
2,new_learn,46,515,B,60.83451096898837,44.480534537288115,3.0417255484494183,0.698698602650457,B,6496,Correct
2,new_learn,46,516,A,38.99785265755521,70.64571396185619,1.9498926328777602,1.1097002799508664,A,3169,Correct
2,new_learn,46,517,A,21.874511901220583,49.68948440252086,1.0937255950610292,0.7805205957981207,B,733,Correct
2,new_learn,46,518,A,35.68376207735855,50.082591946454606,1.7841881038679275,0.7866955146585857,B,668,Incorrect
2,new_learn,46,519,B,33.96462129769333,10.580583013565185,1.6982310648846664,0.1661994093305667,A,713,Incorrect
2,new_learn,46,520,B,39.90796201037399,24.89957808813037,1.9953981005186996,0.3911216579957788,B,1189,Correct
2,new_learn,46,521,A,45.38652888698536,58.97568249740752,2.269326444349268,0.926387854371498,A,3114,Correct
2,new_learn,46,522,B,44.192295740102075,18.345841783019537,2.209614787005104,0.2881758088472743,B,853,Correct
2,new_learn,46,523,B,80.18764425087485,62.90351366263542,4.009382212543743,0.9880860820376031,A,742,Incorrect
2,new_learn,46,524,A,30.988495354015825,57.761187832819054,1.549424767700791,0.9073106167910225,B,562,Correct
2,new_learn,46,525,A,51.40832748147726,75.00268948813469,2.5704163740738633,1.1781394914770016,B,757,Incorrect
2,new_learn,46,526,B,42.078870275021146,19.7558867779401,2.103943513751057,0.31032474383364167,A,869,Correct
2,new_learn,46,527,A,27.72303880307796,37.336918229816845,1.386151940153898,0.5864869400923771,B,926,Incorrect
2,new_learn,46,528,B,34.24163458503766,19.165190878218386,1.712081729251883,0.301046114338285,B,5586,Incorrect
2,new_learn,46,529,A,55.575180689331674,69.79330283102841,2.7787590344665833,1.0963106372186329,B,3091,Correct
2,new_learn,46,530,A,49.16566055046914,76.10510098078207,2.458283027523457,1.1954561307096716,B,743,Correct
2,new_learn,46,531,A,14.849068753157702,38.128875234281274,0.7424534376578851,0.5989269716282992,A,689,Correct
2,new_learn,46,532,A,24.716214150069728,42.71381464565381,1.2358107075034865,0.6709470314879107,B,2025,Incorrect
2,new_learn,46,533,B,40.35433599178085,17.999939599671997,2.0177167995890426,0.28274239005694773,B,7000,Correct
2,new_learn,46,534,B,60.886609863974016,29.845565306089455,3.0443304931987005,0.4688130435392252,B,471,Correct
2,new_learn,46,535,A,12.267242746420461,36.47189785465457,0.6133621373210231,0.5728992318133007,B,8681,Incorrect
2,new_learn,46,536,B,76.40774649306589,58.79260443430999,3.8203873246532942,0.9235120708811948,B,335,Correct
2,new_learn,46,537,A,52.97510689361454,73.85220388307704,2.648755344680727,1.1600677058524522,B,1263,Incorrect
2,new_learn,46,538,A,21.957257408624585,34.615513569416784,1.0978628704312292,0.5437392156495879,A,794,Correct
2,new_learn,46,539,A,63.00414821999314,83.86190051386417,3.150207410999657,1.3172996528521688,B,584,Correct
2,new_learn,46,540,A,51.435795130321985,80.98881778192826,2.571789756516099,1.2721693748331413,B,622,Correct
2,new_learn,46,541,A,51.61465728598869,59.504867396052916,2.5807328642994345,0.9347002713213731,A,1029,Correct
2,new_learn,46,542,A,29.482352582907133,44.926154492773186,1.4741176291453568,0.7056983845426816,A,856,Correct
2,new_learn,46,543,B,75.79937638006372,55.21055310779238,3.789968819003186,0.8672453402203483,B,569,Correct
2,new_learn,46,544,A,56.12809467903634,82.34797013999403,2.8064047339518168,1.2935188901491843,B,755,Incorrect
2,new_learn,46,545,A,66.21188703848178,77.56594528356968,3.310594351924089,1.2184030193580517,B,764,Correct
2,new_learn,46,546,B,43.93961189617694,34.251999831167296,2.196980594808847,0.5380291552017701,A,1496,Incorrect
2,new_learn,46,547,B,41.191148575145434,28.093012194341608,2.0595574287572718,0.4412840036347604,B,431,Correct
2,new_learn,46,548,A,52.334089476805616,77.7669171689437,2.6167044738402807,1.2215598783513975,B,1131,Incorrect
2,new_learn,46,549,B,49.842628891112355,23.47817327955407,2.4921314445556177,0.3687942834737762,A,1053,Incorrect
2,new_learn,46,550,B,55.9518082250914,26.132615489161687,2.7975904112545695,0.41049016419918594,B,1447,Correct
2,new_learn,46,551,A,28.10466379498095,48.43783018395227,1.4052331897490475,0.7608596573086721,A,995,Incorrect
2,new_learn,46,552,B,38.35133548468664,15.403033546915108,1.917566774234332,0.24195028516992817,B,5899,Correct
2,new_learn,46,553,B,55.11243855709981,36.62557786492134,2.7556219278549907,0.575313231769589,A,1278,Incorrect
2,new_learn,46,554,B,55.63262944382321,37.11339072853204,2.781631472191161,0.582975778312819,B,2852,Incorrect
2,new_learn,46,555,B,63.660481697267656,45.125094338391904,3.1830240848633826,0.7088233243301918,B,3867,Incorrect
2,new_learn,46,556,B,50.06448255433242,30.892310827497056,2.503224127716621,0.4852552837403859,B,1026,Correct
2,new_learn,46,557,B,69.02445002563665,36.672320379464516,3.451222501281833,0.5760474614710849,A,813,Incorrect
2,new_learn,46,558,A,35.248994313296066,60.99605162947831,1.7624497156648034,0.9581237384857639,B,625,Incorrect
2,new_learn,46,559,B,83.33827852982827,68.52897953276698,4.1669139264914135,1.07645069329073,B,628,Incorrect
2,new_learn,46,560,A,28.663488585722156,57.68190232244862,1.4331744292861077,0.9060652029064431,A,647,Correct
2,new_learn,46,561,A,39.97674328644713,55.05804184414784,1.9988371643223564,0.8648496988930714,A,1976,Correct
2,new_learn,46,562,B,52.754902281780616,39.03404286346839,2.637745114089031,0.6131453114989069,A,614,Incorrect
2,new_learn,46,563,A,53.350117505461526,69.61113105621384,2.6675058752730765,1.0934490896713884,A,976,Correct
2,new_learn,46,564,A,21.180762400440607,34.24520411292302,1.0590381200220305,0.5379224083092097,B,797,Correct
2,new_learn,46,565,B,37.880987783199004,17.785835683663475,1.8940493891599501,0.27937925360876187,A,536,Correct
2,new_learn,46,566,A,50.09202883670157,73.57326478096859,2.5046014418350784,1.155686140682538,A,730,Incorrect
2,new_learn,46,567,B,43.7175338747209,33.340319899734,2.185876693736045,0.5237085203266896,B,1360,Incorrect
2,new_learn,46,568,B,84.63225979932022,62.89093369713564,4.231612989966011,0.9878884764016203,B,608,Correct
2,new_learn,46,569,B,76.19172168660425,44.66634700701606,3.8095860843302125,0.7016173380996704,B,587,Correct
2,new_learn,46,570,A,41.867694618283316,63.61761892318214,2.0933847309141655,0.99930322123972,A,536,Correct
2,new_learn,46,571,A,37.53701848785283,52.26372221883403,1.8768509243926417,0.8209566288597333,A,1803,Correct
2,new_learn,46,572,A,35.75600426127833,55.69879526703011,1.7878002130639163,0.8749146301235186,A,521,Incorrect
2,new_learn,46,573,A,61.009649137223555,78.84015454658746,3.0504824568611775,1.2384182516572153,B,608,Correct
2,new_learn,46,574,A,19.054450120205964,48.791065188701694,0.9527225060102981,0.7664082597882297,B,897,Incorrect
2,new_learn,46,575,A,29.059187015946968,47.42926441402354,1.4529593507973484,0.745017143241321,A,818,Correct
2,new_learn,46,576,B,67.33382580447754,47.530136553822715,3.3666912902238773,0.7466016391080456,B,908,Correct
2,new_learn,46,577,A,41.47676126865161,73.14610267390533,2.0738380634325804,1.1489762939953285,B,4270,Correct
2,new_learn,46,578,B,55.49537560389284,23.66597377507837,2.774768780194642,0.3717442467591745,B,471,Incorrect
2,new_learn,46,579,A,30.155772486348347,39.09645710401472,1.5077886243174174,0.6141257120968056,B,672,Correct
2,new_learn,46,580,B,63.136003878121436,55.3130480958765,3.1568001939060717,0.8688553277283227,A,553,Incorrect
2,new_learn,46,581,A,36.18176125059662,61.65757296543859,1.8090880625298311,0.9685148913319925,B,238,Correct
2,new_learn,46,582,B,64.85819016783994,42.08389889547262,3.242909508391997,0.6610523380221619,A,596,Correct
2,new_learn,46,583,A,49.91298716205338,77.81342365761807,2.495649358102669,1.2222904005672157,A,1398,Incorrect
2,new_learn,46,584,B,53.01072564100933,40.66440265102801,2.6505362820504668,0.6387549431554346,B,450,Correct
2,new_learn,46,585,A,56.85619875190733,71.01855802558073,2.842809937595366,1.1155569008085244,112,9239,Correct
2,new_learn,46,586,B,34.22966041882805,19.764592416076834,1.7114830209414023,0.31046149167771764,B,881,Correct
2,new_learn,46,587,B,67.79229505053445,59.63045700895691,3.3896147525267226,0.936673028347705,B,1093,Incorrect
2,new_learn,46,588,A,48.54115365363072,64.09127011274067,2.427057682681536,1.006743316727126,B,1145,Correct
2,new_learn,46,589,B,32.624040033893124,17.03085161985481,1.6312020016946562,0.2675199916665685,B,8611,Correct
2,new_learn,46,590,B,33.83505139368765,22.194692588990193,1.6917525696843825,0.34863341593127706,B,2408,Correct
2,new_learn,46,591,A,60.83564226788355,83.10767164575732,3.0417821133941776,1.3054522534963195,B,205,Correct
2,new_learn,46,592,B,38.05245791869839,26.25250177037998,1.9026228959349194,0.4123733335008939,A,597,Incorrect
2,new_learn,46,593,A,44.95021686557948,69.31454137697074,2.247510843278974,1.0887902698841851,B,656,Incorrect
2,new_learn,46,594,A,45.426282596530456,52.59381502839461,2.2713141298265227,0.8261417145873248,B,876,Incorrect
2,new_learn,46,595,B,73.62258860110154,58.57607355344106,3.681129430055077,0.9201108117581289,B,630,Correct
2,new_learn,46,596,B,66.31434752327155,33.55123191818817,3.3157173761635774,0.5270215185653367,B,586,Incorrect
2,new_learn,46,597,B,73.54410269726677,60.200771280234505,3.6772051348633386,0.9456315039721206,B,638,Correct
2,new_learn,46,598,B,63.498251593021,48.53160310199312,3.1749125796510502,0.762332638860786,A,667,Correct
2,new_learn,46,599,B,51.551432255882425,41.31515910403136,2.577571612794121,0.6489770016155918,B,788,Correct
2,new_learn,46,600,A,51.096553954877166,77.41935391187029,2.554827697743858,1.2161003674759996,B,3786,Incorrect
2,new_learn,46,601,B,32.491758016279285,48.606384752196895,1.624587900813964,0.7635073062753035,B,2629,Correct
2,new_learn,46,602,A,75.18384332905971,40.394549241262304,3.7591921664529853,0.634516095707104,B,538,Incorrect
2,new_learn,46,603,B,44.916998328534355,27.004260508485388,2.245849916426718,0.42418193214541333,B,681,Correct
2,new_learn,46,604,B,39.933621421808894,29.44770073566133,1.9966810710904446,0.46256340148132186,B,758,Correct
2,new_learn,46,605,A,53.20124550457296,54.330895180098416,2.660062275228648,0.8534277058037715,A,593,Correct
2,new_learn,46,606,B,23.220335953275818,58.45579504830094,1.1610167976637908,0.9182214814174643,B,807,Correct
2,new_learn,46,607,B,35.7569651014459,36.43894543539359,1.787848255072295,0.5723816164219591,A,1048,Incorrect
2,new_learn,46,608,B,41.12095877872887,35.726172713415096,2.056047938936443,0.5611854086867248,B,753,Correct
2,new_learn,46,609,A,41.573755240139434,68.68066470870323,2.0786877620069717,1.078833358462629,A,962,Correct
2,new_learn,46,610,B,21.405934873406704,50.377619614493014,1.0702967436703352,0.7913297984311615,B,1025,Correct
2,new_learn,46,611,A,73.21679474481803,46.36140181373838,3.6608397372409014,0.7282431967408252,A,1506,Correct
2,new_learn,46,612,B,49.157687123436304,38.65283365479104,2.457884356171815,0.6071572912515992,A,2664,Incorrect
2,new_learn,46,613,A,87.36762093481067,30.961767175830502,4.368381046740534,0.4863463015087335,B,442,Incorrect
2,new_learn,46,614,A,39.69957346655662,86.00966495545252,1.984978673327831,1.3510366578088455,A,723,Correct
2,new_learn,46,615,B,58.94549318937977,27.45617747662436,2.9472746594689885,0.43128062728110317,B,1764,Correct
2,new_learn,46,616,B,40.99185542374906,46.266868535835236,2.049592771187453,0.7267582714839237,A,4894,Incorrect
2,new_learn,46,617,B,40.41714819118358,38.65475274802461,2.020857409559179,0.60718743629762,B,444,Correct
2,new_learn,46,618,B,34.78339314151856,34.92098764153894,1.7391696570759279,0.5485375911537935,B,583,Correct
2,new_learn,46,619,B,62.06377330400505,23.800308478175182,3.1031886652002525,0.37385437134103006,B,783,Correct
2,new_learn,46,620,B,25.61539371439152,48.072462629966765,1.2807696857195758,0.7551204771913673,A,1106,Incorrect
2,new_learn,46,621,A,53.644762265124335,68.05759386922611,2.6822381132562167,1.0690461846027925,B,506,Incorrect
2,new_learn,46,622,B,48.92076214834115,21.08247972852925,2.446038107417057,0.3311628171730161,B,607,Correct
2,new_learn,46,623,A,52.76755035725838,65.4187875526753,2.638377517862919,1.0275959119111806,B,607,Incorrect
2,new_learn,46,624,A,39.12303941724384,76.99111143913993,1.9561519708621917,1.2093735504445755,A,742,Correct
2,new_learn,46,625,B,41.629684777103115,32.87268572314069,2.0814842388551558,0.5163629398579244,A,554,Incorrect
2,new_learn,46,626,A,83.68312913024371,36.248971149061745,4.184156456512186,0.5693975073104036,B,608,Incorrect
2,new_learn,46,627,A,44.457987517370526,72.7160438237849,2.2228993758685265,1.1422209453745806,A,1609,Correct
2,new_learn,46,628,A,66.63342028462272,57.62956460167688,3.331671014231136,0.9052430839110325,B,439,Incorrect
2,new_learn,46,629,A,36.834389209201746,79.68115256858002,1.841719460460087,1.2516286176950924,A,516,Correct
2,new_learn,46,630,A,67.41972765609181,49.02331651368928,3.3709863828045905,0.7700564550700671,A,789,Correct
2,new_learn,46,631,A,49.900463698159456,58.398867346502904,2.4950231849079727,0.9173272631686918,B,503,Incorrect
2,new_learn,46,632,A,77.18225348443946,34.626478858570295,3.859112674221973,0.5439114580088337,A,526,Correct
2,new_learn,46,633,A,84.29332125430876,34.98387414474851,4.214666062715438,0.5495254100362591,B,494,Incorrect
2,new_learn,46,634,B,60.212904370024575,18.094127456586776,3.010645218501229,0.28422188945365195,A,515,Incorrect
2,new_learn,46,635,A,73.85220388307704,47.02489310638546,3.692610194153852,0.7386652935943293,A,761,Correct
2,new_learn,46,636,B,20.105221963977918,62.47913664763097,1.005261098198896,0.9814199834741514,A,685,Incorrect
2,new_learn,46,637,A,39.09645710401472,69.84422751365165,1.9548228552007358,1.0971105602627107,B,916,Incorrect
2,new_learn,46,638,B,35.97022731676315,52.00874344124098,1.7985113658381575,0.8169514315871949,A,967,Incorrect
2,new_learn,46,639,A,71.71742993482523,42.74956134843025,3.585871496741262,0.6715085393820732,B,529,Incorrect
2,new_learn,46,640,A,52.26372221883403,62.46298151214717,2.6131861109417014,0.9811662191993831,A,1011,Correct
2,new_learn,46,641,B,49.37827004715431,41.35545400766653,2.4689135023577156,0.6496099524817788,A,664,Incorrect
2,new_learn,46,642,B,44.74972934755164,30.090746108404716,2.237486467377582,0.4726643345759996,B,733,Correct
2,new_learn,46,643,B,45.7284245844011,35.81288344782219,2.2864212292200548,0.5625474577177284,B,840,Correct
2,new_learn,46,644,B,34.251999831167296,56.06038810382306,1.7125999915583647,0.8805945171218159,A,1434,Incorrect
2,new_learn,46,645,B,16.66989383251824,59.425631406703005,0.833494691625912,0.9334556353111652,B,914,Correct
2,new_learn,46,646,A,73.52535991745549,43.5320781811306,3.6762679958727746,0.683800285046682,B,775,Incorrect
2,new_learn,46,647,A,83.5219454782535,36.44265476900412,4.176097273912675,0.572439882498062,B,1133,Incorrect
2,new_learn,46,648,A,64.08293751476764,62.702551393890616,3.204146875738382,0.9849293741019159,A,560,Correct
2,new_learn,46,649,A,51.22636212719337,77.49427839046861,2.5613181063596686,1.2172772784336923,B,625,Incorrect
2,new_learn,46,650,A,73.57326478096859,49.90797116329843,3.6786632390484293,0.7839525778109478,A,494,Correct
2,new_learn,46,651,B,12.75182802289325,65.98440989961557,0.6375914011446625,1.0364806869604495,B,723,Correct
2,new_learn,46,652,B,51.47622713491493,21.498489014778073,2.5738113567457463,0.3376974757605383,A,1162,Incorrect
2,new_learn,46,653,A,63.185076937529004,54.421276068808396,3.1592538468764504,0.8548474054837523,B,702,Incorrect
2,new_learn,46,654,A,78.8112434611871,35.42843692371636,3.9405621730593556,0.5565085858385834,B,626,Incorrect
2,new_learn,46,655,B,53.53105447979683,31.881921477808973,2.6765527239898415,0.5008000514850566,A,450,Incorrect
2,new_learn,46,656,B,17.257564686671103,53.71118166907897,0.8628782343335551,0.8436932687360262,B,656,Correct
2,new_learn,46,657,B,36.14611944401433,39.980416251173516,1.8073059722007168,0.6280109099107435,B,856,Correct
2,new_learn,46,658,B,61.367836932717296,20.819698825347544,3.0683918466358646,0.3270350643983195,B,2642,Correct
2,new_learn,46,659,B,30.342765493752317,56.67413373621544,1.5171382746876159,0.8902352109712994,A,703,Incorrect
2,new_learn,46,660,A,53.07025230304705,75.56642533096078,2.6535126151523527,1.1869946333889403,B,617,Incorrect
2,new_learn,46,661,B,48.96706790364361,25.204876824598585,2.4483533951821808,0.39591727933397275,A,803,Incorrect
2,new_learn,46,662,B,40.505058319697696,30.579135529220366,2.025252915984885,0.48033593765862664,B,862,Correct
2,new_learn,46,663,A,32.51627113276126,82.56505265873706,1.6258135566380632,1.296928814379714,B,740,Incorrect
2,new_learn,46,664,B,27.679154677790716,43.80654850978965,1.383957733889536,0.6881116548874002,B,975,Correct
2,new_learn,46,665,A,63.39033137245425,61.00744700091721,3.1695165686227127,0.9583027365617509,B,1038,Incorrect
2,new_learn,46,666,B,25.58245208550043,44.58765425420346,1.2791226042750217,0.7003812352290364,B,1322,Correct
2,new_learn,46,667,B,19.94930793371201,61.358813201857586,0.9974653966856004,0.9638219839397211,B,972,Correct
2,new_learn,46,668,A,75.26241878578584,40.48306364019005,3.763120939289292,0.6359064766341457,B,1394,Incorrect
2,new_learn,46,669,B,59.80151929442927,15.589017736148804,2.9900759647214636,0.24487171798283036,A,539,Incorrect
2,new_learn,46,670,A,71.58874143340162,58.641928857358856,3.5794370716700814,0.9211452644530693,B,772,Incorrect
2,new_learn,46,671,B,59.19981789197148,24.321374029777118,2.959990894598574,0.3820392498857869,A,523,Incorrect
2,new_learn,46,672,B,47.74594297501023,26.454637874856658,2.3872971487505112,0.41554848000513994,A,484,Incorrect
2,new_learn,46,673,A,82.4655734428718,40.08048934173807,4.12327867214359,0.6295828543414417,B,251,Incorrect
2,new_learn,46,674,A,77.36179940804598,33.78978236945014,3.868089970402299,0.5307686602913123,B,176,Incorrect
2,new_learn,46,675,B,38.70123736871322,40.68186746196256,1.9350618684356613,0.6390292797640762,A,250,Incorrect
2,new_learn,46,676,A,75.548907017846,44.845648829542235,3.7774453508923,0.704433804541788,B,513,Incorrect
2,new_learn,46,677,A,38.20829234893489,72.58902496112285,1.9104146174467445,1.1402257377455483,A,410,Correct
2,new_learn,46,678,A,52.08069281821571,78.86822357180625,2.6040346409107853,1.2388591588743194,B,688,Incorrect
2,new_learn,46,679,A,37.552863054408135,75.44220274945906,1.8776431527204067,1.1850433496416615,A,292,Correct
2,new_learn,46,680,A,61.91945738241841,60.79565560637599,3.0959728691209203,0.9549759251158297,A,905,Correct
2,new_learn,46,681,B,43.203650366001774,41.6290570255708,2.1601825183000885,0.653907698637019,A,704,Incorrect
2,new_learn,46,682,A,34.25783712398221,81.77850491468857,1.7128918561991104,1.284573751307712,B,591,Incorrect
2,new_learn,46,683,A,76.10510098078207,50.83433944953086,3.8052550490391037,0.7985039368236799,A,108,Correct
2,new_learn,46,684,A,44.67868639428962,72.47618118922371,2.233934319714481,1.1384531919215397,B,232,Incorrect
2,new_learn,46,685,B,36.58632515658247,44.7757584750475,1.8293162578291233,0.7033359694206007,A,489,Incorrect
2,new_learn,46,686,B,20.783904240602734,61.16694284305919,1.0391952120301367,0.9608080913915078,B,875,Correct
2,new_learn,46,687,B,34.22133835744402,40.707185734204124,1.7110669178722009,0.6394269782544546,A,596,Incorrect
2,new_learn,46,688,B,29.804911380320426,51.70268085150322,1.4902455690160212,0.8121438116699009,B,983,Correct
2,new_learn,46,689,B,35.67371878357958,32.7735887796358,1.783685939178979,0.5148063287093835,B,1464,Correct
2,new_learn,46,690,B,47.01009852368815,41.14334272953509,2.3505049261844078,0.6462781163161723,B,1619,Correct
2,new_learn,46,691,A,73.161292028468,40.014195290157375,3.6580646014233995,0.6285415098143285,B,4826,Incorrect
2,new_learn,46,692,A,49.07456051920354,64.85294106816548,2.453728025960177,1.0187076161172022,B,581,Incorrect
2,new_learn,46,693,A,53.114425225598374,57.41243617407863,2.6557212612799184,0.9018324385458916,A,371,Correct
2,new_learn,46,694,B,63.25831833679453,24.829884271384003,3.1629159168397267,0.39002691008232365,A,346,Incorrect
2,new_learn,46,695,A,54.936773785360145,72.29824547574873,2.7468386892680074,1.1356581842702185,B,362,Incorrect
2,new_learn,46,696,A,32.754577911062256,85.14991584404112,1.6377288955531129,1.3375317503471433,A,324,Correct
2,new_learn,46,697,B,33.35844837656944,35.385428112376985,1.667922418828472,0.5558330050098664,B,248,Correct
2,new_learn,46,698,A,59.70413223209927,67.75004886782537,2.9852066116049634,1.0642152790175483,A,323,Correct
2,new_learn,46,699,B,18.71538026605602,62.95898758103242,0.9357690133028009,0.9889574643101123,B,298,Correct
2,new_learn,46,700,B,46.093350679863725,43.570508718059166,2.3046675339931864,0.6844039505091235,A,281,Incorrect
2,new_learn,46,701,B,57.19630928031873,31.701752516725833,2.859815464015936,0.497969964062338,B,258,Correct
2,new_learn,46,702,B,60.54738459133441,25.593547617788644,3.0273692295667205,0.40202250587672683,A,268,Incorrect
2,new_learn,46,703,B,28.767480722860675,60.063854358010204,1.438374036143034,0.9434808179870606,B,304,Correct
2,new_learn,46,704,B,63.219060942555785,26.016372544564888,3.160953047127789,0.40866422429530125,B,177,Correct
2,new_learn,46,705,A,75.54577497357283,54.25622863614516,3.7772887486786417,0.852254846474009,A,278,Correct
2,new_learn,46,706,A,74.37696546322344,55.45613338221587,3.718848273161172,0.8711029061503253,B,185,Incorrect
2,new_learn,46,707,A,53.76848486448108,77.29367386846634,2.688424243224054,1.214126189970696,A,256,Correct
2,new_learn,46,708,A,63.22454407424679,50.79479563817655,3.1612272037123397,0.7978827840874516,B,459,Incorrect
2,new_learn,46,709,A,43.17655152405868,70.8646447714305,2.158827576202934,1.1131392370658821,A,459,Correct
2,new_learn,46,710,A,64.11179698566941,65.96676082692677,3.2055898492834705,1.0362034559749405,B,244,Incorrect
2,new_learn,46,711,B,31.450614296778507,46.86556058962699,1.5725307148389254,0.7361625042736973,A,202,Incorrect
2,new_learn,46,712,B,53.59483882498169,18.03159506558447,2.679741941249085,0.28323963295273064,B,216,Correct
2,new_learn,46,713,B,27.005741599539224,61.87996326434347,1.3502870799769613,0.9720081899783387,A,264,Incorrect
2,new_learn,46,714,A,52.80975946736598,75.63357857474115,2.640487973368299,1.1880494740755658,B,256,Incorrect
2,new_learn,46,715,B,57.64359778187607,15.94895145051224,2.8821798890938033,0.2505255435469476,A,429,Incorrect
2,new_learn,46,716,B,50.78241724591782,18.98197122447732,2.539120862295891,0.29816810674735394,B,253,Correct
2,new_learn,46,717,A,78.88571845367825,44.166884106894514,3.944285922683912,0.6937717932108579,A,310,Correct
2,new_learn,46,718,B,46.37261466286625,23.63794400342357,2.3186307331433125,0.371303956135612,B,250,Correct
2,new_learn,46,719,B,31.449616125489335,56.12916094916605,1.5724808062744668,0.8816747984502958,B,241,Correct
2,new_learn,46,720,B,44.54948546589101,28.312898602522694,2.2274742732945505,0.44473797125759007,B,242,Correct
2,new_learn,46,721,A,66.38168914105773,58.4841792768261,3.319084457052887,0.9186673398365264,A,240,Correct
2,new_learn,46,722,B,55.31506977218297,36.41056670533027,2.7657534886091484,0.5719358443725334,B,243,Correct
2,new_learn,46,723,B,12.441749128313077,64.41869611489095,0.6220874564156539,1.0118865123418737,A,118,Incorrect
2,new_learn,46,724,B,43.76010284808889,27.219477767125895,2.188005142404444,0.4275625569387671,B,282,Correct
2,new_learn,46,725,A,63.4847524943495,44.1782711730704,3.1742376247174753,0.6939506608280784,A,275,Correct
2,new_learn,46,726,A,60.99605162947831,64.75100568670393,3.049802581473916,1.0171064188895,B,70,Incorrect
2,new_learn,46,727,B,52.93685820623607,34.12303625453309,2.6468429103118036,0.5360034000770966,A,287,Incorrect
2,new_learn,46,728,A,59.93255711149214,63.618256136698854,2.996627855574607,0.9993132305662344,A,216,Correct
2,new_learn,46,729,B,44.39864104527089,41.978846290664585,2.2199320522635446,0.659402175564635,B,270,Correct
2,new_learn,46,730,A,61.494830956998236,63.440836909383385,3.074741547849912,0.9965263358605352,A,335,Correct
2,new_learn,46,731,A,66.29949563720089,64.27093190452395,3.3149747818600446,1.0095654375531116,A,259,Correct
2,new_learn,46,732,A,33.80248987719465,83.66269071991744,1.6901244938597326,1.3141704727262378,A,248,Correct
2,new_learn,46,733,B,69.23846945961424,14.018813545096435,3.461923472980712,0.22020700822660022,B,145,Correct
2,new_learn,46,734,A,83.67983344959299,42.23444501397287,4.1839916724796495,0.6634171109216962,A,409,Correct
2,new_learn,46,735,A,43.68137391973133,70.31282916835775,2.1840686959865665,1.104471337842134,B,234,Incorrect
2,new_learn,46,736,A,85.59258269222812,39.07087578384079,4.279629134611406,0.6137238816591679,B,249,Incorrect
2,new_learn,46,737,B,18.564084527752083,51.13509227167181,0.9282042263876042,0.8032281511066018,B,537,Correct
2,new_learn,46,738,B,49.007249729080534,30.8240031875268,2.450362486454027,0.4841823098408128,A,339,Incorrect
2,new_learn,46,739,B,49.782212002808514,25.782883002859876,2.4891106001404255,0.4049965791507486,B,323,Correct
2,new_learn,46,740,B,50.42628480891592,24.33369411960294,2.521314240445796,0.3822327734042287,A,479,Incorrect
2,new_learn,46,741,B,37.74929921366238,35.843307623807945,1.887464960683119,0.5630253595565703,A,524,Incorrect
2,new_learn,46,742,B,34.82679344745371,34.85437845446663,1.7413396723726857,0.5474912964899536,B,241,Correct
2,new_learn,46,743,A,43.11095134129628,82.668524466712,2.1555475670648137,1.2985541457386522,B,277,Incorrect
2,new_learn,46,744,A,82.58593139835114,39.89548764716402,4.129296569917557,0.626676854518564,A,229,Correct
2,new_learn,46,745,B,36.133210877385665,31.150406599907015,1.8066605438692833,0.48930944265301446,A,229,Incorrect
2,new_learn,46,746,B,55.21055310779238,24.20062361993628,2.760527655389619,0.3801425068834173,B,72,Correct
2,new_learn,46,747,A,72.67756148555505,46.45833522456072,3.633878074277752,0.7297658231974593,A,472,Correct
2,new_learn,46,748,B,41.31515910403136,48.448567744117575,2.0657579552015677,0.7610283225093359,B,240,Correct
2,new_learn,46,749,A,83.03751313777632,36.191386303409736,4.151875656888816,0.5684929666701115,A,222,Correct
2,new_learn,46,750,B,45.125094338391904,36.339518302732344,2.256254716919595,0.5708198186742788,B,234,Correct
2,new_learn,46,751,B,13.20684766045494,62.250795765684444,0.6603423830227471,0.9778332132879644,B,630,Correct
2,new_learn,46,752,B,53.521850648451675,20.913762234823892,2.676092532422584,0.328512608979232,A,277,Incorrect
2,new_learn,46,753,A,54.04107626773454,58.43069644363279,2.7020538133867267,0.91782723345726,B,154,Incorrect
2,new_learn,46,754,B,27.99974146069477,40.11068282538926,1.3999870730347386,0.6300571324735659,A,223,Incorrect
2,new_learn,46,755,B,62.90351366263542,19.812355749125146,3.1451756831317708,0.31121175635879533,B,293,Correct
2,new_learn,46,756,B,33.653850056719484,34.08070764637074,1.682692502835974,0.535338503854899,B,320,Correct
2,new_learn,46,757,A,63.602921147109875,57.409267648645745,3.180146057355494,0.9017826674647783,A,218,Correct
2,new_learn,46,758,A,48.009545913994565,76.73447514889114,2.4004772956997282,1.2053423170241246,B,226,Incorrect
2,new_learn,46,759,A,37.99971951296905,82.78136964358661,1.8999859756484525,1.300326713631964,A,310,Correct
2,new_learn,46,760,A,44.926154492773186,70.51764741709286,2.246307724638659,1.1076886153698708,A,193,Correct
2,new_learn,46,761,A,56.88568251515363,64.58443267758919,2.8442841257576816,1.014489896180894,B,369,Incorrect
2,new_learn,46,762,A,38.952791472809075,87.937482884569,1.947639573640454,1.3813187510267007,B,538,Incorrect
2,new_learn,46,763,A,39.59652639563077,69.2596968972401,1.9798263197815384,1.0879287748111266,A,234,Correct
2,new_learn,46,764,B,27.857312854154397,46.50605693787253,1.3928656427077197,0.730515434117245,B,392,Correct
2,new_learn,46,765,B,14.90458642800207,57.142258276771,0.7452293214001035,0.8975884940591716,A,278,Incorrect
2,new_learn,46,766,B,39.972645057915464,43.86781051742001,1.9986322528957732,0.6890739562529788,B,247,Correct
2,new_learn,46,767,A,79.7555640487356,50.11790013510199,3.98777820243678,0.7872501343889167,A,582,Correct
2,new_learn,46,768,B,46.44863883861493,22.513598235295007,2.3224319419307466,0.3536427741093746,B,577,Correct
2,new_learn,46,769,B,39.35339323174514,47.0846185401233,1.9676696615872569,0.7396034585136457,A,282,Incorrect
2,new_learn,46,770,B,46.76957008557606,43.99697268790213,2.338478504278803,0.6911028308825204,B,321,Correct
2,new_learn,46,771,B,65.31364180964592,10.741463116128813,3.2656820904822954,0.16872650807218,A,620,Incorrect
2,new_learn,46,772,A,52.23508370481229,54.936571119138314,2.6117541852406148,0.8629416412064906,B,697,Incorrect
2,new_learn,46,773,B,49.235475718955456,31.942629281942317,2.4617737859477726,0.5017536474424609,A,554,Incorrect
2,new_learn,46,774,B,44.66634700701606,23.808278313395746,2.2333173503508026,0.3739795612199263,B,281,Correct
2,new_learn,46,775,B,40.60035195178927,33.57939189177999,2.0300175975894637,0.5274638543961434,A,274,Incorrect
2,new_learn,46,776,A,79.44777939794636,51.790010791235844,3.972388969897318,0.8135155871554133,B,268,Incorrect
2,new_learn,46,777,B,33.55123191818817,33.68565247672845,1.6775615959094086,0.5291329917613445,A,264,Incorrect
2,new_learn,46,778,B,69.22959987087037,12.783870220906635,3.4614799935435188,0.2008085638522281,B,273,Correct
2,new_learn,46,779,A,83.52637465955382,44.54761653466912,4.176318732977691,0.6997523242012585,A,276,Correct
2,new_learn,46,780,B,28.093012194341608,58.808851424854566,1.4046506097170803,0.9237672780118836,B,265,Correct
2,new_learn,46,781,A,63.34410742529282,53.97569628241923,3.167205371264641,0.8478482545662107,A,283,Correct
2,new_learn,46,782,A,86.54468100803057,33.340305520618074,4.327234050401528,0.5237082944600648,B,288,Incorrect
2,new_learn,46,783,A,40.7929427625554,76.59908221918045,2.03964713812777,1.2032155698574891,A,282,Correct
2,new_learn,46,784,A,64.5979282578405,64.55080373705044,3.229896412892025,1.0139616540181713,B,248,Incorrect
2,new_learn,46,785,A,59.11531681263799,68.32431122813084,2.9557658406318996,1.0732357710793923,A,338,Correct
2,new_learn,46,786,A,34.24520411292302,78.81923759955939,1.7122602056461511,1.2380896890216209,B,234,Incorrect
2,new_learn,46,787,A,43.54636083508559,81.67794648951777,2.1773180417542797,1.282994183258846,A,252,Correct
2,new_learn,46,788,A,77.48390831189408,35.559215690484734,3.8741954155947043,0.5585628539032087,A,294,Correct
2,new_learn,46,789,B,29.494502259182457,48.85015181752142,1.4747251129591228,0.7673363903833569,B,254,Correct
2,new_learn,46,790,B,42.21292567185363,28.468475498605997,2.110646283592682,0.44718176742660815,A,331,Incorrect
2,new_learn,46,791,A,87.93729948405046,36.368504029876355,4.396864974202523,0.5712751254115518,B,239,Incorrect
2,new_learn,46,792,B,17.999939599671997,59.64566400821915,0.8999969799835997,0.936911899333532,B,232,Correct
2,new_learn,46,793,B,60.09974302403352,12.477800643652358,3.0049871512016764,0.1960008341752812,B,442,Correct
2,new_learn,46,794,A,43.34407225084309,79.68645065645326,2.1672036125421545,1.2517118398647957,A,393,Correct
2,new_learn,46,795,A,61.964632711657096,60.130281901810896,3.098231635582855,0.944524259405062,A,349,Correct
2,new_learn,46,796,B,20.836991886113626,59.48775671198217,1.0418495943056814,0.9344314973245005,B,297,Correct
2,new_learn,46,797,A,67.3811186848918,64.62264598931247,3.3690559342445905,1.0150901494777897,B,272,Incorrect
2,new_learn,46,798,B,62.49766891826836,12.113847790534265,3.124883445913418,0.19028387612723696,A,69,Incorrect
2,new_learn,46,799,B,32.659875460408585,36.7699396385224,1.6329937730204294,0.5775808612066106,A,446,Incorrect
2,new_learn,46,800,A,51.18999705369022,72.49013060765054,2.5594998526845107,1.1386723088737978,B,374,Incorrect
2,new_learn,46,801,B,37.12580612694499,33.09940227200484,1.8562903063472493,0.5199241950797185,B,119,Correct
2,new_learn,46,802,A,74.22526162203543,36.40036041036311,3.7112630811017713,0.5717755242660876,A,412,Correct
2,new_learn,46,803,B,18.757666451437615,66.79293828598375,0.9378833225718808,1.049181021154615,A,312,Incorrect
2,new_learn,46,804,B,26.661921446869417,46.673215643389284,1.3330960723434708,0.73314115692342,B,322,Correct
2,new_learn,46,805,A,71.51378027650026,43.98702622896809,3.575689013825013,0.6909465922709384,B,612,Incorrect
2,new_learn,46,806,A,72.96326401478244,36.75505829867803,3.648163200739122,0.5773471056669573,A,330,Correct
2,new_learn,46,807,A,70.64841858373121,45.83737291475364,3.5324209291865607,0.7200117700442288,A,646,Correct
2,new_learn,46,808,A,81.25826202556264,33.176972005665505,4.0629131012781325,0.5211426576067648,A,117,Correct
2,new_learn,46,809,A,36.69988175549777,88.4741356524433,1.8349940877748885,1.3897484729921135,B,330,Incorrect
2,new_learn,46,810,A,37.479031824760185,79.42618000209534,1.8739515912380091,1.2476235179864161,A,459,Correct
2,new_learn,46,811,B,47.103657883772485,27.282583066481465,2.355182894188624,0.4285538126630573,B,245,Correct
2,new_learn,46,812,B,36.528650829190575,31.697001054946554,1.8264325414595288,0.49789532827524013,A,230,Incorrect
2,new_learn,46,813,B,47.35731604322338,22.812220457330852,2.3678658021611687,0.3583335210041069,B,121,Correct
2,new_learn,46,814,A,41.86821341894937,77.32692213470153,2.0934106709474687,1.2146484525154415,A,268,Correct
2,new_learn,46,815,A,68.11385556852093,61.088617505362386,3.4056927784260465,0.9595777598640165,B,755,Incorrect
2,new_learn,46,816,A,65.72483099197984,63.185002602759155,3.286241549598992,0.9925076999694006,A,146,Correct
2,new_learn,46,817,A,54.187976388363225,70.88817798524056,2.709398819418161,1.1135088959239872,B,224,Incorrect
2,new_learn,46,818,B,49.01437062193476,26.558759181651226,2.450718531096738,0.4171840136676797,B,81,Correct
2,new_learn,46,819,A,57.68190232244862,71.33651141427785,2.8840951161224315,1.1205513009590984,A,182,Correct
2,new_learn,46,820,B,63.69591157570309,21.11580703223889,3.1847955787851547,0.33168632123550695,B,253,Correct
2,new_learn,46,821,B,51.933450559431215,17.714303651094255,2.596672527971561,0.2782556310686828,A,235,Incorrect
2,new_learn,46,822,A,75.91133203085329,38.555478041348856,3.795566601542664,0.6056280328517207,B,229,Incorrect
2,new_learn,46,823,B,44.480534537288115,39.16548903101163,2.224026726864406,0.6152100630703887,A,106,Incorrect
2,new_learn,46,824,B,60.177920411109675,13.737982810363434,3.008896020555484,0.21579572936090313,B,122,Correct
2,new_learn,46,825,B,56.09656154580543,24.778331870277952,2.8048280772902716,0.38921712685937526,A,495,Incorrect
2,new_learn,46,826,A,69.73793254805466,62.17371908635087,3.486896627402733,0.9766224956401771,B,387,Incorrect
2,new_learn,46,827,A,60.222430722398684,70.2149179511967,3.0111215361199344,1.1029333520394482,B,363,Incorrect
2,new_learn,46,828,B,64.12016984202965,22.879315775241622,3.206008492101483,0.3593874517933007,A,333,Incorrect
2,new_learn,46,829,A,58.598186394860384,56.41439672849698,2.9299093197430195,0.8861552715947308,B,481,Incorrect
2,new_learn,46,830,B,38.05283133645729,37.33452835265791,1.9026415668228644,0.5864493999897497,A,316,Incorrect
2,new_learn,46,831,A,48.810567996800884,76.51529120662616,2.440528399840044,1.2018993837101022,A,346,Correct
2,new_learn,46,832,B,34.792788679050574,37.370875825405335,1.7396394339525287,0.587020344756549,B,312,Correct
2,new_learn,46,833,B,16.831295931939927,68.59516284059768,0.8415647965969965,1.0774902982590862,B,257,Correct
2,new_learn,46,834,A,30.098556809935516,87.31139375517239,1.5049278404967759,1.3714841659796768,A,332,Correct
2,new_learn,46,835,A,64.19904391071783,60.29196579458603,3.2099521955358914,0.9470639840537929,B,467,Incorrect
2,new_learn,46,836,B,53.34868240421853,31.99253782936607,2.667434120210926,0.50253760907215,A,225,Incorrect
2,new_learn,46,837,B,16.372330476854273,60.202338381528094,0.8186165238427137,0.9456561199416774,B,525,Correct
2,new_learn,46,838,B,34.18671274691267,33.58624553073565,1.7093356373456334,0.5275715111051107,A,416,Incorrect
2,new_learn,46,839,B,17.55588403231654,61.950905342102,0.8777942016158271,0.9731225455299215,A,318,Incorrect
2,new_learn,46,840,A,46.628708972855144,77.46510709550905,2.331435448642757,1.216819056803989,B,279,Incorrect
2,new_learn,46,841,A,50.0274793511873,61.925612325177504,2.501373967559365,0.9727252437491358,A,397,Correct
2,new_learn,46,842,B,57.46827849201645,30.381054660507303,2.873413924600823,0.47722449064879846,A,290,Incorrect
2,new_learn,46,843,B,59.36121904627612,23.817538698862677,2.968060952313806,0.374125023014688,B,213,Correct
2,new_learn,46,844,A,55.05804184414784,60.02325671355287,2.752902092207392,0.9428431116791596,B,252,Incorrect
2,new_learn,46,845,B,47.06098785160851,36.257746597153975,2.3530493925804254,0.5695353517266963,A,241,Incorrect
2,new_learn,46,846,A,60.527627040522376,60.948582223813744,3.0263813520261187,0.9573780908052337,A,324,Correct
2,new_learn,46,847,B,55.38433854135279,18.677325802364322,2.7692169270676397,0.29338274764705424,B,292,Correct
2,new_learn,46,848,A,57.761187832819054,69.01150464598417,2.8880593916409527,1.084030180045009,A,373,Correct
2,new_learn,46,849,A,40.64496600121135,73.34115176090191,2.0322483000605676,1.1520401178893178,B,589,Incorrect
2,new_learn,46,850,B,53.1345570013126,27.576115616070012,2.65672785006563,0.4331646111699416,A,343,Incorrect
2,new_learn,46,851,A,59.78451338779153,64.07961420677286,2.9892256693895765,1.0065602261843287,B,1327,Incorrect
2,new_learn,46,852,A,38.128875234281274,85.1509312468423,1.9064437617140637,1.3375477002570468,A,433,Correct
2,new_learn,46,853,A,71.86827519167349,42.81488851615129,3.5934137595836746,0.6725346961330345,B,883,Incorrect
2,new_learn,46,854,A,47.044324997772115,80.07780173777479,2.3522162498886057,1.2578591682750664,A,570,Correct
2,new_learn,46,855,B,47.376207931871946,24.50891434343646,2.368810396593597,0.38498512624400755,A,435,Incorrect
2,new_learn,46,856,A,70.32981562116365,48.03878042460768,3.5164907810581827,0.7545913983468032,B,292,Incorrect
2,new_learn,46,857,A,75.49238813200583,37.41626135347213,3.7746194066002916,0.5877332589643187,A,345,Correct
2,new_learn,46,858,A,72.6592329359374,56.62346306940887,3.6329616467968697,0.8894392779983393,A,322,Correct
2,new_learn,46,859,A,51.83698584810745,71.62116552638845,2.5918492924053727,1.1250226372962024,A,325,Correct
2,new_learn,46,860,A,68.84886397151973,64.41594407595753,3.4424431985759867,1.0118432834153956,A,357,Correct
2,new_learn,46,861,A,87.84258389656532,35.49953292713886,4.392129194828266,0.5576253592488419,A,442,Correct
2,new_learn,46,862,B,54.479975826511186,36.88335221226105,2.7239987913255597,0.5793623417490208,A,660,Incorrect
2,new_learn,46,863,B,48.635738303628266,22.41979121333401,2.4317869151814135,0.3521692568541356,B,249,Correct
2,new_learn,46,864,B,36.13487980885741,51.31450782902293,1.8067439904428708,0.8060464040911719,B,253,Correct
2,new_learn,46,865,B,42.63172222266288,44.64228630978535,2.131586111133144,0.7012393935513692,B,479,Correct
2,new_learn,46,866,B,25.85481405396934,41.96470964199705,1.292740702698467,0.6591801176066334,B,243,Correct
2,new_learn,46,867,A,69.9063628374534,58.51755625668356,3.49531814187267,0.9191916242101226,B,276,Incorrect
2,new_learn,46,868,B,51.9134240936139,39.1619110407562,2.595671204680695,0.6151538601308835,A,295,Incorrect
2,new_learn,46,869,A,32.39926927051573,88.18676197361044,1.6199634635257865,1.3852344178008316,B,327,Incorrect
2,new_learn,46,870,B,37.06555183960715,32.32018957266017,1.8532775919803577,0.5076843506204931,B,254,Correct
2,new_learn,46,871,A,38.24659199835011,85.20613867386963,1.9123295999175056,1.3384148964929101,B,257,Incorrect
2,new_learn,46,872,B,24.558985580545993,51.83519776098658,1.2279492790272997,0.8142253824164476,A,372,Incorrect
2,new_learn,46,873,B,23.281201588777044,57.342886406332426,1.164060079438852,0.9007399533488399,B,322,Correct
2,new_learn,46,874,B,30.519122473903227,52.22660355846104,1.5259561236951615,0.8203735703060387,B,343,Correct
2,new_learn,46,875,A,56.79472989556201,50.947118386334765,2.8397364947781005,0.8002754642203938,B,272,Incorrect
2,new_learn,46,876,B,26.171290148858837,46.2967217608529,1.308564507442942,0.727227204845931,B,357,Correct
2,new_learn,46,877,B,23.47817327955407,50.157371108887645,1.1739086639777034,0.7878701429952918,B,229,Correct
2,new_learn,46,878,A,54.4235784339506,67.41874251394978,2.7211789216975304,1.0590111309804324,A,244,Correct
2,new_learn,46,879,B,57.34638387800943,32.46497706435612,2.8673191939004714,0.5099586672217116,A,304,Incorrect
2,new_learn,46,880,B,48.9729565267551,40.12648348120324,2.448647826337755,0.6303053285947015,B,175,Correct
2,new_learn,46,881,A,31.950433945783033,82.63115475713673,1.5975216972891517,1.2979671437133102,A,276,Correct
2,new_learn,46,882,B,26.734964056472293,63.562529615190535,1.3367482028236146,0.9984378804133313,A,329,Incorrect
2,new_learn,46,883,A,60.78852691629007,50.02499576074108,3.039426345814503,0.7857907958890236,B,225,Incorrect
2,new_learn,46,884,A,69.31454137697074,55.04978313442052,3.465727068848537,0.864719971384034,B,225,Incorrect
2,new_learn,46,885,B,40.63949246883865,36.13358268752936,2.0319746234419322,0.5675849895951078,A,242,Incorrect
2,new_learn,46,886,A,70.6861678239142,60.75329303992788,3.5343083911957103,0.9543104954781267,A,265,Correct
2,new_learn,46,887,A,78.01231328448995,41.853985350791106,3.9006156642244973,0.6574408645075008,B,306,Incorrect
2,new_learn,46,888,A,65.60776140722282,52.89838701132082,3.280388070361141,0.8309259201075762,A,63,Correct
2,new_learn,46,889,B,55.65957802217093,26.35881540143083,2.782978901108547,0.41404330411232293,B,342,Correct
2,new_learn,46,890,B,25.55180184865293,46.44232621183456,1.2775900924326464,0.7295143542136008,B,69,Correct
2,new_learn,46,891,A,85.65091067904766,34.11408345743723,4.2825455339523835,0.5358627698691695,B,268,Incorrect
2,new_learn,46,892,A,85.17955842572675,40.934824641009,4.258977921286338,0.6430027218409016,A,305,Correct
2,new_learn,46,893,B,23.745636705036095,60.931300226738784,1.1872818352518046,0.9571066258299834,B,117,Correct
2,new_learn,46,894,A,71.92004043235038,43.7423442491814,3.596002021617519,0.6871031367201201,B,29,Incorrect
2,new_learn,46,895,A,70.64571396185619,61.00214734244479,3.5322856980928092,0.9582194897211335,B,155,Incorrect
2,new_learn,46,896,B,37.77337964802258,48.67017869241808,1.8886689824011291,0.7645093791450156,A,294,Incorrect
2,new_learn,46,897,A,87.73366779551881,30.81100732709683,4.386683389775941,0.4839781713425435,B,290,Incorrect
2,new_learn,46,898,A,68.44064130105187,63.56783663375377,3.4220320650525933,0.998521242865985,A,294,Correct
