experiment,condition,subject,trial,cat,x,y,xt,yt,resp,rt,fb
1,relearn,31,0,B,57.58701777389194,28.92091809418849,2.8793508886945967,0.4542887190988735,A,1147,Incorrect
1,relearn,31,1,B,73.51637247541706,48.32530147279573,3.6758186237708528,0.7590920604472354,B,899,Correct
1,relearn,31,2,B,57.456571273617065,49.37931275868977,2.8728285636808533,0.7756484310100628,B,513,Correct
1,relearn,31,3,A,62.233965320818484,85.54702868270397,3.111698266040924,1.3437695842300905,A,994,Correct
1,relearn,31,4,A,24.65807856902032,44.94779004853905,1.232903928451016,0.7060382350579335,A,801,Correct
1,relearn,31,5,A,45.28786593479964,73.51282061396938,2.264393296739982,1.1547366859275527,B,592,Incorrect
1,relearn,31,6,A,22.926003517099147,35.11662392399695,1.1463001758549574,0.5516106386925219,A,811,Correct
1,relearn,31,7,A,15.674568415005094,39.30198289803096,0.7837284207502547,0.6173541037198288,A,400,Correct
1,relearn,31,8,B,59.029506947796726,32.21565674998358,2.9514753473898363,0.5060423528815942,B,584,Correct
1,relearn,31,9,A,20.87323220798049,40.42597772889218,1.0436616103990246,0.6350097732363613,A,561,Correct
1,relearn,31,10,B,55.15790462617094,41.6567619861745,2.757895231308547,0.6543428871405218,B,649,Correct
1,relearn,31,11,B,65.176323277459,34.42435691272824,3.2588161638729503,0.5407365339079003,B,1025,Correct
1,relearn,31,12,A,25.40073134964392,49.19763160138388,1.270036567482196,0.7727945900646231,A,717,Correct
1,relearn,31,13,B,55.50258139371555,46.48512531360943,2.7751290696857773,0.7301866409321817,B,699,Correct
1,relearn,31,14,A,45.05912899632284,63.150125211186,2.252956449816142,0.9919598471836876,B,440,Incorrect
1,relearn,31,15,A,24.418494638518716,44.03044448553773,1.220924731925936,0.6916286046502927,A,564,Correct
1,relearn,31,16,A,47.413697467964134,62.769127244253724,2.370684873398207,0.9859751451139522,B,570,Incorrect
1,relearn,31,17,A,51.52579211245832,68.93185472227886,2.576289605622916,1.0827790419691508,A,881,Correct
1,relearn,31,18,A,33.59982494122103,44.593493100049535,1.6799912470610514,0.7004729516051138,B,764,Incorrect
1,relearn,31,19,B,41.92130837679535,21.04078284940461,2.0960654188397676,0.3305078441273382,B,684,Correct
1,relearn,31,20,A,46.08282555615088,63.05415915954754,2.304141277807544,0.9904524159695804,A,519,Correct
1,relearn,31,21,B,76.07906276094184,65.34102967189648,3.803953138047092,1.0263744939761135,B,1024,Correct
1,relearn,31,22,B,57.80059136168492,41.6462712946785,2.8900295680842465,0.6541780997438473,B,1007,Correct
1,relearn,31,23,A,43.97896013031468,51.02935946444072,2.198948006515734,0.8015673040543987,A,834,Correct
1,relearn,31,24,A,35.55786650923752,44.89482827062829,1.777893325461876,0.7052063133959059,A,708,Correct
1,relearn,31,25,B,40.81934440878484,14.548107139346424,2.040967220439242,0.22852113256303971,A,855,Incorrect
1,relearn,31,26,B,35.42161410575471,21.542737682157384,1.7710807052877358,0.33839253220238824,B,947,Correct
1,relearn,31,27,B,54.30061114848915,46.24691578731705,2.7150305574244578,0.7264448544431054,B,764,Correct
1,relearn,31,28,A,43.29488650856593,60.291492285732595,2.1647443254282965,0.9470565461941161,B,709,Incorrect
1,relearn,31,29,B,39.8118531196254,19.13592774378834,1.9905926559812699,0.30058645009755275,A,624,Incorrect
1,relearn,31,30,B,37.427913703367565,26.110145787196807,1.8713956851683782,0.4101372109460798,B,593,Correct
1,relearn,31,31,A,34.110358120554274,63.713987949478515,1.7055179060277137,1.0008169823649515,A,597,Correct
1,relearn,31,32,A,38.984911696268696,63.927491715221606,1.9492455848134347,1.004170691674813,B,1217,Incorrect
1,relearn,31,33,B,87.09978535998901,61.882498402362074,4.354989267999451,0.972048011833214,A,2670,Incorrect
1,relearn,31,34,B,73.9672649367664,47.84492633486032,3.69836324683832,0.75154634542571,B,583,Correct
1,relearn,31,35,B,87.3489244905783,67.48061434854179,4.367446224528915,1.0599830114855244,B,569,Correct
1,relearn,31,36,B,49.90557783100892,27.02676456666729,2.495278891550446,0.4245354250647145,B,1019,Correct
1,relearn,31,37,B,64.87183591857068,52.716277795018996,3.243591795928534,0.8280653552271521,B,837,Correct
1,relearn,31,38,B,61.419110622344206,31.807697466239837,3.0709555311172103,0.4996341434377288,B,576,Correct
1,relearn,31,39,A,33.438219674141756,55.08998526331352,1.6719109837070878,0.8653514649479785,A,738,Correct
1,relearn,31,40,A,55.86346582128191,69.8981873339291,2.7931732910640954,1.0979581591375738,B,775,Incorrect
1,relearn,31,41,A,10.859732249504923,32.5647504826777,0.5429866124752462,0.5115259044118248,A,733,Correct
1,relearn,31,42,A,49.505199257629144,78.17008536333257,2.4752599628814576,1.2278928295396632,B,1020,Incorrect
1,relearn,31,43,A,50.141453910493254,59.704890568533294,2.5070726955246627,0.9378422279674337,A,755,Correct
1,relearn,31,44,B,47.400055979010936,20.128803383351965,2.370002798950547,0.3161825041734595,B,708,Correct
1,relearn,31,45,A,12.494491784601301,32.528840564576484,0.624724589230065,0.5109618327373356,A,528,Correct
1,relearn,31,46,A,36.288728980024864,57.705796112156534,1.8144364490012432,0.906440525677507,A,863,Correct
1,relearn,31,47,A,17.065305595884045,43.0025857702815,0.8532652797942022,0.6754830377064067,A,558,Correct
1,relearn,31,48,B,41.5253154773548,16.140603710543992,2.0762657738677404,0.2535360102077458,B,769,Correct
1,relearn,31,49,B,58.70752758895829,31.968667188937214,2.9353763794479146,0.5021626499291111,A,1214,Incorrect
1,relearn,31,50,B,62.0800127059812,45.03543638251561,3.10400063529906,0.7074149804526076,B,566,Correct
1,relearn,31,51,B,34.68949192960416,12.766391691692789,1.7344745964802082,0.20053401175735916,B,694,Correct
1,relearn,31,52,A,25.15718085976016,52.605448321885426,1.257859042988008,0.8263244499341639,A,585,Correct
1,relearn,31,53,B,45.113956135058224,20.80768888705196,2.255697806752911,0.32684641272872206,B,547,Correct
1,relearn,31,54,B,69.03636015995147,50.36336542979484,3.4518180079975735,0.791105894221508,B,574,Correct
1,relearn,31,55,A,63.29671170341382,86.36318211204961,3.164835585170691,1.3565896923192624,B,1363,Incorrect
1,relearn,31,56,B,79.35631826457076,59.74010251239362,3.967815913228538,0.9383953358881846,107,945,Incorrect
1,relearn,31,57,A,28.414728511973266,39.02098772504286,1.4207364255986632,0.6129402418640607,A,637,Correct
1,relearn,31,58,A,62.40186628101439,79.84796040912528,3.12009331405072,1.2542488291271832,B,466,Incorrect
1,relearn,31,59,B,51.37569594375893,25.805968859730456,2.5687847971879467,0.40535921094248084,A,734,Incorrect
1,relearn,31,60,B,63.394038102479364,48.47433255627267,3.169701905123968,0.7614330352322737,B,3892,Correct
1,relearn,31,61,A,29.744901894518676,58.947542870171915,1.487245094725934,0.9259458381405075,A,682,Correct
1,relearn,31,62,A,50.27741360358763,66.51498053451627,2.5138706801793815,1.044814871004522,B,977,Incorrect
1,relearn,31,63,A,28.561465220851403,59.56111562549209,1.4280732610425702,0.9355838164432909,A,538,Correct
1,relearn,31,64,B,59.43618490674311,47.35392506186486,2.9718092453371554,0.7438337154649812,A,622,Incorrect
1,relearn,31,65,B,72.4950143734206,54.26189510686464,3.62475071867103,0.8523438551879294,B,653,Correct
1,relearn,31,66,B,61.0387104386739,35.50852608091071,3.0519355219336948,0.5577666233779534,B,601,Correct
1,relearn,31,67,B,38.89745972607552,22.025362080636263,1.9448729863037757,0.3459735785259104,100,637,Incorrect
1,relearn,31,68,B,59.70331128196699,41.42066353186963,2.9851655640983497,0.6506342612926814,B,592,Correct
1,relearn,31,69,A,35.90569364245588,58.63051340871209,1.795284682122794,0.9209659510050388,B,531,Incorrect
1,relearn,31,70,B,72.93413903917751,43.77566333620199,3.6467069519588757,0.6876265117151611,B,582,Correct
1,relearn,31,71,A,11.962390705846204,33.68685977530773,0.5981195352923102,0.5291519559630814,A,541,Correct
1,relearn,31,72,B,44.66851738907134,25.914184030380923,2.233425869453567,0.40705905086809324,B,2103,Correct
1,relearn,31,73,B,67.01506519539245,35.87520748204932,3.350753259769623,0.5635264413580786,B,583,Correct
1,relearn,31,74,A,26.556194926262567,50.03275686807977,1.3278097463131282,0.7859127070780183,A,561,Correct
1,relearn,31,75,B,44.55265040835512,26.54290110106241,2.2276325204177563,0.4169349155202905,B,688,Correct
1,relearn,31,76,A,35.28219725876913,65.40656771070917,1.7641098629384566,1.0274039630824365,B,602,Incorrect
1,relearn,31,77,A,47.72070910608005,69.2953523946415,2.3860354553040026,1.088488850054608,A,716,Correct
1,relearn,31,78,B,86.16003017983954,61.84058817178614,4.3080015089919765,0.971389687470776,B,612,Correct
1,relearn,31,79,B,76.29142345239218,63.864848934592885,3.8145711726196088,1.0031867011776947,B,571,Correct
1,relearn,31,80,A,22.024846674225923,52.87126162466591,1.1012423337112962,0.8304998355303719,A,529,Correct
1,relearn,31,81,B,80.09455354412157,50.41344279539937,4.004727677206079,0.7918925076409796,B,446,Correct
1,relearn,31,82,B,34.50546416717491,17.678255883730376,1.7252732083587454,0.27768939406303944,B,680,Correct
1,relearn,31,83,B,73.93812436319024,51.84013181779157,3.696906218159512,0.8143028863995024,B,693,Correct
1,relearn,31,84,A,47.23151578564395,64.93819355101215,2.3615757892821976,1.0200467589862592,B,498,Incorrect
1,relearn,31,85,B,50.66337288713652,22.156834156100494,2.533168644356826,0.3480387370580636,B,450,Correct
1,relearn,31,86,A,32.25480637678263,56.54735719500885,1.6127403188391316,0.8882438097187887,A,555,Correct
1,relearn,31,87,B,78.38658794091558,50.571984139719156,3.9193293970457783,0.7943828692540063,B,713,Correct
1,relearn,31,88,B,68.14946629780535,43.6616069897216,3.4074733148902676,0.6858349188141707,B,758,Correct
1,relearn,31,89,B,57.96964597391448,33.53817125818121,2.8984822986957237,0.5268163621976921,B,482,Correct
1,relearn,31,90,A,56.87142040827166,84.2385460314931,2.843571020413583,1.3232159868081217,B,484,Incorrect
1,relearn,31,91,B,73.29221131808745,43.608772852724506,3.6646105659043724,0.6850050021309266,B,509,Correct
1,relearn,31,92,B,56.099248071699876,27.263709921298283,2.804962403584994,0.42825735399176923,B,637,Correct
1,relearn,31,93,A,20.065506743139828,47.98435390226876,1.0032753371569914,0.7537364685331012,A,532,Correct
1,relearn,31,94,B,39.401420448345945,13.346953980224992,1.9700710224172975,0.20965346286037942,B,1541,Correct
1,relearn,31,95,A,64.37320183095707,74.63691114045534,3.218660091547854,1.1723938586274434,A,624,Correct
1,relearn,31,96,B,75.45620347809606,58.93765535678903,3.772810173904803,0.9257905254434776,B,1022,Correct
1,relearn,31,97,A,37.77575671595291,55.695790572991896,1.8887878357976455,0.8748674324999348,A,575,Correct
1,relearn,31,98,B,53.338275432850594,36.8253952239332,2.6669137716425295,0.578451955505246,B,1555,Correct
1,relearn,31,99,A,41.18585559864412,66.6678173191673,2.0592927799322056,1.0472156256038119,B,555,Incorrect
1,relearn,31,100,B,38.988383549878435,23.695075821286135,1.9494191774939218,0.3722013806320283,A,589,Incorrect
1,relearn,31,101,A,37.59589189769134,52.674636759773534,1.879794594884567,0.827411259375077,B,509,Incorrect
1,relearn,31,102,A,58.55531649348498,69.58074956434952,2.927765824674249,1.0929718583131582,B,580,Incorrect
1,relearn,31,103,B,68.09224380504541,49.93049574510224,3.404612190252271,0.7843063931145481,B,708,Correct
1,relearn,31,104,A,29.269874889831875,55.26738944613817,1.4634937444915936,0.8681381233353687,A,484,Correct
1,relearn,31,105,B,58.56672822800989,49.59623273049954,2.9283364114004944,0.779055801959335,A,1030,Incorrect
1,relearn,31,106,A,40.350916642277355,69.50462555490996,2.0175458321138677,1.0917761051690726,A,623,Correct
1,relearn,31,107,B,61.3798611673903,39.039134503734424,3.068993058369515,0.6132252907971795,B,669,Correct
1,relearn,31,108,B,74.2308396196169,63.43918638869731,3.7115419809808454,0.9965004095422253,B,944,Correct
1,relearn,31,109,B,60.45437091220119,45.72880201604203,3.0227185456100596,0.7183063423552988,B,974,Correct
1,relearn,31,110,A,57.81538157207876,81.23637548662558,2.890769078603938,1.2760580021652244,B,583,Incorrect
1,relearn,31,111,A,42.42210830186911,56.37147582070314,2.1211054150934556,0.8854810715516782,B,706,Incorrect
1,relearn,31,112,A,51.827215532138986,80.38026241863108,2.5913607766069493,1.2626102095399556,B,600,Incorrect
1,relearn,31,113,A,58.03917594310677,76.11731260170178,2.9019587971553387,1.1956479504025206,A,623,Correct
1,relearn,31,114,A,41.03181506696134,48.52239291944859,2.051590753348067,0.7621879656516855,A,641,Correct
1,relearn,31,115,A,51.744789182781275,72.32808302003835,2.587239459139064,1.1361268713199257,A,638,Correct
1,relearn,31,116,A,35.69322693206476,52.54666130296952,1.784661346603238,0.8254010256004006,A,570,Correct
1,relearn,31,117,B,84.6592062411738,59.435901246485386,4.23296031205869,0.9336169535772346,B,738,Correct
1,relearn,31,118,A,49.998354303245655,71.00633372713321,2.4999177151622827,1.1153648819775341,A,741,Correct
1,relearn,31,119,A,60.831067055051,75.13906915334455,3.0415533527525502,1.1802817382486133,B,549,Incorrect
1,relearn,31,120,B,47.285746432165,21.499180773513206,2.3642873216082503,0.3377083418813401,107,736,Incorrect
1,relearn,31,121,A,54.69130268975947,65.27798819639354,2.7345651344879736,1.0253842407945557,B,583,Incorrect
1,relearn,31,122,A,48.664448278739364,76.5822435256474,2.4332224139369685,1.2029510682779918,A,648,Correct
1,relearn,31,123,B,55.898015521770084,33.12258258389656,2.7949007760885043,0.5202883105674533,B,911,Correct
1,relearn,31,124,B,57.27250177669768,47.1368769351634,2.863625088834884,0.7404243314633774,A,921,Incorrect
1,relearn,31,125,B,64.80837633369079,37.888411871788584,3.240418816684539,0.5951497819629765,B,564,Correct
1,relearn,31,126,A,50.404230602845054,72.62208661069262,2.5202115301422525,1.140745068922568,A,831,Correct
1,relearn,31,127,B,80.41164318940442,56.587345548656174,4.02058215947022,0.8888719453090265,B,758,Correct
1,relearn,31,128,B,71.5539563860831,41.20417524804744,3.577697819304155,0.6472336712824611,A,2411,Incorrect
1,relearn,31,129,A,23.922867943010104,41.99162276533279,1.196143397150505,0.659602867959417,A,284,Correct
1,relearn,31,130,A,46.37693574024817,64.51598874767227,2.3188467870124088,1.0134147814438448,A,2501,Correct
1,relearn,31,131,B,52.34661598259499,22.503537281815667,2.61733079912975,0.35348473702168065,A,1183,Incorrect
1,relearn,31,132,B,38.05191015588988,27.180057477277153,1.902595507794494,0.42694334447381116,A,468,Incorrect
1,relearn,31,133,B,81.94024506197817,57.59022976684778,4.097012253098909,0.904625213770386,B,623,Correct
1,relearn,31,134,B,64.42784385998829,36.900807888887016,3.2213921929994145,0.5796365348762785,B,1045,Correct
1,relearn,31,135,B,43.52022863091159,33.54216746697324,2.1760114315455796,0.5268791344986086,A,1078,Incorrect
1,relearn,31,136,A,47.95911703133248,60.771424663562605,2.397955851566624,0.9545953063561693,107,1297,Incorrect
1,relearn,31,137,A,46.66285387218049,60.1724414819722,2.333142693609025,0.9451865005416279,A,850,Correct
1,relearn,31,138,A,23.749874159224987,36.43966833344902,1.1874937079612493,0.5723929716780602,A,658,Correct
1,relearn,31,139,A,42.72682496078463,68.05292186198247,2.1363412480392316,1.0689727968846217,A,1340,Correct
1,relearn,31,140,A,67.51448675802342,89.38681812655119,3.375724337901171,1.4040848557707009,A,6363,Correct
1,relearn,31,141,A,38.52183571483789,68.23871421692454,1.9260917857418947,1.0718912163715175,A,669,Correct
1,relearn,31,142,A,28.34824561770902,58.71773581934019,1.4174122808854508,0.9223360374273272,A,704,Correct
1,relearn,31,143,A,17.076055362427407,45.15693552984718,0.8538027681213705,0.7093234845959792,A,675,Correct
1,relearn,31,144,A,45.78248722317539,55.89290373647417,2.2891243611587693,0.8779636788315437,A,969,Correct
1,relearn,31,145,A,14.046906944401762,34.58989192571216,0.7023453472200881,0.5433367518114112,A,629,Correct
1,relearn,31,146,B,80.90161603411374,60.46700042170047,4.045080801705687,0.9498134215471256,B,742,Correct
1,relearn,31,147,B,54.69193896226878,24.519121640584164,2.7345969481134387,0.3851454620926686,A,1699,Incorrect
1,relearn,31,148,A,28.00153211259456,42.69009456143347,1.400076605629728,0.6705744372762649,A,515,Correct
1,relearn,31,149,A,49.20313514951624,63.28231716231875,2.4601567574758123,0.9940363134963993,B,622,Incorrect
1,relearn,31,150,B,40.9751159519943,32.64635729519868,2.048755797599715,0.5128077812253186,A,669,Incorrect
1,relearn,31,151,A,33.34071849007697,41.27784399893383,1.6670359245038486,0.6483908573153804,B,577,Incorrect
1,relearn,31,152,B,45.79312537658095,29.310645813036103,2.2896562688290474,0.4604105477910332,A,857,Incorrect
1,relearn,31,153,B,45.58369268075773,18.666962439088287,2.2791846340378865,0.2932199603173818,B,601,Correct
1,relearn,31,154,B,83.14831673747247,58.235462730641885,4.157415836873623,0.9147605094649337,A,922,Incorrect
1,relearn,31,155,B,76.77566275711624,56.62136683521505,3.838783137855812,0.8894063504286218,B,624,Correct
1,relearn,31,156,A,23.225755825213717,44.08620175152333,1.161287791260686,0.6925044377363159,A,646,Correct
1,relearn,31,157,B,39.11975330749358,25.845036332235807,1.955987665374679,0.40597288136556653,A,591,Incorrect
1,relearn,31,158,B,57.502507322531635,27.1345140432164,2.8751253661265816,0.42622794988448853,B,1943,Correct
1,relearn,31,159,A,36.996910588199334,47.350000207425786,1.8498455294099667,0.7437720639956201,A,583,Correct
1,relearn,31,160,A,31.769574958819717,55.19317152882326,1.5884787479409856,0.8669723110163623,A,512,Correct
1,relearn,31,161,B,46.39208540956643,33.016464464357306,2.319604270478321,0.5186214110436669,A,536,Incorrect
1,relearn,31,162,A,59.12610757834953,70.08967003089353,2.956305378917477,1.1009659623079389,B,452,Incorrect
1,relearn,31,163,B,65.57556980457741,41.81178999297138,3.278778490228871,0.6567780613767905,A,294,Incorrect
1,relearn,31,164,B,79.14708020904769,56.88169033436802,3.957354010452384,0.8934955023911004,B,535,Correct
1,relearn,31,165,A,62.42243562267321,76.42286716369128,3.1211217811336605,1.2004475902386058,B,727,Incorrect
1,relearn,31,166,B,66.64751906390346,33.91377759405873,3.3323759531951733,0.5327163727248652,B,643,Correct
1,relearn,31,167,B,69.6995848629087,59.62307437860679,3.4849792431454345,0.9365570622613445,B,565,Correct
1,relearn,31,168,B,56.23053746103922,34.48706055233619,2.8115268730519607,0.5417214803756285,A,718,Incorrect
1,relearn,31,169,A,30.563676568983073,63.59839021008467,1.5281838284491536,0.999001177320695,B,581,Incorrect
1,relearn,31,170,B,63.415661318159316,49.33596404210132,3.1707830659079654,0.7749675109621784,B,522,Correct
1,relearn,31,171,B,63.93383585089321,48.86312855564791,3.1966917925446605,0.7675402285091855,B,702,Correct
1,relearn,31,172,A,57.886121309897355,79.44247899015375,2.8943060654948676,1.2478795418921425,A,1397,Correct
1,relearn,31,173,B,32.38408657435343,16.404631205088958,1.6192043287176716,0.2576833443937867,A,530,Incorrect
1,relearn,31,174,B,48.58770948214004,39.67624783425707,2.429385474107002,0.6232330435905498,B,1131,Correct
1,relearn,31,175,A,61.50296043765635,74.59901615499926,3.0751480218828173,1.1717986055878598,B,1290,Incorrect
1,relearn,31,176,A,31.667902423928595,62.29961470021649,1.5833951211964297,0.978600059318374,A,868,Correct
1,relearn,31,177,A,19.65937611541016,45.708435794123375,0.9829688057705082,0.7179864304894937,A,504,Correct
1,relearn,31,178,A,37.73080584461415,63.95632638895364,1.8865402922307077,1.004623625670639,A,524,Correct
1,relearn,31,179,A,58.41251885455394,73.23714133725748,2.9206259427276966,1.1504063259752275,A,565,Correct
1,relearn,31,180,B,86.48495781152887,68.49606697498615,4.324247890576443,1.0759337040420547,B,983,Correct
1,relearn,31,181,B,77.16587167658344,51.78760489936781,3.858293583829172,0.8134777954943233,B,499,Correct
1,relearn,31,182,A,40.95310533778242,68.87459488943193,2.047655266889121,1.0818796066180623,A,544,Correct
1,relearn,31,183,B,69.20115158969337,59.90290135189626,3.4600575794846686,0.940952574079157,A,765,Incorrect
1,relearn,31,184,A,28.843272336012284,42.22972494809229,1.4421636168006142,0.6633429683002218,A,518,Correct
1,relearn,31,185,A,53.910833277044496,77.05015821184253,2.6955416638522247,1.210301054981279,107,653,Incorrect
1,relearn,31,186,B,71.28580383700915,56.6086657241468,3.564290191850458,0.8892068418424997,B,480,Correct
1,relearn,31,187,A,63.112572277802805,76.34731508084252,3.15562861389014,1.1992608208964004,B,1563,Incorrect
1,relearn,31,188,A,59.95800780443493,80.6316006565074,2.9979003902217465,1.2665582213483482,A,1006,Correct
1,relearn,31,189,B,74.15144230568065,63.02803156892878,3.707572115284032,0.9900420047358611,107,1371,Incorrect
1,relearn,31,190,A,22.465457700748022,44.74233276167338,1.123272885037401,0.702810919542715,A,446,Correct
1,relearn,31,191,B,55.859105980083704,26.414923356883925,2.792955299004185,0.4149246458156199,B,927,Correct
1,relearn,31,192,B,54.25543459555342,35.59416885532724,2.712771729777671,0.5591118969326533,B,1328,Correct
1,relearn,31,193,B,81.90701477189924,50.89853056226562,4.095350738594962,0.7995122484646462,B,1575,Correct
1,relearn,31,194,A,28.105065752988104,45.021898582641896,1.4052532876494053,0.7072023291894626,A,481,Correct
1,relearn,31,195,A,43.74264422819878,66.19602733334139,2.187132211409939,1.0398047658362723,A,476,Correct
1,relearn,31,196,A,36.67899820499295,45.62881391178557,1.8339499102496475,0.7167357328864065,A,488,Correct
1,relearn,31,197,A,51.76559342744828,60.74405745411334,2.5882796713724137,0.9541654232353939,B,1667,Incorrect
1,relearn,31,198,B,79.72129680240361,51.00051530830174,3.986064840120181,0.8011142211092728,B,684,Correct
1,relearn,31,199,A,20.44726317593699,46.340516888989,1.0223631587968496,0.7279151371100079,A,448,Correct
1,relearn,31,200,A,23.526699042768165,46.10426813726648,1.1763349521384083,0.724204150395852,A,880,Correct
1,relearn,31,201,B,51.56276631513524,32.65355798205543,2.578138315756762,0.5129208893499685,B,729,Correct
1,relearn,31,202,A,42.63027329040804,67.46737759726673,2.1315136645204023,1.0597750890827087,A,634,Correct
1,relearn,31,203,A,51.56540169042085,63.567613613527044,2.5782700845210424,0.9985177396724554,A,625,Correct
1,relearn,31,204,B,76.25241384620031,52.47484792044061,3.8126206923100154,0.8242729836254892,B,1110,Correct
1,relearn,31,205,B,38.96194974475974,16.484189517992178,1.9480974872379873,0.2589330434505305,107,752,Incorrect
1,relearn,31,206,B,66.91843002926068,56.63831694559165,3.3459215014630335,0.889672602139805,B,353,Correct
1,relearn,31,207,B,65.68118500676431,38.886849660445534,3.284059250338215,0.6108332060725321,A,1005,Incorrect
1,relearn,31,208,A,49.302698178784226,63.14874486064262,2.4651349089392114,0.9919381646880555,B,251,Incorrect
1,relearn,31,209,A,39.798572061203785,71.81057187994324,1.9899286030601895,1.1279978253405571,B,414,Incorrect
1,relearn,31,210,A,39.48979890704702,53.1558777801348,1.974489945352351,0.834970575645942,B,536,Incorrect
1,relearn,31,211,A,21.38603322323738,43.50297353210607,1.0693016611618689,0.6833431102888782,A,438,Correct
1,relearn,31,212,A,27.316779762358827,52.749917467627945,1.3658389881179414,0.8285937659688393,A,434,Correct
1,relearn,31,213,B,71.99524856540833,51.72059310128266,3.599762428270417,0.8124251766314827,A,695,Incorrect
1,relearn,31,214,B,64.14926011946253,48.92756736671019,3.207463005973126,0.7685524309863823,B,452,Correct
1,relearn,31,215,A,65.1233101416517,85.21720588681376,3.256165507082585,1.3385887398673149,B,410,Incorrect
1,relearn,31,216,B,78.11896963188747,59.20932380225277,3.9059484815943732,0.9300578834058828,A,546,Incorrect
1,relearn,31,217,A,44.60572061490322,55.655580454268105,2.230286030745161,0.8742358134320217,A,657,Correct
1,relearn,31,218,B,74.46925286329757,53.06155421205854,3.7234626431648787,0.8334889445032984,B,528,Correct
1,relearn,31,219,B,79.62511106548845,63.44292217177379,3.9812555532744227,0.9965590910855676,B,689,Correct
1,relearn,31,220,B,50.40574378229628,33.93805920372214,2.5202871891148138,0.5330977873575448,B,749,Correct
1,relearn,31,221,A,45.630198546974974,67.44227253464474,2.2815099273487487,1.059380739681203,A,944,Correct
1,relearn,31,222,B,62.11141529857145,35.8467477628862,3.1055707649285726,0.5630793971348482,B,541,Correct
1,relearn,31,223,A,23.193976912511083,43.569267784326286,1.1596988456255541,0.6843844579676295,A,462,Correct
1,relearn,31,224,A,54.55412974361906,73.74174056119233,2.727706487180953,1.1583325520498315,B,1643,Incorrect
1,relearn,31,225,B,56.94389115536426,28.763601043269745,2.847194557768213,0.45181758864161964,B,723,Correct
1,relearn,31,226,B,58.14062781771494,39.19154475908472,2.9070313908857472,0.6156193454898806,A,1320,Incorrect
1,relearn,31,227,B,35.85352051395682,15.418697935018901,1.7926760256978411,0.2421963408028775,B,360,Correct
1,relearn,31,228,B,65.21540807457993,38.794084885625466,3.2607704037289964,0.6093760603970989,A,1623,Incorrect
1,relearn,31,229,B,45.01007854908005,20.352745981945148,2.2505039274540026,0.31970018628629027,B,298,Correct
1,relearn,31,230,B,45.08253703796233,24.263082058798492,2.254126851898117,0.38112360174683824,A,835,Incorrect
1,relearn,31,231,B,73.15509647243537,46.61571824772961,3.6577548236217687,0.7322379899443949,B,280,Correct
1,relearn,31,232,B,53.954790842824465,37.82979996287307,2.6977395421412234,0.5942291082506674,B,437,Correct
1,relearn,31,233,B,73.45502704301947,45.52868382170847,3.6727513521509736,0.7151628931094589,B,604,Correct
1,relearn,31,234,A,54.03233268323405,69.94227166580255,2.7016166341617027,1.0986506342033342,B,575,Incorrect
1,relearn,31,235,A,14.68217994669433,32.96431176699423,0.7341089973347166,0.5178021983891632,B,275,Incorrect
1,relearn,31,236,B,76.63112799411435,55.97736574009937,3.831556399705718,0.8792904048820258,B,496,Correct
1,relearn,31,237,A,36.843919089061494,44.388716389357675,1.8421959544530748,0.6972563265554346,A,602,Correct
1,relearn,31,238,B,72.92369188550646,57.342877320837225,3.646184594275323,0.9007398106342149,B,668,Correct
1,relearn,31,239,A,21.823420028895303,50.631117347686406,1.091171001444765,0.7953117315126716,A,774,Correct
1,relearn,31,240,A,46.543228676786704,65.778809446197,2.327161433839335,1.033251122590277,A,602,Correct
1,relearn,31,241,B,59.28154357634438,49.98139780536722,2.964077178817219,0.7851059608074534,B,666,Correct
1,relearn,31,242,B,50.60585581826436,28.406749608448443,2.530292790913218,0.44621217941133184,107,607,Incorrect
1,relearn,31,243,B,42.954747411571006,20.180958466780282,2.1477373705785503,0.3170017543081884,A,1228,Incorrect
1,relearn,31,244,B,48.39549535844422,36.08338875201972,2.4197747679222115,0.5667965450998487,B,811,Correct
1,relearn,31,245,B,52.4496642371801,25.828022448134462,2.6224832118590053,0.40570562789905745,B,691,Correct
1,relearn,31,246,B,73.91637050666361,48.79008188644308,3.6958185253331806,0.7663928141124702,A,1208,Incorrect
1,relearn,31,247,B,33.614773632536156,14.063430741228128,1.6807386816268077,0.22090785350455575,A,834,Incorrect
1,relearn,31,248,A,60.91619874802621,71.89798815118482,3.0458099374013106,1.129370956918241,B,511,Incorrect
1,relearn,31,249,A,44.17351534100365,71.14488568781684,2.2086757670501824,1.1175412510866551,A,580,Correct
1,relearn,31,250,B,71.04296247029691,38.494706993380525,3.5521481235148458,0.6046734434624795,B,536,Correct
1,relearn,31,251,A,36.869508764744964,63.02814125440457,1.8434754382372482,0.9900437276712858,A,819,Correct
1,relearn,31,252,A,15.483664328381337,43.73853983187552,0.7741832164190668,0.6870433770728235,A,625,Correct
1,relearn,31,253,A,28.629117854879446,57.15225177786399,1.4314558927439722,0.8977454716072585,A,656,Correct
1,relearn,31,254,A,51.303148444053576,77.2871006038355,2.565157422202679,1.2140229373713243,B,601,Incorrect
1,relearn,31,255,A,37.98570068166102,70.26690177862733,1.8992850340830512,1.103749912091256,A,661,Correct
1,relearn,31,256,B,80.47569434304663,50.51663128139158,4.023784717152331,0.7935133885886205,B,1716,Correct
1,relearn,31,257,B,67.0408495993217,48.29649277471124,3.352042479966085,0.7586395344759268,B,608,Correct
1,relearn,31,258,A,51.60735401397693,65.40948464412503,2.5803677006988464,1.0274497821653878,B,472,Incorrect
1,relearn,31,259,B,64.27884451320138,40.252996618851725,3.2139422256600687,0.6322925923137969,A,739,Incorrect
1,relearn,31,260,A,38.319228114042915,66.777355762304,1.9159614057021457,1.0489362514450313,A,778,Correct
1,relearn,31,261,A,26.67403030491417,49.30985429937553,1.3337015152457083,0.7745573800825061,A,731,Correct
1,relearn,31,262,A,31.86676359572929,47.816477438450306,1.5933381797864643,0.7510994712058879,A,684,Correct
1,relearn,31,263,B,60.815577608984235,34.913892251317705,3.0407788804492117,0.5484261370248266,A,1720,Incorrect
1,relearn,31,264,B,40.08364425212709,27.501673186672043,2.0041822126063544,0.4319952722233814,A,476,Incorrect
1,relearn,31,265,A,46.21710625443674,75.53966493888508,2.310855312721837,1.186574282133179,A,668,Correct
1,relearn,31,266,A,39.51885392024594,51.280592235755286,1.9759426960122968,0.8055136591979131,A,772,Correct
1,relearn,31,267,A,28.766745772377497,56.40237898167335,1.438337288618875,0.8859664972690617,A,1287,Correct
1,relearn,31,268,B,35.705912111351125,25.27899300169804,1.7852956055675562,0.3970814935214117,A,1264,Incorrect
1,relearn,31,269,B,73.49199750357359,57.82231456969916,3.6745998751786795,0.9082707933286247,B,577,Correct
1,relearn,31,270,A,32.38038028339422,58.81910730741217,1.619019014169711,0.9239283770383789,A,3002,Correct
1,relearn,31,271,A,21.68145971142656,49.075969198017845,1.0840729855713278,0.7708835215014591,A,574,Correct
1,relearn,31,272,A,67.00448926417552,82.09123621594765,3.3502244632087756,1.2894861231006276,B,673,Incorrect
1,relearn,31,273,B,64.05525778507905,33.15548699815897,3.2027628892539526,0.5208051718980407,B,1697,Correct
1,relearn,31,274,A,68.4227825868106,82.32898524114248,3.42113912934053,1.2932206760553786,B,615,Incorrect
1,relearn,31,275,A,26.587884369299204,36.74941677247068,1.3293942184649603,0.5772584887805172,A,908,Correct
1,relearn,31,276,B,72.9850033320659,57.82427182362391,3.649250166603295,0.9083015378013807,B,641,Correct
1,relearn,31,277,A,61.53413223243916,81.04915795013157,3.076706611621958,1.2731171959788605,B,1371,Incorrect
1,relearn,31,278,B,31.746195180783914,10.351340082986134,1.5873097590391956,0.162598469797594,A,657,Incorrect
1,relearn,31,279,B,65.75934794827555,55.031180115384466,3.2879673974137775,0.8644277558443428,B,510,Correct
1,relearn,31,280,A,62.93445871595637,83.11582857757446,3.146722935797818,1.3055803822816825,B,933,Incorrect
1,relearn,31,281,B,66.74499241479589,56.278728016802376,3.3372496207397946,0.884024192454822,B,529,Correct
1,relearn,31,282,B,68.54960143839088,51.109014070099335,3.427480071919544,0.8028185156742074,B,457,Correct
1,relearn,31,283,B,73.02833088322242,42.08422096785914,3.6514165441611213,0.661057397123379,B,631,Correct
1,relearn,31,284,B,38.72846112476856,13.040771136454552,1.936423056238428,0.20484395399715719,A,583,Incorrect
1,relearn,31,285,A,35.18687272974647,43.98795207264618,1.7593436364873236,0.6909611353894258,A,854,Correct
1,relearn,31,286,A,23.922035819363426,34.964178965547276,1.1961017909681713,0.5492160388848104,A,689,Correct
1,relearn,31,287,B,78.99003172390547,47.698596920304695,3.949501586195274,0.7492478083568498,B,2537,Correct
1,relearn,31,288,B,80.06890549455795,66.76098681535407,4.0034452747278975,1.048679128627607,B,375,Correct
1,relearn,31,289,B,39.78079942591513,14.604033131734127,1.9890399712957563,0.2293996159971894,A,705,Incorrect
1,relearn,31,290,B,70.82976652114469,59.712308540513135,3.5414883260572343,0.9379587491988156,B,661,Correct
1,relearn,31,291,A,33.57510099539666,65.35953890653754,1.6787550497698331,1.026665236353973,A,679,Correct
1,relearn,31,292,A,24.321963102488795,49.09634216781825,1.2160981551244396,0.771203539362743,A,723,Correct
1,relearn,31,293,B,57.9414366697433,26.50804646998938,2.897071833487165,0.4163874202556775,B,608,Correct
1,relearn,31,294,A,23.240932744357053,53.71206153336505,1.1620466372178526,0.8437070896119128,A,740,Correct
1,relearn,31,295,B,30.538410361200132,12.91246761635269,1.5269205180600065,0.20282856701624857,A,672,Incorrect
1,relearn,31,296,B,79.05741102772649,65.00064332809339,3.9528705513863245,1.021027717790743,B,687,Correct
1,relearn,31,297,A,45.69038045789496,60.5085751995135,2.284519022894748,0.9504664766298857,A,1069,Correct
1,relearn,31,298,B,36.939673514345856,18.81742770073659,1.8469836757172928,0.29558346312045575,A,1072,Incorrect
1,relearn,31,299,A,40.93976900481049,64.37740706707912,2.0469884502405247,1.011237945495477,B,606,Incorrect
1,relearn,31,300,A,35.992010059507194,52.07554831845826,1.79960050297536,0.8180008001446438,A,768,Correct
1,relearn,31,301,A,62.1228276553638,74.37995641885618,3.10614138276819,1.1683576232990378,B,542,Correct
1,relearn,31,302,B,86.17000073201298,65.15252674109516,4.308500036600649,1.0234134968631856,B,604,Correct
1,relearn,31,303,A,51.75895496146949,81.77830110025795,2.5879477480734745,1.2845705497981224,B,614,Correct
1,relearn,31,304,A,46.13019634452617,59.304643212584004,2.306509817226308,0.9315551572020885,A,686,Correct
1,relearn,31,305,A,32.2988302899555,60.29130242265614,1.614941514497775,0.9470535638318852,A,658,Incorrect
1,relearn,31,306,A,23.387676507011655,37.744150483847164,1.1693838253505828,0.5928837293802094,A,672,Incorrect
1,relearn,31,307,A,21.34206465339918,52.29759464777797,1.067103232669959,0.8214886957293808,B,565,Incorrect
1,relearn,31,308,A,50.19758206247436,58.401680940595874,2.509879103123718,0.9173714590013552,B,594,Correct
1,relearn,31,309,A,42.02688728895755,62.41965881116776,2.1013443644478773,0.9804857078037301,B,2193,Incorrect
1,relearn,31,310,A,18.853575921031265,44.22183616027104,0.9426787960515632,0.6946349780467947,A,552,Correct
1,relearn,31,311,B,77.2224703298744,55.843009661201066,3.86112351649372,0.8771799445298656,B,481,Correct
1,relearn,31,312,B,47.51755330779824,35.88753418576688,2.375877665389912,0.563720068767289,A,814,Incorrect
1,relearn,31,313,A,24.95605843277745,48.373145123285084,1.2478029216388726,0.7598435867517267,A,656,Incorrect
1,relearn,31,314,A,30.907053322155758,58.81256104418822,1.5453526661077879,0.9238255485761149,B,495,Incorrect
1,relearn,31,315,A,58.321061542510755,80.92063941908992,2.9160530771255377,1.2710984316140077,B,617,Incorrect
1,relearn,31,316,A,60.403713204231934,87.86575001707185,3.020185660211597,1.380191973778951,B,597,Correct
1,relearn,31,317,A,48.30017011262548,70.87098846513734,2.415008505631274,1.113238883573612,B,1986,Correct
1,relearn,31,318,B,62.98619852813509,49.74643950805515,3.1493099264067546,0.7814152445037755,B,642,Correct
1,relearn,31,319,B,66.79161328774804,57.09086195048436,3.3395806643874018,0.8967811624537535,B,848,Incorrect
1,relearn,31,320,B,57.24421864780408,32.57310212560187,2.8622109323902043,0.5116570917121046,A,950,Correct
1,relearn,31,321,B,71.86652299414493,53.08111385319671,3.5933261497072464,0.833796186627831,B,552,Incorrect
1,relearn,31,322,A,48.55502470834156,62.400099969503025,2.427751235417078,0.9801784782372969,B,803,Incorrect
1,relearn,31,323,A,57.95066781472154,84.8387917229978,2.8975333907360774,1.332644624082022,A,656,Correct
1,relearn,31,324,B,47.97771064758176,28.478830892849402,2.3988855323790883,0.44734442957900866,A,440,Correct
1,relearn,31,325,A,28.378246942728286,39.24973078504125,1.4189123471364145,0.6165333294483137,A,594,Correct
1,relearn,31,326,A,34.45938684211232,66.35401721934352,1.7229693421056163,1.0422864651623012,A,549,Incorrect
1,relearn,31,327,A,68.59850958313818,84.3918927430858,3.429925479156909,1.3256247513210808,A,970,Incorrect
1,relearn,31,328,B,53.81421352390439,36.64124471149613,2.6907106761952195,0.5755593260201105,B,651,Incorrect
1,relearn,31,329,B,70.38645330572854,44.90174312039208,3.5193226652864267,0.7053149316019989,B,668,Incorrect
1,relearn,31,330,A,39.267249434597744,49.44291891274062,1.9633624717298872,0.7766475541415089,A,705,Correct
1,relearn,31,331,B,80.28026143178974,62.4205976496639,4.0140130715894875,0.980500455044342,B,1604,Correct
1,relearn,31,332,B,47.48293116780367,34.51276609941888,2.3741465583901835,0.542125262164986,A,693,Incorrect
1,relearn,31,333,A,56.473627195263305,76.01293077223396,2.823681359763165,1.1940083244593984,A,675,Incorrect
1,relearn,31,334,A,25.030359308960456,54.90296396977387,1.2515179654480229,0.8624137413387334,A,613,Correct
1,relearn,31,335,A,27.69871357197235,50.039308798513645,1.3849356785986173,0.7860156245606078,B,785,Correct
1,relearn,31,336,B,54.14606271335382,33.70527193385412,2.707303135667691,0.5294411734732117,A,2949,Incorrect
1,relearn,31,337,A,64.90791268375267,78.22936987687628,3.2453956341876333,1.2288240685007659,B,549,Correct
1,relearn,31,338,A,68.4214049493381,86.9643673354879,3.421070247466905,1.366033087726265,A,780,Correct
1,relearn,31,339,A,45.25663498019432,54.970694237988056,2.262831749009716,0.8634776459039702,A,576,Correct
1,relearn,31,340,A,33.8330431975138,47.39021359942651,1.6916521598756902,0.7444037344800472,A,713,Correct
1,relearn,31,341,B,65.61201935085093,42.687636851741196,3.2806009675425463,0.6705358316626953,B,780,Incorrect
1,relearn,31,342,A,29.370678963294996,52.186421403101065,1.4685339481647497,0.8197423904856171,A,580,Incorrect
1,relearn,31,343,A,48.620685989583016,59.756502285687304,2.4310342994791507,0.9386529429246846,B,625,Incorrect
1,relearn,31,344,A,47.98541098348392,61.082718010437276,2.399270549174196,0.9594850908144335,A,377,Incorrect
1,relearn,31,345,A,31.746917589811552,61.55499219093785,1.5873458794905775,0.9669035562941373,B,930,Incorrect
1,relearn,31,346,B,64.88227145441842,43.46588152236567,3.2441135727209205,0.6827604703623416,A,589,Correct
1,relearn,31,347,B,44.122725725670286,18.236044255668663,2.206136286283514,0.2864511133207351,A,673,Correct
1,relearn,31,348,A,43.606851908807855,74.8114971537736,2.180342595440393,1.1751362493117443,B,1119,Correct
1,relearn,31,349,B,78.67132831175421,50.946441069908865,3.933566415587711,0.8002648249588551,A,1512,Incorrect
1,relearn,31,350,A,23.9730540750878,49.11664766497376,1.19865270375439,0.771522497366199,A,410,Correct
1,relearn,31,351,B,88.04862567628709,64.06979385300669,4.402431283814354,1.0064059684280915,B,582,Correct
1,relearn,31,352,A,35.50639042451783,48.264483580536734,1.7753195212258917,0.7581367352295969,A,765,Incorrect
1,relearn,31,353,A,29.01184833834384,53.110628577023185,1.450592416917192,0.8342598028255607,B,573,Incorrect
1,relearn,31,354,B,67.20107299690869,42.36511853049774,3.3600536498454345,0.6654697257193625,A,378,Incorrect
1,relearn,31,355,A,47.753496373176546,60.10538853084775,2.3876748186588275,0.9441332352483575,B,386,Incorrect
1,relearn,31,356,A,53.01250552857201,65.98279391558397,2.6506252764286002,1.0364553031426396,A,447,Incorrect
1,relearn,31,357,A,41.27733815650769,71.3830475135023,2.063866907825384,1.1212822882963498,A,1068,Correct
1,relearn,31,358,A,35.78852359923,68.41725183156359,1.7894261799614997,1.074695678664215,A,261,Incorrect
1,relearn,31,359,B,44.84504448221727,32.26311018138605,2.2422522241108633,0.5067877496390023,A,580,Correct
1,relearn,31,360,B,84.06661589049614,66.47737605651298,4.203330794524806,1.0442241812453361,B,700,Incorrect
1,relearn,31,361,B,53.94085077687985,34.36777661354486,2.6970425388439923,0.5398477726466382,A,983,Correct
1,relearn,31,362,B,83.13917638896928,66.401691947397,4.156958819448464,1.0430353380393746,B,600,Correct
1,relearn,31,363,B,81.70253624364327,51.07205932179238,4.085126812182164,0.8022380318452255,A,1876,Incorrect
1,relearn,31,364,B,36.77447708844704,24.520190139447376,1.838723854422352,0.3851622460335638,B,1125,Correct
1,relearn,31,365,A,48.48903272769722,66.95318819517705,2.424451636384861,1.0516982208419154,B,3745,Correct
1,relearn,31,366,B,70.94601939318824,39.91615036205604,3.5473009696594118,0.627001423685104,A,1772,Correct
1,relearn,31,367,B,55.56366844357054,38.755524741588246,2.778183422178527,0.6087703590709554,A,1708,Correct
1,relearn,31,368,B,45.73602872381872,16.368088098845497,2.286801436190936,0.25710932662321767,B,1468,Incorrect
1,relearn,31,369,B,45.019093923234095,30.49469943198944,2.250954696161705,0.47900961854483426,A,1012,Correct
1,relearn,31,370,B,75.23382141365123,58.24629941822474,3.7616910706825615,0.9149307317554314,A,589,Correct
1,relearn,31,371,A,38.387290374555306,64.63822448469729,1.9193645187277653,1.0153348559110644,B,3278,Correct
1,relearn,31,372,B,50.66025312732032,31.717501644411765,2.533012656366016,0.49821735078153095,A,977,Incorrect
1,relearn,31,373,A,33.33327624983695,45.813833209241835,1.6666638124918476,0.7196420092147112,B,1388,Correct
1,relearn,31,374,A,26.390679073447,37.62141768411233,1.31953395367235,0.5909558470702021,A,532,Correct
1,relearn,31,375,B,48.27302970932343,26.86065644038659,2.4136514854661715,0.42192620471858944,107,2276,Incorrect
1,relearn,31,376,A,49.8707978433859,74.31586433526745,2.493539892169295,1.1673508672042596,B,3224,Correct
1,relearn,31,377,A,27.28316309779408,45.97920626372856,1.364158154889704,0.7222396830800971,B,1542,Correct
1,relearn,31,378,B,72.911083167198,63.11317296096344,3.6455541583599,0.9913794025945236,A,1396,Correct
1,relearn,31,379,A,38.62757253301406,63.5202702650323,1.9313786266507031,0.9977740720933183,B,1009,Correct
1,relearn,31,380,B,66.45138096257051,50.52398350647778,3.3225690481285257,0.7936288770702123,A,717,Correct
1,relearn,31,381,B,57.69826160865964,25.776731588843553,2.884913080432982,0.4048999529653344,B,828,Incorrect
1,relearn,31,382,B,37.69604275982359,11.208842947118285,1.8848021379911797,0.17606809328954284,A,1067,Correct
1,relearn,31,383,A,30.60717829773363,44.18001941088774,1.5303589148866814,0.6939781220834969,B,937,Correct
1,relearn,31,384,B,86.28525643268912,57.872309738691655,4.314262821634457,0.9090561156067338,A,509,Correct
1,relearn,31,385,B,50.55285085437911,29.1128108731083,2.5276425427189553,0.45730296382153046,A,768,Correct
1,relearn,31,386,B,56.74201099024555,40.539511608353855,2.8371005495122774,0.636793159244613,A,851,Incorrect
1,relearn,31,387,A,41.75380529075542,50.268242060454575,2.087690264537771,0.7896116998299877,B,596,Incorrect
1,relearn,31,388,B,56.18125707042467,38.807621937506106,2.8090628535212336,0.6095886999107963,B,1120,Incorrect
1,relearn,31,389,B,71.93111983960911,40.41686290089962,3.5965559919804555,0.6348665978530605,A,892,Incorrect
1,relearn,31,390,B,77.68640820130621,57.3523263417444,3.8843204100653104,0.900888235507543,B,697,Incorrect
1,relearn,31,391,A,28.27773832082313,45.68267413115638,1.4138869160411565,0.7175817672338869,A,684,Correct
1,relearn,31,392,B,52.55131834745233,23.742938507864306,2.6275659173726167,0.37295320595470355,B,1194,Incorrect
1,relearn,31,393,B,47.995132703913924,22.846373090448274,2.399756635195696,0.35886998931061914,B,1592,Incorrect
1,relearn,31,394,A,44.2829531375627,75.87416670399676,2.2141476568781346,1.1918286235726177,A,705,Correct
1,relearn,31,395,A,43.96075552471943,58.25321453298296,2.1980377762359717,0.9150393541240472,A,681,Correct
1,relearn,31,396,A,41.44971736178902,50.820163983880015,2.072485868089451,0.7982812691299302,107,578,Incorrect
1,relearn,31,397,A,54.528749038990306,63.86930566970598,2.7264374519495154,1.0032567074091463,B,847,Incorrect
1,relearn,31,398,A,39.51142704530871,57.928502390012234,1.9755713522654355,0.909938787709606,A,566,Correct
1,relearn,31,399,B,47.95123288874392,31.806437779274955,2.3975616444371957,0.49961435632115525,A,733,Incorrect
1,relearn,31,400,B,49.09677013728427,32.122790181706705,2.4548385068642133,0.5045836082382806,A,986,Correct
1,relearn,31,401,B,86.14102375234114,69.39563548197083,4.307051187617057,1.0900640931067738,A,512,Incorrect
1,relearn,31,402,B,63.913560465456165,47.03098584846501,3.1956780232728086,0.7387609981631159,B,614,Incorrect
1,relearn,31,403,A,32.03995984001684,59.381467908695406,1.6019979920008423,0.9327619167066776,A,398,Correct
1,relearn,31,404,A,32.702457787513104,55.32524141466072,1.6351228893756553,0.8690468599318995,B,474,Correct
1,relearn,31,405,A,41.18125588768236,63.06766412453637,2.059062794384118,0.99066455146356,B,629,Incorrect
1,relearn,31,406,B,52.79321309379297,25.186645241141385,2.639660654689649,0.39563089829071046,A,619,Correct
1,relearn,31,407,A,59.334388539420786,71.89163712140767,2.9667194269710393,1.1292711951757881,A,473,Correct
1,relearn,31,408,A,44.5674090196023,66.73766208492647,2.228370450980115,1.0483127446188154,A,901,Incorrect
1,relearn,31,409,A,50.09589755841184,65.90385356734826,2.504794877920592,1.035215311052194,B,541,Incorrect
1,relearn,31,410,A,47.340543661194644,60.12431140586669,2.3670271830597325,0.9444304750740791,A,2009,Correct
1,relearn,31,411,A,30.295303252066553,40.48863887880205,1.5147651626033278,0.6359940522774731,B,1958,Incorrect
1,relearn,31,412,A,60.16736002424141,86.0299234882117,3.0083680012120704,1.3513548780972895,B,325,Incorrect
1,relearn,31,413,B,53.98867096816655,38.2382732556959,2.6994335484083276,0.6006453917302665,A,503,Incorrect
1,relearn,31,414,A,31.505871077058536,45.91305598114471,1.575293553852927,0.7212005968711057,B,570,Correct
1,relearn,31,415,A,63.2627776841515,77.6551459248308,3.163138884207575,1.2198041797544592,B,281,Incorrect
1,relearn,31,416,A,38.97030962829146,66.35624768861227,1.948515481414573,1.042321501291645,B,423,Incorrect
1,relearn,31,417,B,57.85198086255598,39.33923446603447,2.892599043127799,0.6179392499817015,B,1018,Incorrect
1,relearn,31,418,B,52.280016582341986,44.58098650875043,2.6140008291170993,0.70027649852838,B,696,Incorrect
1,relearn,31,419,B,39.63811800208211,18.426726723870676,1.9819059001041055,0.28944634652709417,B,236,Correct
1,relearn,31,420,B,47.100651246580846,28.369254483862,2.355032562329042,0.44562320737160077,A,793,Correct
1,relearn,31,421,B,76.55455098047115,64.03790442400707,3.8277275490235576,1.0059050504487297,B,1016,Incorrect
1,relearn,31,422,A,31.534535212542405,59.09961865563478,1.5767267606271202,0.9283346389925026,B,1009,Correct
1,relearn,31,423,A,47.21494251222157,62.80461233943399,2.3607471256110784,0.9865325436856035,A,228,Incorrect
1,relearn,31,424,B,40.20635272090268,16.85301664858853,2.010317636045134,0.264726566470161,A,79,Incorrect
1,relearn,31,425,B,37.782872753126526,27.298230412624633,1.8891436376563262,0.42879960060151506,A,848,Correct
1,relearn,31,426,B,55.08465461748172,33.89300185800786,2.7542327308740857,0.5323900282261135,A,889,Correct
1,relearn,31,427,A,24.242766505994503,41.818432098885125,1.212138325299725,0.6568823953325055,B,742,Correct
1,relearn,31,428,B,34.28822527568438,11.74646615953817,1.7144112637842193,0.1845130589622311,B,852,Incorrect
1,relearn,31,429,A,64.4790901844336,81.34807027659207,3.2239545092216804,1.2778124998232392,A,790,Correct
1,relearn,31,430,A,24.035187510778652,42.740078644062265,1.2017593755389326,0.67135958541018,B,782,Incorrect
1,relearn,31,431,B,86.96015190850929,68.51930417630038,4.3480075954254644,1.0762987131467485,A,1311,Incorrect
1,relearn,31,432,B,68.00318250808107,54.590643253177014,3.4001591254040533,0.8575078189946106,B,252,Incorrect
1,relearn,31,433,B,45.587180897871676,38.014494366505765,2.279359044893584,0.5971302811587255,A,603,Correct
1,relearn,31,434,A,38.72613907009245,46.388369856578,1.9363069535046225,0.7286668097671583,B,421,Correct
1,relearn,31,435,B,56.67127836031435,26.031796528719816,2.8335639180157175,0.4089065036718522,B,2021,Incorrect
1,relearn,31,436,A,62.54696875292517,77.11581352177642,3.1273484376462584,1.2113323661780662,A,543,Incorrect
1,relearn,31,437,A,42.174801760533406,58.34421172511266,2.10874008802667,0.9164687346755068,B,574,Correct
1,relearn,31,438,A,14.539877969208565,36.51970393674934,0.7269938984604282,0.5736501679948299,107,832,Incorrect
1,relearn,31,439,A,56.511337665954066,82.18944010985196,2.8255668832977032,1.291028706258846,B,528,Incorrect
1,relearn,31,440,A,65.00470273286038,78.12463987380806,3.250235136643019,1.2271789734595182,A,1082,Incorrect
1,relearn,31,441,A,45.14210240596086,56.93037289407898,2.257105120298043,0.89426020625083,B,512,Incorrect
1,relearn,31,442,B,75.89904704447304,62.03487365653733,3.794952352223652,0.9744415167287434,B,774,Incorrect
1,relearn,31,443,B,46.027060815409314,35.25875361791873,2.3013530407704654,0.5538432067039301,B,992,Correct
1,relearn,31,444,B,72.00370112356056,39.88011610555909,3.600185056178028,0.6264353989076622,A,678,Incorrect
1,relearn,31,445,A,20.271603590798417,39.878127420235,1.0135801795399209,0.6264041607116398,A,665,Incorrect
1,relearn,31,446,A,31.57437236559478,61.43030753512378,1.578718618279739,0.9649450143005328,B,477,Correct
1,relearn,31,447,A,37.51615864848201,64.13933471293143,1.8758079324241006,1.0074983137014106,B,629,Correct
1,relearn,31,448,B,71.41014145559953,49.65331159227573,3.5705070727799764,0.7799523946234916,A,640,Correct
1,relearn,31,449,A,20.369724524250852,40.9019908033826,1.0184862262125427,0.6424869691255204,B,838,Incorrect
1,relearn,31,450,A,10.964716062792501,35.74814910861795,0.548235803139625,0.5615306130953334,B,940,Incorrect
1,relearn,31,451,A,40.015177449988464,67.68818135780757,2.000758872499423,1.063243466442709,A,1753,Incorrect
1,relearn,31,452,A,64.15842403312266,76.25806961166488,3.2079212016561325,1.197858956344727,B,1517,Incorrect
1,relearn,31,453,B,50.485733311497725,22.591478390168575,2.524286665574886,0.35486611272143076,A,2414,Incorrect
1,relearn,31,454,A,69.7599587903806,87.96123491559644,3.4879979395190297,1.381691847057619,B,627,Correct
1,relearn,31,455,B,72.95240769979699,55.95992211189858,3.6476203849898496,0.879016401010988,B,4812,Incorrect
1,relearn,31,456,B,36.56129186406998,18.09174970241194,1.828064593203499,0.28418453977841335,A,782,Correct
1,relearn,31,457,B,55.721956360194525,48.5278013808864,2.7860978180097264,0.7622729215652868,A,1053,Incorrect
1,relearn,31,458,B,79.89670758644411,57.37201416665126,3.9948353793222053,0.9011974911380055,A,1065,Correct
1,relearn,31,459,A,53.4698781454886,72.7567234462668,2.67349390727443,1.1428599393902803,A,1356,Incorrect
1,relearn,31,460,A,25.522450090721783,45.12107686184543,1.276122504536089,0.7087602179561701,B,772,Correct
1,relearn,31,461,B,81.58338137535986,61.24376353088513,4.079169068767993,0.962014787934096,B,564,Incorrect
1,relearn,31,462,B,50.08471917977209,19.50605963701042,2.5042359589886045,0.30640046828058154,A,817,Incorrect
1,relearn,31,463,A,61.22754788675063,78.53756021912437,3.0613773943375318,1.2336651110763357,B,477,Incorrect
1,relearn,31,464,B,71.23769085635561,61.26683243163637,3.5618845428177806,0.9623771533797285,B,858,Correct
1,relearn,31,465,A,57.811851583030894,81.0246020233906,2.8905925791515448,1.272731472383603,B,848,Incorrect
1,relearn,31,466,B,57.469570014702555,40.761868720910456,2.8734785007351276,0.6402859366010194,B,546,Correct
1,relearn,31,467,B,54.943776051125376,45.58317923177383,2.7471888025562685,0.7160189050090374,A,372,Correct
1,relearn,31,468,A,23.00237534860714,52.5539358306012,1.1501187674303568,0.8255152936132306,B,703,Incorrect
1,relearn,31,469,B,54.06963664436784,25.048396809699142,2.703481832218392,0.3934592970077641,B,510,Correct
1,relearn,31,470,B,68.15335382240082,57.7598513996294,3.407667691120041,0.9072896241475692,A,132,Incorrect
1,relearn,31,471,A,25.20371022783413,49.153612475638774,1.2601855113917066,0.7721031392543318,A,541,Correct
1,relearn,31,472,A,16.120758464685608,35.54721003840043,0.8060379232342804,0.5583742695612607,A,542,Incorrect
1,relearn,31,473,A,60.72613476337486,84.3554327801987,3.0363067381687427,1.3250520395632992,B,878,Correct
1,relearn,31,474,A,39.72666568525202,71.59205980678121,1.9863332842626011,1.124565445721725,B,855,Correct
1,relearn,31,475,B,51.25113443146009,34.687012378547294,2.5625567215730043,0.544862316317112,B,1069,Correct
1,relearn,31,476,B,83.05152535987659,60.42206112188322,4.15257626799383,0.9491075166763088,B,2183,Incorrect
1,relearn,31,477,A,20.432242572699,43.442303969403866,1.02161212863495,0.6823901150264695,B,744,Correct
1,relearn,31,478,B,41.699926487531236,22.632396640319435,2.084996324376562,0.35550885509178926,A,1222,Correct
1,relearn,31,479,A,19.329328304980425,41.36284693302984,0.9664664152490212,0.6497260802818283,A,1303,Incorrect
1,relearn,31,480,A,32.33400415038994,55.37910869667533,1.616700207519497,0.8698930052191292,B,724,Incorrect
1,relearn,31,481,B,82.62086511452081,63.80220970392982,4.13104325572604,1.0022027664433066,A,4565,Correct
1,relearn,31,482,A,39.77736876316337,67.96488849379725,1.9888684381581685,1.0675899719708144,A,694,Correct
1,relearn,31,483,B,72.77635484054393,41.814283289379674,3.6388177420271965,0.6568172259851881,A,609,Incorrect
1,relearn,31,484,A,22.353794670672368,54.476789735494634,1.1176897335336184,0.855719412120929,A,1174,Correct
1,relearn,31,485,A,24.044507846123622,50.1106774183791,1.2022253923061812,0.7871366802199385,A,636,Incorrect
1,relearn,31,486,A,62.52129764159709,84.42599059727671,3.126064882079854,1.3261603591622273,B,229,Correct
1,relearn,31,487,A,42.46434577966966,58.117326512181315,2.123217288983483,0.9129048300847405,A,364,Incorrect
1,relearn,31,488,B,70.27545990139268,52.81179033619144,3.5137729950696337,0.8295656627155172,B,358,Correct
1,relearn,31,489,B,32.123162587772484,16.098644469355403,1.606158129388624,0.2528769159884044,B,467,Incorrect
1,relearn,31,490,A,30.796489392086336,56.863363811584506,1.5398244696043166,0.8932076300443879,A,696,Incorrect
1,relearn,31,491,B,55.891704709202344,36.10095649879239,2.7945852354601173,0.5670724986208544,B,716,Correct
1,relearn,31,492,A,15.83072049844472,40.28282780275493,0.791536024922236,0.6327611794547878,B,914,Incorrect
1,relearn,31,493,A,28.563362157652563,61.03898451254231,1.428168107882628,0.9587981266359203,A,693,Incorrect
1,relearn,31,494,A,30.65405961903067,52.18113773272304,1.5327029809515336,0.8196593947853992,B,900,Correct
1,relearn,31,495,B,48.007143212962085,31.35956998207602,2.4003571606481042,0.49259497337712516,A,1333,Correct
1,relearn,31,496,B,76.13973327559832,45.2098405266186,3.8069866637799157,0.7101545143419554,A,918,Incorrect
1,relearn,31,497,A,46.102087348268576,78.28291284725279,2.305104367413429,1.2296651195126969,B,496,Incorrect
1,relearn,31,498,B,40.82065905340518,29.385984585614686,2.0410329526702586,0.46159396646334994,B,258,Incorrect
1,relearn,31,499,B,53.478665814237246,39.340647857165386,2.6739332907118625,0.6179614514776691,A,86,Incorrect
1,relearn,31,500,B,71.52232914818579,62.07907976634131,3.57611645740929,0.975135904677763,B,95,Incorrect
1,relearn,31,501,B,74.32238465803132,43.397449693543265,3.716119232901566,0.6816855457088407,A,466,Incorrect
1,relearn,31,502,B,71.67875693354603,53.392308671369186,3.5839378466773013,0.8386844234008604,A,437,Incorrect
1,relearn,31,503,A,33.55580700118259,52.642113898982736,1.6777903500591296,0.8269003914724066,A,293,Incorrect
1,relearn,31,504,A,35.3943796773942,66.19918728784825,1.7697189838697098,1.0398544022855944,B,30,Incorrect
1,relearn,31,505,A,27.384648452942464,46.01448695832895,1.369232422647123,0.722793870934948,B,265,Correct
1,relearn,31,506,B,34.38391002348015,10.84415522397562,1.7191955011740074,0.17033959193014592,B,256,Correct
1,relearn,31,507,A,38.48224158788375,52.45575331329729,1.9241120793941875,0.8239730462378662,B,245,Correct
1,relearn,31,508,A,68.87809877403096,86.23412773086677,3.443904938701548,1.3545625108400747,B,377,Correct
1,relearn,31,509,B,57.31276451851792,45.57339744226667,2.8656382259258963,0.7158652530187641,A,455,Incorrect
1,relearn,31,510,A,33.437598390276776,61.143849738940666,1.6718799195138387,0.960445345760271,B,275,Incorrect
1,relearn,31,511,A,10.50127211188013,33.35600722296674,0.5250636055940064,0.5239549362238018,B,1635,Correct
1,relearn,31,512,B,65.30182417393164,38.66977143920169,3.265091208696582,0.6074233493469622,B,522,Incorrect
1,relearn,31,513,B,59.703033833421046,47.976283258646255,2.985151691671052,0.7536096951595302,A,621,Correct
1,relearn,31,514,B,54.71170339111701,44.563489443368795,2.7355851695558506,0.7000016552680685,A,564,Incorrect
1,relearn,31,515,A,13.979163316307314,33.62195204179415,0.6989581658153656,0.5281323876692443,A,675,Correct
1,relearn,31,516,B,57.4498113678574,42.49473095490724,2.87249056839287,0.6675056729210567,A,887,Correct
1,relearn,31,517,B,65.7823674987747,48.07724237437438,3.2891183749387354,0.7551955572409522,B,516,Correct
1,relearn,31,518,A,21.182448457924686,33.47231735188703,1.0591224228962344,0.5257819314565723,A,685,Incorrect
1,relearn,31,519,B,54.57817601636543,40.477994874003976,2.728908800818272,0.635826856641081,B,470,Incorrect
1,relearn,31,520,A,50.616458460406946,61.80528656147909,2.530822923020347,0.9708351710727734,B,331,Correct
1,relearn,31,521,B,71.88144163295561,51.16547279574715,3.5940720816477807,0.8037053672628383,A,844,Correct
1,relearn,31,522,A,35.86888663235631,54.154910465827065,1.7934443316178152,0.8506633443762764,B,644,Incorrect
1,relearn,31,523,B,83.95823109215843,53.711166288484016,4.197911554607922,0.8436930271382058,B,342,Incorrect
1,relearn,31,524,B,70.28811908873965,44.74971953498546,3.514405954436983,0.7029269507065699,A,356,Incorrect
1,relearn,31,525,A,20.000685322428236,34.274879673217015,1.0000342661214119,0.5383885509202636,B,139,Correct
1,relearn,31,526,A,25.689435064092265,43.494696625949594,1.2844717532046133,0.6832130969510001,B,585,Incorrect
1,relearn,31,527,B,60.98989159276885,37.028031584924676,3.0494945796384423,0.581634960020451,A,713,Incorrect
1,relearn,31,528,B,83.65461727585662,68.50931738665582,4.18273086379283,1.076141841021847,B,321,Correct
1,relearn,31,529,A,15.725069047821798,39.78136211020018,0.7862534523910898,0.6248841747760012,B,776,Correct
1,relearn,31,530,B,75.67059466759449,64.9406757387153,3.7835297333797246,1.0200857490995243,B,1052,Correct
1,relearn,31,531,B,57.50844097653372,45.09258315825454,2.875422048826686,0.7083126399067965,B,485,Incorrect
1,relearn,31,532,A,12.693743775537477,37.227898190650954,0.6346871887768739,0.5847744573216889,B,248,Correct
1,relearn,31,533,B,55.876466074862755,27.835810856769797,2.7938233037431375,0.4372438944717149,B,515,Correct
1,relearn,31,534,A,52.100048847198764,80.58072870665154,2.6050024423599383,1.2657591266286432,A,1186,Incorrect
1,relearn,31,535,B,85.56455980554952,64.2747199550161,4.278227990277475,1.0096249401110993,B,58,Correct
1,relearn,31,536,A,23.371890452529954,41.24016640085445,1.1685945226264978,0.6477990189887248,B,667,Incorrect
1,relearn,31,537,B,62.45564495834504,49.474475185228734,3.122782247917252,0.7771432389106255,A,2858,Correct
1,relearn,31,538,A,46.95983186502119,67.81865527973838,2.3479915932510593,1.0652929460158236,B,611,Correct
1,relearn,31,539,B,76.65055681564391,50.12466483522442,3.832527840782195,0.7873563940499584,B,182,Correct
1,relearn,31,540,B,63.88393863651265,41.56213438297949,3.1941969318256325,0.6528564802254005,B,284,Correct
1,relearn,31,541,B,71.07609950421408,37.83574949583313,3.553804975210704,0.5943225632958654,A,425,Correct
1,relearn,31,542,B,43.049040140099365,30.353236134491457,2.152452007004968,0.47678751826397303,B,369,Correct
1,relearn,31,543,B,73.27494672789875,58.567020459193785,3.6637473363949375,0.9199686060862317,B,112,Incorrect
1,relearn,31,544,B,38.63511406068705,24.108767731305313,1.9317557030343524,0.37869963795885714,B,254,Incorrect
1,relearn,31,545,A,45.14434859498328,74.00507716100768,2.257217429749164,1.1624690336868375,A,246,Correct
1,relearn,31,546,A,25.38589901316584,46.59644466425628,1.269294950658292,0.7319352412031542,A,140,Correct
1,relearn,31,547,A,27.625391864215302,46.7796630880516,1.3812695932107653,0.7348132294741426,A,135,Correct
1,relearn,31,548,B,36.720885622220436,25.073136906917284,1.8360442811110218,0.39384791354611215,B,248,Correct
1,relearn,31,549,A,53.027643319176256,60.59606063887241,2.651382165958813,0.9518406946978158,B,226,Correct
1,relearn,31,550,B,50.885393710813716,39.3801527439562,2.544269685540686,0.6185819927882836,B,428,Incorrect
1,relearn,31,551,B,71.77258879615968,40.504441046638256,3.588629439807984,0.6362422721493981,A,65,Incorrect
1,relearn,31,552,B,67.91163816643834,55.67478843239654,3.395581908321917,0.8745375316469147,A,261,Correct
1,relearn,31,553,A,54.86290185363048,81.103859747488,2.743145092681524,1.273976449802426,A,268,Incorrect
1,relearn,31,554,A,44.105764810552536,70.48993606959351,2.2052882405276266,1.1072533265412456,B,156,Correct
1,relearn,31,555,B,35.97259777825566,16.128178630576546,1.798629888912783,0.25334083750801584,B,35,Correct
1,relearn,31,556,B,70.55025635373191,55.790390977890084,3.5275128176865955,0.8763534121852088,B,116,Incorrect
1,relearn,31,557,B,43.42616783931119,30.0381967719237,2.1713083919655594,0.47183889152880065,A,330,Correct
1,relearn,31,558,B,79.83487827630496,53.69180487592636,3.991743913815248,0.8433888987809345,A,584,Incorrect
1,relearn,31,559,B,68.86871731597643,37.590429770654296,3.443435865798821,0.5904690900638531,A,323,Incorrect
1,relearn,31,560,A,51.267835327636924,74.48333983026626,2.563391766381846,1.1699815661279824,B,36,Incorrect
1,relearn,31,561,B,57.00695572872417,29.67127394317166,2.850347786436209,0.4660752812125917,B,233,Incorrect
1,relearn,31,562,A,31.85374569781906,40.63081731220537,1.592687284890953,0.6382273858868669,A,302,Correct
1,relearn,31,563,B,66.83097747364963,49.39874943037609,3.3415488736824814,0.7759537415349625,A,299,Correct
1,relearn,31,564,B,46.04860853636959,30.897226537402787,2.3024304268184794,0.4853324995310209,A,320,Correct
1,relearn,31,565,A,37.30671075218101,70.36879394218889,1.8653355376090506,1.105350430453773,B,483,Incorrect
1,relearn,31,566,A,57.95505628302993,76.59419111489137,2.8977528141514965,1.2031387405709766,A,236,Incorrect
1,relearn,31,567,B,58.533360498183505,40.36306194541185,2.926668024909175,0.6340214944204781,A,191,Correct
1,relearn,31,568,A,13.714612186998625,42.49167310307041,0.6857306093499312,0.667457640296725,A,265,Incorrect
1,relearn,31,569,A,43.066650248157224,56.433235740274355,2.1533325124078613,0.8864511940997343,A,234,Incorrect
1,relearn,31,570,A,55.950310096719946,72.12620634065061,2.797515504835997,1.1329557998554476,B,246,Incorrect
1,relearn,31,571,B,80.21284466627894,57.41382416585212,4.0106422333139475,0.9018542410696857,A,564,Incorrect
1,relearn,31,572,A,62.97392058288052,73.09515369060833,3.148696029144026,1.14817598923716,B,877,Incorrect
1,relearn,31,573,A,36.31348783399303,45.69704697028248,1.8156743916996516,0.717807535262936,B,408,Correct
1,relearn,31,574,B,69.16026399750419,36.89377389960091,3.4580131998752095,0.5795260452309453,B,304,Incorrect
1,relearn,31,575,A,67.42451124179973,88.93122965882398,3.371225562089987,1.3969284888543407,B,161,Incorrect
1,relearn,31,576,B,35.07757341418362,21.40867530308468,1.7538786707091811,0.33628668527630035,A,241,Correct
1,relearn,31,577,A,29.31311843017772,50.63475059084935,1.465655921508886,0.7953688023628187,A,314,Incorrect
1,relearn,31,578,A,58.91001154074626,69.96979719977733,2.945500577037313,1.0990830042799407,A,369,Correct
1,relearn,31,579,A,58.07784391512972,71.7412768979732,2.903892195756486,1.1269093423091183,A,651,Incorrect
1,relearn,31,580,A,19.772453484123503,33.37988743374246,0.9886226742061751,0.524330045697498,A,277,Correct
1,relearn,31,581,B,47.81796619126929,29.42378361069222,2.3908983095634646,0.4621877121608322,A,998,Incorrect
1,relearn,31,582,A,51.7909683278445,60.05255338346988,2.5895484163922253,0.9433033026940892,B,275,Correct
1,relearn,31,583,B,56.976068566653296,42.45053814085708,2.8488034283326646,0.6668114938212496,B,262,Incorrect
1,relearn,31,584,B,75.8615538539891,44.91370443675173,3.793077692699455,0.7055028195200127,B,361,Incorrect
1,relearn,31,585,B,49.769114964868216,40.427542591589955,2.488455748243411,0.6350343540421373,A,389,Correct
1,relearn,31,586,A,42.57772287536427,63.66249512146474,2.1288861437682134,1.0000081349139485,A,146,Incorrect
1,relearn,31,587,B,83.45068978114377,61.94739989513158,4.172534489057188,0.9730674820976725,B,37,Correct
1,relearn,31,588,A,40.9797063116841,51.36926255258672,2.0489853155842046,0.8069064892776585,B,307,Incorrect
1,relearn,31,589,A,59.78007811152399,68.23698381765142,2.9890039055761997,1.0718640353232967,B,520,Correct
1,relearn,31,590,B,61.25895377062358,34.24976512062959,3.062947688531179,0.5379940524507293,A,664,Incorrect
1,relearn,31,591,B,37.08072917611696,11.570691900667839,1.854036458805848,0.18175200336044503,A,668,Incorrect
1,relearn,31,592,A,42.62888415947928,64.92479632966334,2.131444207973964,1.0198363159254196,B,311,Incorrect
1,relearn,31,593,B,78.00499647431559,61.03808959369118,3.9002498237157797,0.9587840692834791,A,1070,Correct
1,relearn,31,594,B,37.61946416449436,20.522295067698156,1.880973208224718,0.3223634570974129,A,58,Incorrect
1,relearn,31,595,B,49.29852090406039,38.084993725010875,2.4649260452030193,0.5982376824925376,A,149,Correct
1,relearn,31,596,B,48.650410500689624,22.282676146366132,2.432520525034481,0.3500154584187218,A,1323,Incorrect
1,relearn,31,597,A,46.14991469974867,53.15197084899523,2.3074957349874334,0.8349092057151113,A,264,Correct
1,relearn,31,598,B,67.14886586819902,53.105827841292694,3.3574432934099514,0.8341843930450472,A,97,Incorrect
1,relearn,31,599,B,72.96628411673615,44.87590128152314,3.648314205836807,0.7049090089462695,A,18,Correct
1,relearn,31,600,B,70.66237258602484,51.18792068805969,3.533118629301242,0.8040579779307266,B,106,Correct
1,relearn,31,601,B,48.229785946443606,32.59851036415096,2.41148929732218,0.512056203389937,B,772,Correct
1,relearn,31,602,A,28.551337416846952,40.611750390788565,1.4275668708423475,0.6379278833856189,A,548,Correct
1,relearn,31,603,B,55.05145198058629,37.71649941939427,2.752572599029315,0.5924493874754636,B,349,Correct
1,relearn,31,604,A,58.364753563051345,84.44379474695343,2.918237678152567,1.3264400260913665,B,439,Incorrect
1,relearn,31,605,A,37.798670316769446,56.45075489657179,1.8899335158384725,0.8867263843633398,B,591,Incorrect
1,relearn,31,606,B,70.7640449458017,44.04154026187031,3.538202247290085,0.6918028966973543,B,724,Correct
1,relearn,31,607,B,68.14560824713372,37.365693612367025,3.407280412356686,0.5869389427444964,B,651,Correct
1,relearn,31,608,B,47.94458251685789,38.44500774654374,2.3972291258428946,0.6038927695187224,A,439,Incorrect
1,relearn,31,609,B,52.66084601607606,34.54922242652316,2.633042300803803,0.5426979168120244,A,356,Incorrect
1,relearn,31,610,A,63.2432257774081,88.86274851910706,3.162161288870405,1.3958527896271198,B,406,Incorrect
1,relearn,31,611,A,30.637622602056954,58.92383034734735,1.5318811301028479,0.9255733627029888,B,300,Incorrect
1,relearn,31,612,B,64.74794276220311,35.36805737168245,3.237397138110156,0.5555601460530996,B,628,Correct
1,relearn,31,613,A,33.6812956316281,66.82776349286823,1.6840647815814052,1.049728054225155,A,534,Correct
1,relearn,31,614,A,55.4936243814522,77.88321045027789,2.77468121907261,1.2233866089429042,A,679,Correct
1,relearn,31,615,A,49.43546003091019,66.26007444132914,2.4717730015455093,1.040810815455962,A,1526,Correct
1,relearn,31,616,A,16.95523101408919,31.429498666420958,0.8477615507044596,0.49369341058219135,A,652,Correct
1,relearn,31,617,A,34.78402266325068,53.16097193762537,1.739201133162534,0.8350505944846851,A,896,Correct
1,relearn,31,618,B,67.40950419084805,55.95426680071722,3.370475209542403,0.8789275675906825,B,539,Correct
1,relearn,31,619,B,53.67188290225481,24.93069136826876,2.6835941451127407,0.39161038425733796,B,1490,Correct
1,relearn,31,620,B,66.6078418403447,55.72413238378929,3.330392092017235,0.8753126246228875,A,565,Incorrect
1,relearn,31,621,B,71.01623172088716,48.95635319354824,3.5508115860443583,0.7690045976969917,B,667,Correct
1,relearn,31,622,A,51.17756443616502,62.41317762067116,2.5588782218082513,0.9803839015014771,B,588,Incorrect
1,relearn,31,623,A,18.75187908903781,42.9233871424573,0.9375939544518905,0.6742389885696721,A,531,Correct
1,relearn,31,624,B,57.642972635380104,34.045333684466975,2.882148631769005,0.5347828509606728,A,426,Incorrect
1,relearn,31,625,B,60.72161645484435,40.73977499687474,3.0360808227422176,0.6399388891954142,B,261,Correct
1,relearn,31,626,B,60.895659935917635,36.716403985084426,3.044782996795882,0.5767399251288812,B,779,Correct
1,relearn,31,627,B,51.62225885450653,20.19719985305195,2.5811129427253268,0.31725687340716424,A,606,Incorrect
1,relearn,31,628,B,58.77493551012274,42.924058532666535,2.9387467755061367,0.6742495347424172,B,299,Correct
1,relearn,31,629,B,58.41723592736707,46.67190368124406,2.920861796368353,0.7331205486702337,B,672,Correct
1,relearn,31,630,B,75.62638235098018,55.111102896733485,3.781319117549009,0.8656831799580454,B,436,Correct
1,relearn,31,631,A,22.534690781316815,44.484068138519795,1.1267345390658408,0.6987541083288078,A,733,Correct
1,relearn,31,632,B,38.22911612175817,15.633148704473896,1.9114558060879085,0.24556492561225993,B,426,Correct
1,relearn,31,633,A,32.913534643125494,47.9574854455057,1.6456767321562749,0.7533144198012006,A,550,Correct
1,relearn,31,634,B,83.58591997749502,55.51408281333126,4.179295998874751,0.8720131736856842,B,432,Correct
1,relearn,31,635,B,37.52766827572334,14.833889496338468,1.876383413786167,0.2330101913292986,B,36,Correct
1,relearn,31,636,A,29.94102822718918,47.206967606862364,1.4970514113594589,0.7415253131598507,B,495,Incorrect
1,relearn,31,637,A,42.25151716177962,56.721242669724994,2.112575858088981,0.8909751963684597,A,523,Correct
1,relearn,31,638,B,38.87461001622961,21.796784997193992,1.9437305008114805,0.34238309809530426,A,425,Incorrect
1,relearn,31,639,A,17.241641383686538,40.629323849564784,0.862082069184327,0.6382039266305664,B,330,Incorrect
1,relearn,31,640,A,34.52197267050407,67.9178803153138,1.7260986335252033,1.0668515692299032,A,444,Correct
1,relearn,31,641,A,20.37273139773296,50.97540987183651,1.018636569886648,0.8007198658354511,A,408,Correct
1,relearn,31,642,B,70.00477653100549,43.154694445023566,3.500238826550275,0.6778723551819914,B,616,Correct
1,relearn,31,643,B,75.7610550839224,59.61882577499406,3.78805275419612,0.9364903253518556,B,345,Correct
1,relearn,31,644,B,57.52260716136615,30.911605478436147,2.8761303580683077,0.485558363408605,B,1084,Correct
1,relearn,31,645,A,53.67466902392061,79.66823764171812,2.68373345119603,1.2514257504983375,A,756,Correct
1,relearn,31,646,A,55.984264174678614,78.6847318952851,2.799213208733931,1.2359768783595508,B,353,Incorrect
1,relearn,31,647,B,61.64185741483337,30.157788114356904,3.082092870741668,0.47371742794290617,A,300,Incorrect
1,relearn,31,648,B,75.98227734802022,43.6648585005597,3.7991138674010108,0.6858859934269811,A,957,Incorrect
1,relearn,31,649,A,62.06050191482633,80.98342470095048,3.1030250957413164,1.2720846605152412,B,365,Incorrect
1,relearn,31,650,A,35.61028649385236,67.71146062223367,1.7805143246926178,1.0636091362732192,B,492,Incorrect
1,relearn,31,651,B,70.42083585622771,47.656426241949916,3.5210417928113857,0.7485853928902684,B,588,Correct
1,relearn,31,652,A,44.05861679168011,63.29594591816985,2.2029308395840053,0.9942503934926961,A,571,Correct
1,relearn,31,653,B,79.73483705853546,50.431836676386844,3.986741852926773,0.7921814380478859,B,580,Correct
1,relearn,31,654,B,57.57895145690898,27.085107497826407,2.878947572845449,0.42545187368430637,B,1169,Correct
1,relearn,31,655,A,38.88921929591008,46.17549069628886,1.9444609647955042,0.7253229117368246,A,619,Correct
1,relearn,31,656,A,50.98049519786141,60.17714530603997,2.5490247598930704,0.9452603880373032,A,532,Correct
1,relearn,31,657,B,57.90589201138519,32.79596413112282,2.8952946005692595,0.5151577999086492,B,600,Correct
1,relearn,31,658,A,42.72241742137319,59.88439442464429,2.1361208710686594,0.9406618679456804,A,621,Correct
1,relearn,31,659,A,48.92146805028071,72.33877891870725,2.4460734025140356,1.1362948821033345,A,567,Correct
1,relearn,31,660,B,56.61713948496767,29.7865172049329,2.8308569742483836,0.46788551813521584,B,628,Correct
1,relearn,31,661,B,46.41050571969062,19.54905060334936,2.3205252859845307,0.3070757688006873,B,1723,Correct
1,relearn,31,662,B,85.02187788198614,64.11355746851058,4.2510938940993075,1.0070934056928993,A,447,Incorrect
1,relearn,31,663,A,24.989857518732506,40.57955154813193,1.2494928759366253,0.6374221051478979,A,510,Correct
1,relearn,31,664,A,45.519941039870076,52.58268324429774,2.275997051993504,0.8259668569316245,B,643,Incorrect
1,relearn,31,665,B,45.29164754676771,22.03949933583145,2.2645823773383857,0.34619564601122604,B,2471,Correct
1,relearn,31,666,B,46.296946360326345,31.121305903320508,2.314847318016317,0.48885232997996186,B,608,Correct
1,relearn,31,667,B,51.186192735440464,36.25304803588703,2.5593096367720234,0.5694615468989028,B,1866,Correct
1,relearn,31,668,A,33.79164683648369,58.64509784144236,1.6895823418241847,0.9211950427386496,A,2024,Correct
1,relearn,31,669,B,54.25979042773512,40.81277893931626,2.712989521386756,0.6410856324417009,B,557,Correct
1,relearn,31,670,A,34.22199542615107,58.72041762732299,1.7110997713075533,0.9223781631686124,A,728,Correct
1,relearn,31,671,A,48.56082013649766,72.33958581494578,2.4280410068248828,1.1363075567998102,A,840,Correct
1,relearn,31,672,A,40.02654427123992,70.26506615513335,2.001327213561996,1.1037210781848388,A,461,Correct
1,relearn,31,673,B,75.669295456205,54.187010856315084,3.7834647728102504,0.8511675761309491,A,678,Incorrect
1,relearn,31,674,B,39.38035918072663,25.988325732876284,1.9690179590363315,0.40822366600751353,B,622,Correct
1,relearn,31,675,B,59.961654411567864,45.76423479325788,2.998082720578393,0.7188629191182868,B,502,Correct
1,relearn,31,676,A,64.10783373354714,79.03193840861118,3.205391686677357,1.2414307855172695,B,615,Incorrect
1,relearn,31,677,A,54.40288698253283,78.20337051200184,2.7201443491266413,1.2284156714323282,A,719,Correct
1,relearn,31,678,B,41.38166265775199,14.555686727873972,2.069083132887599,0.22864019246121664,A,659,Incorrect
1,relearn,31,679,B,65.93474595777862,36.54167585333193,3.2967372978889307,0.5739953020534356,B,336,Correct
1,relearn,31,680,B,52.590006653599175,45.64092872667021,2.629500332679959,0.7169260319536125,B,339,Correct
1,relearn,31,681,B,49.99327455335622,31.645786338937327,2.4996637276678113,0.49709084939738873,B,416,Correct
1,relearn,31,682,A,11.140559233081582,33.846514237571355,0.5570279616540791,0.5316598023918825,B,311,Incorrect
1,relearn,31,683,B,70.1372276060464,41.672051819165716,3.5068613803023196,0.654583059275521,B,379,Correct
1,relearn,31,684,B,72.66475148060461,40.23855844734975,3.6332375740302303,0.6320657980461875,B,373,Correct
1,relearn,31,685,B,83.1038198378221,68.37653426062309,4.155190991891105,1.0740560885555215,B,604,Correct
1,relearn,31,686,A,54.12450531191912,70.36466215875917,2.7062252655959558,1.1052855285514278,A,496,Correct
1,relearn,31,687,A,38.201017601723734,55.97280740933156,1.9100508800861866,0.8792188027897618,A,462,Correct
1,relearn,31,688,A,53.965819674456796,78.84606190869185,2.6982909837228397,1.2385110442841616,B,760,Incorrect
1,relearn,31,689,B,81.6435967890403,65.88996178193521,4.0821798394520155,1.0349970993971993,B,529,Correct
1,relearn,31,690,B,73.80154590790939,63.99049812457632,3.690077295395469,1.005160394038602,B,376,Correct
1,relearn,31,691,A,65.102519599249,79.31969849144136,3.255125979962451,1.2459509103283477,B,1038,Incorrect
1,relearn,31,692,B,75.80401861979676,43.86157742077636,3.790200930989838,0.6889760469998548,B,346,Correct
1,relearn,31,693,A,39.70225312092395,49.990837049664506,1.9851126560461976,0.7852542321101522,B,261,Incorrect
1,relearn,31,694,A,43.70460479208453,51.815111316390684,2.1852302396042265,0.8139098652825516,A,552,Correct
1,relearn,31,695,A,41.328392791009534,64.5449956295973,2.066419639550477,1.013870420479641,A,552,Correct
1,relearn,31,696,B,83.99238564003757,59.51324549212123,4.199619282001879,0.9348318741466697,B,784,Correct
1,relearn,31,697,A,44.74778716044028,55.64385156755252,2.237389358022014,0.8740515765103194,A,908,Correct
1,relearn,31,698,A,45.72927585800929,55.86506169438732,2.2864637929004643,0.8775263370571389,A,1039,Correct
1,relearn,31,699,A,45.926697255834,52.839593448370366,2.2963348627917,0.8300023929803585,A,689,Correct
1,relearn,31,700,A,68.48244770810123,89.34305552182364,3.4241223854050618,1.4033974343831308,B,653,Incorrect
1,relearn,31,701,A,24.56579529920562,44.15148474012566,1.228289764960281,0.6935299005233031,A,550,Correct
1,relearn,31,702,A,12.548261798922482,34.109332049557075,0.6274130899461241,0.5357881349287169,A,645,Correct
1,relearn,31,703,B,37.53883105546995,12.178425897540656,1.8769415527734976,0.19129826666000702,A,2424,Incorrect
1,relearn,31,704,B,66.36161280261082,34.610569065458535,3.3180806401305407,0.5436615475630334,B,608,Correct
1,relearn,31,705,A,32.56918841191237,64.18574868105951,1.6284594205956184,1.0082273826078867,A,616,Correct
1,relearn,31,706,B,55.76427910195788,26.562038979431968,2.788213955097894,0.4172355326107459,B,858,Correct
1,relearn,31,707,A,25.77147916002561,42.407671030418015,1.2885739580012805,0.6661381388250697,A,578,Correct
1,relearn,31,708,B,52.79159624417218,26.563509596998898,2.639579812208609,0.4172586330174685,B,1897,Correct
1,relearn,31,709,A,47.426271042655564,58.27936236571984,2.3713135521327784,0.9154500833202145,B,704,Incorrect
1,relearn,31,710,B,64.73439219380973,47.44018568338761,3.2367196096904864,0.7451886941393309,A,681,Incorrect
1,relearn,31,711,B,37.715093287457975,18.64765108027302,1.8857546643728988,0.29291661820245746,A,567,Incorrect
1,relearn,31,712,A,60.50925168683811,84.88664644427578,3.0254625843419056,1.3333963242860545,B,309,Incorrect
1,relearn,31,713,A,15.731744357130879,30.66956895459535,0.786587217856544,0.4817564625826117,A,540,Correct
1,relearn,31,714,A,49.89557323223564,61.177655604529605,2.494778661611782,0.9609763670551832,B,544,Incorrect
1,relearn,31,715,A,51.40611802058667,80.78157235413516,2.570305901029333,1.2689139712659168,B,1035,Incorrect
1,relearn,31,716,A,53.29579311073645,63.369011544563435,2.6647896555368225,0.9953981056682365,A,502,Correct
1,relearn,31,717,B,67.81372549548409,51.848586669158315,3.390686274774205,0.8144356948942072,A,340,Incorrect
1,relearn,31,718,B,38.285760717382814,27.898123401179397,1.9142880358691405,0.4382226976304334,A,706,Incorrect
1,relearn,31,719,A,40.67828021366602,47.939091627627086,2.033914010683301,0.753025490385606,A,787,Correct
1,relearn,31,720,B,79.69826387337432,58.737308773303695,3.984913193668716,0.922643488669231,B,692,Correct
1,relearn,31,721,A,44.95810880917025,65.36990034939912,2.2479054404585126,1.0268279935178455,A,959,Correct
1,relearn,31,722,B,43.58897771892482,17.408367456445855,2.179448885946241,0.27344999656080965,B,654,Correct
1,relearn,31,723,A,53.678748181361684,69.05003918693461,2.6839374090680845,1.0846354791988055,B,935,Incorrect
1,relearn,31,724,B,64.89865063690635,33.45612515846405,3.244932531845318,0.5255275850770565,A,510,Incorrect
1,relearn,31,725,A,34.5202389778168,62.76019446761121,1.72601194889084,0.9858348293865707,A,422,Correct
1,relearn,31,726,A,43.9900307338839,50.73711799783494,2.1995015366941946,0.7969767858315837,A,732,Correct
1,relearn,31,727,A,59.999573752406135,76.53046289861484,2.999978687620307,1.202137700090573,B,416,Incorrect
1,relearn,31,728,A,59.60424728672051,85.4489849171953,2.9802123643360257,1.342229516362829,A,579,Correct
1,relearn,31,729,B,57.61771459062797,48.08917332015834,2.8808857295313985,0.7553829680990786,B,586,Correct
1,relearn,31,730,B,51.362670351041444,20.551849632171443,2.5681335175520723,0.32282769911055953,A,1003,Incorrect
1,relearn,31,731,B,71.66386552557533,57.54171174585255,3.5831932762787666,0.9038630944787596,B,808,Correct
1,relearn,31,732,B,57.34757703197986,34.09620280220465,2.867378851598993,0.5355819011935693,B,745,Correct
1,relearn,31,733,A,35.87368948825762,52.45649156963347,1.7936844744128808,0.8239846427412771,A,486,Correct
1,relearn,31,734,B,80.01536468946509,49.18052455877806,4.000768234473254,0.7725258732677478,B,646,Correct
1,relearn,31,735,A,33.65120334825878,51.30824469931907,1.6825601674129391,0.805948023079841,A,522,Correct
1,relearn,31,736,B,32.617143746423906,15.82512292651537,1.6308571873211952,0.24858044964048046,A,444,Incorrect
1,relearn,31,737,B,54.10782603295567,45.56424363656546,2.7053913016477837,0.7157214653750475,A,1813,Incorrect
1,relearn,31,738,A,45.74153806623869,75.79832143858016,2.2870769033119345,1.190637248929406,B,433,Incorrect
1,relearn,31,739,B,59.41019594055587,31.974817311534444,2.970509797027794,0.5022592558289618,A,408,Incorrect
1,relearn,31,740,B,37.59889935137831,22.661712571548794,1.8799449675689153,0.35596934866270574,B,414,Correct
1,relearn,31,741,B,43.90545411474358,16.314654399485306,2.195272705737179,0.2562699920363972,A,893,Incorrect
1,relearn,31,742,A,59.092253727993636,79.9690514809614,2.954612686399682,1.2561509232356616,A,834,Correct
1,relearn,31,743,B,86.22261611986329,60.94063872615543,4.311130805993164,0.9572533146357978,B,870,Correct
1,relearn,31,744,B,40.128026166327814,13.126461850359604,2.0064013083163905,0.20618998058358207,A,741,Incorrect
1,relearn,31,745,B,55.09438374545668,42.547001831861074,2.7547191872728343,0.6683267419362311,A,525,Incorrect
1,relearn,31,746,B,48.08298351469798,27.70141158884502,2.404149175734899,0.4351327557079134,B,640,Correct
1,relearn,31,747,B,58.10551007566276,40.34625099805922,2.905275503783138,0.6337574286769635,A,817,Incorrect
1,relearn,31,748,A,56.10730054892366,74.59913780472951,2.805365027446183,1.171800516457354,B,700,Incorrect
1,relearn,31,749,B,38.76622296011744,14.763993914754359,1.938311148005872,0.23191227410118348,A,527,Incorrect
1,relearn,31,750,A,38.51322998357262,59.75315962908606,1.925661499178631,0.938600436597575,A,2000,Correct
1,relearn,31,751,A,65.76950955905568,80.84386174295324,3.288475477952784,1.269892410697454,B,2373,Incorrect
1,relearn,31,752,B,72.08356263559676,56.75425760146569,3.6041781317798383,0.8914937937035363,B,1397,Correct
1,relearn,31,753,B,61.6146084783588,50.60812628076982,3.08073042391794,0.794950588678055,B,789,Correct
1,relearn,31,754,A,39.43090760813798,68.66216985498228,1.9715453804068988,1.0785428419797345,A,889,Correct
1,relearn,31,755,B,55.273721106035495,29.450062016612904,2.763686055301775,0.46260049239577455,A,911,Incorrect
1,relearn,31,756,B,39.77944832913785,13.685508902875537,1.9889724164568923,0.2149714711495575,B,813,Correct
1,relearn,31,757,A,25.372664692052318,55.643819408087225,1.268633234602616,0.8740510713506199,A,626,Correct
1,relearn,31,758,A,53.63681484428001,73.5196870347751,2.6818407422140007,1.154844543413351,B,511,Incorrect
1,relearn,31,759,B,47.43028946146319,22.12626461474336,2.3715144730731597,0.34755855182530765,B,562,Correct
1,relearn,31,760,A,27.18492605201304,47.78837147068425,1.359246302600652,0.7506579836966084,A,603,Correct
1,relearn,31,761,A,63.17417286098428,80.7369329199324,3.1587086430492137,1.2682127766731577,A,671,Correct
1,relearn,31,762,B,53.702208467417066,22.707233644903145,2.685110423370853,0.3566843920108736,B,1863,Correct
1,relearn,31,763,B,38.772515459960985,22.411721033682085,1.9386257729980492,0.3520424907685974,B,843,Correct
1,relearn,31,764,A,40.47228615907072,50.96004984114904,2.0236143079535363,0.8004785910376178,B,577,Incorrect
1,relearn,31,765,A,38.182340308425445,45.73745717939393,1.9091170154212722,0.7184422973433086,A,565,Correct
1,relearn,31,766,B,43.74344556645889,25.590583960128434,2.1871722783229446,0.4019759528510614,B,380,Correct
1,relearn,31,767,A,24.796166463836585,50.998544300229064,1.2398083231918293,0.8010832605868662,A,462,Correct
1,relearn,31,768,A,30.034312319183663,59.491622795971516,1.5017156159591831,0.934492225629796,A,705,Correct
1,relearn,31,769,B,33.47738474885431,21.166869684822345,1.6738692374427158,0.33248841150665187,B,662,Correct
1,relearn,31,770,B,69.30727690240062,57.000303184946176,3.4653638451200313,0.8953586686910889,B,653,Correct
1,relearn,31,771,A,32.03323044198528,45.73060097075911,1.601661522099264,0.7183346002699155,A,596,Correct
1,relearn,31,772,A,59.721337944702455,84.96598250449205,2.9860668972351228,1.3346425322057553,B,610,Incorrect
1,relearn,31,773,B,48.1543740561465,23.78161654838332,2.4077187028073253,0.3735607591944524,B,640,Correct
1,relearn,31,774,A,30.282996881937823,51.51731597090833,1.514149844096891,0.8092321069343485,A,395,Correct
1,relearn,31,775,A,64.46123028816578,85.51999914649228,3.223061514408289,1.3433450052681275,A,955,Correct
1,relearn,31,776,B,35.50601742684255,24.19430541594113,1.7753008713421274,0.38004326076714195,A,665,Incorrect
1,relearn,31,777,B,61.70322231122833,46.925505699745116,3.0851611155614167,0.7371041198615262,B,423,Correct
1,relearn,31,778,B,62.00743518884224,47.83877988694316,3.100371759442112,0.7514497972475989,B,603,Correct
1,relearn,31,779,A,20.592998717467037,46.94983774832782,1.029649935873352,0.7374863267868972,B,414,Incorrect
1,relearn,31,780,A,60.07796678941217,84.92735118968842,3.003898339470609,1.3340357129318277,B,350,Incorrect
1,relearn,31,781,B,32.1445051183409,10.921191569111617,1.607225255917045,0.1715496760098392,100,532,Incorrect
1,relearn,31,782,B,66.66955961410848,57.5317594563134,3.3334779807054242,0.9037067642802467,B,663,Correct
1,relearn,31,783,A,36.46298427497287,49.72440834094531,1.8231492137486436,0.781069179740064,B,1107,Incorrect
1,relearn,31,784,B,49.85567429026856,37.4764891553572,2.4927837145134277,0.5886793150640386,A,1618,Incorrect
1,relearn,31,785,B,77.41041613043726,63.75255985774643,3.870520806521863,1.0014228684831987,B,1916,Correct
1,relearn,31,786,A,21.56909987772643,48.5285174654003,1.0784549938863215,0.7622841697945277,B,1191,Incorrect
1,relearn,31,787,A,47.0219164764963,60.05036217256285,2.351095823824815,0.9432688832336492,A,514,Correct
1,relearn,31,788,A,42.6055160427867,75.32789217905498,2.1302758021393347,1.1832477634006158,A,1691,Correct
1,relearn,31,789,A,32.785312857215665,50.97196122494166,1.6392656428607832,0.8006656946167026,B,612,Incorrect
1,relearn,31,790,B,83.01411517380589,67.74758702981185,4.150705758690294,1.0641766085564603,A,654,Incorrect
1,relearn,31,791,B,55.91509861507741,24.722369339558256,2.7957549307538705,0.38833806948244876,A,842,Incorrect
1,relearn,31,792,A,33.40308584184881,62.27772499716764,1.6701542920924402,0.9782562166669363,B,400,Incorrect
1,relearn,31,793,B,77.55836056444193,51.173453679587595,3.8779180282220964,0.8038307306930498,A,503,Incorrect
1,relearn,31,794,A,67.6406514479387,81.8590175931916,3.382032572396935,1.2858384415042416,B,386,Incorrect
1,relearn,31,795,A,46.78883781395266,77.44357122362553,2.339441890697633,1.2164807721194992,A,353,Correct
1,relearn,31,796,B,68.10323151549743,46.62854318818512,3.4051615757748714,0.7324394436379836,B,512,Correct
1,relearn,31,797,B,41.157397055080324,20.824475078183987,2.057869852754016,0.3271100896024327,A,580,Incorrect
1,relearn,31,798,A,38.14332987378536,54.83947546659723,1.9071664936892683,0.8614164662628977,B,573,Incorrect
1,relearn,31,799,A,63.69740839919213,87.17163319847062,3.1848704199596063,1.369288812288697,A,767,Correct
1,relearn,31,800,A,22.00207671877945,53.511711000905876,1.1001038359389725,0.8405599908073302,B,1770,Incorrect
1,relearn,31,801,B,69.48443282808229,39.455960597787765,3.4742216414041143,0.6197727797716919,A,693,Incorrect
1,relearn,31,802,A,14.216524151010585,39.71570563698509,0.7108262075505293,0.6238528453064356,B,686,Incorrect
1,relearn,31,803,B,73.92567663613247,62.65783171095372,3.6962838318066233,0.9842269189649889,B,247,Correct
1,relearn,31,804,A,39.70970233989132,64.90344161247386,1.9854851169945662,1.0195008768122096,B,339,Incorrect
1,relearn,31,805,A,34.922547196762544,60.597504377559915,1.746127359838127,0.9518633728920878,B,460,Incorrect
1,relearn,31,806,B,61.66291509171995,30.766736845267875,3.0831457545859973,0.48328277224011984,B,406,Correct
1,relearn,31,807,A,35.34712679604739,49.28046989916904,1.7673563398023697,0.7740958110034118,B,524,Incorrect
1,relearn,31,808,B,39.30235956398939,13.198032005152669,1.9651179781994697,0.20731420194615294,A,478,Incorrect
1,relearn,31,809,B,38.484858297201754,12.886911364543419,1.9242429148600877,0.2024271303515621,B,568,Correct
1,relearn,31,810,B,82.34226608323128,68.38019263847671,4.117113304161564,1.0741135542204665,A,1738,Incorrect
1,relearn,31,811,B,58.00811694579935,49.468549350300925,2.9004058472899676,0.7770501561132476,B,72,Correct
1,relearn,31,812,A,47.76041584594379,75.09518675963797,2.388020792297189,1.1795924352201608,B,387,Incorrect
1,relearn,31,813,B,30.283277054011236,13.371803670316382,1.5141638527005619,0.21004380087955488,A,412,Incorrect
1,relearn,31,814,A,32.95693191803244,48.3757851694488,1.647846595901622,0.759885056499892,B,189,Incorrect
1,relearn,31,815,A,54.11796939296682,67.00955643466226,2.705898469648341,1.052583651077228,A,273,Correct
1,relearn,31,816,B,63.95654480758247,44.59131625092178,3.197827240379123,0.7004387577389751,B,600,Correct
1,relearn,31,817,A,39.19204133060401,70.64284383275036,1.9596020665302007,1.1096551960682979,B,509,Incorrect
1,relearn,31,818,A,16.653808176887164,34.60511582682915,0.8326904088443583,0.5435758882909517,A,389,Correct
1,relearn,31,819,B,73.30012949857083,56.251840880661454,3.665006474928541,0.8836018503079401,A,522,Incorrect
1,relearn,31,820,A,35.96713161099308,49.39838850107207,1.798356580549654,0.7759480720707127,B,197,Incorrect
1,relearn,31,821,B,70.79680913851578,45.6335841268375,3.539840456925789,0.7168106632492224,A,360,Incorrect
1,relearn,31,822,A,49.32340152316894,75.7006827667146,2.466170076158447,1.1891035442582103,A,502,Correct
1,relearn,31,823,B,43.91360877538587,17.744031611818357,2.195680438769293,0.27872259678376804,B,420,Correct
1,relearn,31,824,B,44.41142664891829,26.957322282538076,2.2205713324459144,0.4234446282163703,B,364,Correct
1,relearn,31,825,B,50.49229650315696,34.42700412762577,2.524614825157848,0.540778116262273,B,1343,Correct
1,relearn,31,826,B,77.64485045375818,60.12243621530689,3.882242522687909,0.9444010196496452,A,1558,Incorrect
1,relearn,31,827,B,52.693222001176665,43.5436360626331,2.634661100058833,0.6839818358247787,B,512,Correct
1,relearn,31,828,A,17.939089289695577,39.12676779058755,0.8969544644847788,0.6146018312481178,B,1218,Incorrect
1,relearn,31,829,A,51.9958172431265,65.59372081745833,2.599790862156325,1.0303437572087348,A,978,Correct
1,relearn,31,830,B,74.0140014197785,59.970231465606275,3.7007000709889244,0.9420101930321406,A,2007,Incorrect
1,relearn,31,831,A,39.8274814930179,68.31889528492667,1.991374074650895,1.0731506976424798,B,248,Incorrect
1,relearn,31,832,B,68.49837590656341,45.76119599310094,3.4249187953281703,0.7188151857570431,B,340,Correct
1,relearn,31,833,A,60.508895763257925,80.51766902117802,3.025444788162896,1.2647685874055365,B,379,Incorrect
1,relearn,31,834,B,59.95603234665712,34.50224294161316,2.997801617332856,0.541959964788711,A,369,Incorrect
1,relearn,31,835,A,23.75175591891296,54.90163059327509,1.187587795945648,0.8623927967096683,107,194,Correct
1,relearn,31,836,A,36.358292374397955,58.81130268569395,1.8179146187198978,0.923805782327109,100,37,Correct
1,relearn,31,837,A,57.00032548451663,85.60905769756332,2.8500162742258315,1.3447439337170481,107,219,Correct
1,relearn,31,838,A,58.72652852431804,83.56695623022246,2.936326426215902,1.3126666788786332,100,164,Correct
1,relearn,31,839,A,18.4900277708834,33.999545974833346,0.9245013885441701,0.5340636192996243,107,29,Correct
1,relearn,31,840,A,46.9274232949173,78.46827391110675,2.346371164745865,1.232576764295023,107,73,Correct
1,relearn,31,841,A,32.81506174465296,50.89266200650698,1.640753087232648,0.7994200654063535,107,187,Correct
1,relearn,31,842,A,36.49734465345532,57.6187339361568,1.824867232672766,0.9050729562148754,107,158,Correct
1,relearn,31,843,A,55.70481749533019,75.60840724061121,2.7852408747665094,1.1876540836836476,100,205,Correct
1,relearn,31,844,B,48.42351407810301,35.13314640563385,2.4211757039051505,0.5518701732271697,107,106,Incorrect
1,relearn,31,845,A,22.086910456484222,45.309016200843914,1.1043455228242112,0.7117123621897607,107,50,Correct
1,relearn,31,846,A,42.59450725543118,75.04887638121949,2.129725362771559,1.1788649934970383,100,60,Incorrect
1,relearn,31,847,A,15.96280243807443,45.832108390770294,0.7981401219037215,0.7199290750948752,100,195,Correct
1,relearn,31,848,A,30.84880301477411,43.27158607045135,1.5424401507387053,0.6797084845405419,107,27,Correct
1,relearn,31,849,B,54.46379216519733,29.800497864903342,2.7231896082598666,0.46810512582849323,100,158,Correct
1,relearn,31,850,A,20.04025880340112,46.284276111743644,1.002012940170056,0.727031709046877,107,9,Incorrect
1,relearn,31,851,A,42.48871265644933,60.102336187474094,2.1244356328224665,0.9440852891507631,107,36,Incorrect
1,relearn,31,852,A,24.97292121612601,40.73086754203584,1.2486460608063006,0.6397989712219937,107,26,Correct
1,relearn,31,853,B,32.88641113671066,16.409779490173424,1.644320556835533,0.25776421346678646,107,105,Incorrect
1,relearn,31,854,A,63.274302118821296,79.40484936519135,3.163715105941065,1.2472884571254463,107,34,Incorrect
1,relearn,31,855,B,68.79650442356333,46.57208721937436,3.4398252211781664,0.7315526353536479,100,2498,Correct
1,relearn,31,856,B,71.3168427266351,52.889595185853054,3.565842136331755,0.8307878184360703,100,1725,Correct
1,relearn,31,857,B,59.72394340509068,37.845161945476114,2.986197170254534,0.5944704137091188,100,603,Correct
1,relearn,31,858,A,32.25813662186575,52.55941221324391,1.6129068310932877,0.8256013164306236,100,813,Incorrect
1,relearn,31,859,B,64.93617910572172,41.04262945486222,3.2468089552860864,0.6446961158970161,100,431,Correct
1,relearn,31,860,B,75.4135573355724,52.626105705089,3.7706778667786205,0.8266489353507376,107,455,Incorrect
1,relearn,31,861,B,84.77240994419917,55.08349085942911,4.238620497209959,0.865249451090315,100,356,Correct
1,relearn,31,862,B,35.40010632541781,14.43169432772915,1.7700053162708906,0.22669252439423693,100,349,Correct
1,relearn,31,863,A,33.6764132670754,57.29946245090193,1.6838206633537698,0.9000578514519884,100,606,Incorrect
1,relearn,31,864,A,43.95738325091714,69.80424101895551,2.197869162545857,1.0964824538728097,100,490,Incorrect
1,relearn,31,865,B,89.07672082190521,68.14128387909564,4.45383604109526,1.0703607842037175,100,852,Correct
1,relearn,31,866,B,83.13502593785162,63.46232392208496,4.1567512968925815,0.9968638530667895,100,590,Correct
1,relearn,31,867,A,27.70323771597604,59.31679155804032,1.3851618857988022,0.9317459829662826,107,365,Correct
1,relearn,31,868,B,58.14989899832851,27.926171350648815,2.9074949499164258,0.43866327379044034,100,408,Correct
1,relearn,31,869,A,64.2817085045741,78.74010464953442,3.214085425228705,1.2368466715493442,100,428,Incorrect
1,relearn,31,870,B,62.05594016010758,45.24994528358276,3.1027970080053793,0.7107844783912185,100,348,Correct
1,relearn,31,871,A,50.539783315879944,61.54213143799677,2.5269891657939976,0.9667015400593406,B,776,Incorrect
1,relearn,31,872,B,38.40431852009729,21.47418668065593,1.9202159260048646,0.3373157355888222,A,303,Incorrect
1,relearn,31,873,B,69.45420726525037,52.919898195001224,3.472710363262519,0.831263816990678,A,363,Incorrect
1,relearn,31,874,A,18.86164533540371,47.211044485465024,0.9430822667701855,0.7415893526191892,100,813,Incorrect
1,relearn,31,875,B,49.643138097250095,31.533678962160835,2.4821569048625047,0.49532987084091745,100,361,Correct
1,relearn,31,876,A,49.864047222233765,80.7311716382652,2.4932023611116882,1.268122278672353,100,534,Incorrect
1,relearn,31,877,A,41.49220761766022,65.3502677664444,2.074610380883011,1.026519605625938,107,338,Correct
1,relearn,31,878,A,34.786440398355786,66.38377421850645,1.7393220199177892,1.042753887012117,100,556,Incorrect
1,relearn,31,879,B,37.00168091264506,22.09357468285305,1.8500840456322527,0.3470450595759429,100,188,Correct
1,relearn,31,880,A,60.56647268494923,83.28534837594506,3.028323634247462,1.308243193047678,100,634,Incorrect
1,relearn,31,881,A,54.609079224166464,62.01209009828581,2.7304539612083234,0.9740836334326153,100,187,Incorrect
1,relearn,31,882,B,84.14327137505575,68.45549887107195,4.2071635687527875,1.07529646175592,107,216,Incorrect
1,relearn,31,883,B,77.66314222960861,65.2372233251389,3.883157111480431,1.0247439076942653,107,295,Incorrect
1,relearn,31,884,B,48.97350105629391,39.682271667351515,2.4486750528146954,0.6233276657395296,100,256,Correct
1,relearn,31,885,A,63.575715589346956,85.5228166420978,3.1787857794673475,1.3433892623856067,107,300,Correct
1,relearn,31,886,B,31.89046242094946,12.392705318685543,1.594523121047473,0.19466415993642824,107,412,Incorrect
1,relearn,31,887,B,35.72682065047168,13.908147763789653,1.7863410325235838,0.21846867419881444,100,335,Correct
1,relearn,31,888,A,59.27270298305688,85.81091839267444,2.963635149152844,1.3479147541010963,100,289,Incorrect
1,relearn,31,889,A,63.85864728428074,77.32514244628076,3.192932364214037,1.2146204972350996,B,277,Incorrect
1,relearn,31,890,A,22.2355336077906,47.720971305125325,1.11177668038953,0.7495992643717552,B,483,Incorrect
1,relearn,31,891,A,35.37936317404051,52.87579179346836,1.7689681587020258,0.8305709952555185,A,275,Correct
1,relearn,31,892,B,56.54618022838332,44.647765648289024,2.827309011419166,0.7013254627993176,B,448,Correct
1,relearn,31,893,B,82.66591078611114,54.39968174500033,4.133295539305557,0.8545082026385791,B,581,Correct
1,relearn,31,894,A,65.06815439055121,76.80568954096194,3.253407719527561,1.2064609500789223,A,457,Correct
1,relearn,31,895,A,50.07851971164936,69.67377802892237,2.5039259855824683,1.0944331460175423,B,935,Incorrect
1,relearn,31,896,A,32.23025432267226,54.94006807522759,1.6115127161336131,0.8629965712642906,A,720,Correct
1,relearn,31,897,A,65.58259010241511,77.0454680120174,3.2791295051207556,1.2102273814947064,A,633,Correct
1,relearn,31,898,B,47.50588796398524,23.347461482924466,2.375294398199262,0.36674106737363077,B,1081,Correct
