experiment,condition,subject,trial,cat,x,y,xt,yt,resp,rt,fb
1,relearn,1,0,A,18.087333473959927,41.171265505377775,0.9043666736979964,0.6467167262534484,A,1116,Correct
1,relearn,1,1,A,56.30572845646253,69.96238672165529,2.8152864228231267,1.098966600761802,B,927,Incorrect
1,relearn,1,2,A,40.6132471690825,71.54185495309166,2.030662358454125,1.1237768297240964,A,681,Correct
1,relearn,1,3,A,33.24775389988295,50.98043144693135,1.6623876949941476,0.800798744552588,A,944,Correct
1,relearn,1,4,A,39.86874670459019,51.39052186861656,1.9934373352295094,0.807240429832957,B,1018,Incorrect
1,relearn,1,5,A,14.427033142333087,32.75624593101935,0.7213516571166544,0.5145339078803547,A,808,Correct
1,relearn,1,6,A,56.488893615984665,80.27528428661046,2.8244446807992336,1.2609612168982378,A,2592,Correct
1,relearn,1,7,B,67.30921622774578,38.6674325376361,3.3654608113872886,0.6073866099670826,A,1134,Incorrect
1,relearn,1,8,B,43.15948512239148,31.967578307151328,2.1579742561195743,0.5021455458140152,A,2592,Incorrect
1,relearn,1,9,B,53.2313911634464,44.12924544691884,2.66156955817232,0.6931805665225053,B,912,Correct
1,relearn,1,10,A,45.11929740041018,60.31372984831329,2.255964870020509,0.9474058530103022,B,1805,Incorrect
1,relearn,1,11,A,46.6634874925593,76.9071794455541,2.3331743746279647,1.2080551497723235,B,3046,Incorrect
1,relearn,1,12,A,14.155779712964431,36.77656882743736,0.7077889856482216,0.577684992262583,A,1828,Correct
1,relearn,1,13,B,66.05120337275068,45.089928252357424,3.3025601686375343,0.7082709367424846,B,1388,Correct
1,relearn,1,14,B,31.322512219605425,13.852696879510983,1.5661256109802713,0.21759765374538978,A,1073,Incorrect
1,relearn,1,15,B,72.35956676334709,56.81374906294174,3.617978338167354,0.8924282833951588,B,1626,Correct
1,relearn,1,16,B,53.102716858539345,37.43056843509526,2.6551358429269674,0.5879579940769263,B,611,Correct
1,relearn,1,17,A,32.719209294118265,60.59351610392697,1.6359604647059132,0.9518007252363588,A,909,Correct
1,relearn,1,18,A,30.77961043608656,44.89848830024522,1.5389805218043282,0.7052638050066883,A,719,Correct
1,relearn,1,19,B,84.01375894009524,59.716949309000725,4.200687947004763,0.9380316462197538,B,628,Correct
1,relearn,1,20,B,56.17800225526838,38.41712224488806,2.808900112763419,0.6034547450830069,B,452,Correct
1,relearn,1,21,A,19.482691033039636,32.910863682630215,0.9741345516519817,0.516962637843231,A,880,Correct
1,relearn,1,22,B,53.70546640560548,45.93640243029654,2.685273320280274,0.7215673220368198,B,465,Correct
1,relearn,1,23,B,49.25443073120239,18.432111158345435,2.462721536560119,0.28953092502604233,B,509,Correct
1,relearn,1,24,A,28.436091110430695,47.460205882997386,1.4218045555215348,0.7455031706994183,B,978,Incorrect
1,relearn,1,25,B,49.64979693185918,37.65147199725152,2.482489846592959,0.591427939117036,B,525,Correct
1,relearn,1,26,B,49.9152761191908,41.50779133613234,2.4957638059595397,0.6520028616416571,B,479,Correct
1,relearn,1,27,A,54.064271756445635,66.01499816807802,2.703213587822282,1.0369611663578877,B,920,Incorrect
1,relearn,1,28,A,38.63265320568747,67.3598243222215,1.9316326602843734,1.0580856461889505,A,596,Correct
1,relearn,1,29,B,61.08274985094287,30.93146984653519,3.0541374925471434,0.4858703921730458,A,522,Incorrect
1,relearn,1,30,B,82.6578374798028,58.940108400057106,4.13289187399014,0.9258290577570272,B,2753,Correct
1,relearn,1,31,A,63.60598367815335,73.86836427579998,3.1802991839076675,1.1603215527077393,B,788,Incorrect
1,relearn,1,32,A,44.92526716298966,73.45923629948885,2.246263358149483,1.1538949854839542,A,1274,Correct
1,relearn,1,33,A,25.417724246743873,38.00391268510988,1.2708862123371936,0.5969640644960457,A,1961,Correct
1,relearn,1,34,A,66.75923042904242,80.87829989818461,3.337961521452121,1.2704333639748444,A,1024,Correct
1,relearn,1,35,A,46.750049890983334,56.65472441853393,2.3375024945491667,0.8899303301221023,A,872,Correct
1,relearn,1,36,B,41.03024158198009,16.745283613790004,2.0515120790990045,0.2630342999168011,A,804,Incorrect
1,relearn,1,37,A,28.47355925822442,43.293586136436254,1.4236779629112208,0.6800540607689253,B,367,Incorrect
1,relearn,1,38,B,62.15108160294879,42.9732111159981,3.1075540801474397,0.6750216217159143,A,652,Incorrect
1,relearn,1,39,A,31.67928464099311,56.284369585081805,1.5839642320496554,0.8841128100021289,A,535,Correct
1,relearn,1,40,A,47.28494044513716,57.449461785426834,2.364247022256858,0.9024140354889225,A,460,Correct
1,relearn,1,41,B,35.774949430959296,11.092772375158017,1.7887474715479648,0.17424486100870112,B,979,Correct
1,relearn,1,42,A,61.86628808964718,71.21790510483125,3.0933144044823586,1.1186882374069642,A,865,Correct
1,relearn,1,43,A,48.27391995811375,72.53044360136175,2.4136959979056876,1.1393055438982347,A,594,Correct
1,relearn,1,44,A,60.452332639116364,78.5345000148397,3.0226166319558185,1.2336170414998395,A,1479,Correct
1,relearn,1,45,A,27.581532521509843,54.96203121870977,1.379076626075492,0.8633415675153575,A,477,Correct
1,relearn,1,46,A,24.998288763900035,52.03637212742483,1.2499144381950018,0.8173854219749127,A,959,Correct
1,relearn,1,47,A,39.71054729150824,66.24346444920917,1.9855273645754121,1.0405499063098607,A,170,Correct
1,relearn,1,48,A,63.32427993372157,78.52658251062554,3.1662139966860785,1.2334926736344698,A,998,Correct
1,relearn,1,49,B,67.43168901593569,39.72508487348005,3.3715844507967847,0.6240001740087797,A,546,Incorrect
1,relearn,1,50,A,56.42702509035942,66.63024154875258,2.8213512545179706,1.0466253867823725,A,1459,Correct
1,relearn,1,51,A,56.443022906813226,84.11330746630557,2.822151145340661,1.3212487440264256,A,798,Correct
1,relearn,1,52,A,31.6746382256505,64.90063807474324,1.583731911282525,1.0194568389445169,A,1198,Correct
1,relearn,1,53,B,67.02279715429457,41.27482400109068,3.351139857714728,0.6483434193001907,A,800,Incorrect
1,relearn,1,54,B,76.05482259022924,55.09053984544851,3.802741129511462,0.8653601763037839,B,710,Correct
1,relearn,1,55,B,74.68388405613545,63.601044593227755,3.7341942028067727,0.9990428722736057,A,1633,Incorrect
1,relearn,1,56,B,49.47083852845002,36.45032657149733,2.473541926422501,0.5725603908898241,B,1007,Correct
1,relearn,1,57,A,31.63256482026007,62.13517861810035,1.5816282410130038,0.9760171033805682,A,741,Correct
1,relearn,1,58,B,31.78811486856514,11.512491607926329,1.589405743428257,0.1808377952998775,A,916,Incorrect
1,relearn,1,59,A,60.76945487314422,88.01964674421649,3.038472743657211,1.3826093779159963,A,1796,Correct
1,relearn,1,60,A,28.984688236469864,49.19318196763795,1.4492344118234934,0.7727246953811862,B,648,Incorrect
1,relearn,1,61,B,73.65718515046471,55.91500436881768,3.6828592575232357,0.8783108347525941,A,626,Incorrect
1,relearn,1,62,A,32.850597119965045,51.77655834602028,1.6425298559982522,0.813304276640103,A,1437,Correct
1,relearn,1,63,B,86.06454643583115,58.27596551659912,4.3032273217915575,0.9153967257389996,A,1113,Incorrect
1,relearn,1,64,B,63.63541861475979,44.30833962550684,3.1817709307379896,0.695993771301269,B,1423,Correct
1,relearn,1,65,B,39.40346291602438,18.018666434119414,1.970173145801219,0.2830365504845727,A,963,Incorrect
1,relearn,1,66,A,51.057454501911835,63.9247478812978,2.5528727250955914,1.0041275916323242,B,404,Incorrect
1,relearn,1,67,A,30.877388698560193,52.52123952241567,1.5438694349280095,0.8250017012052547,A,831,Correct
1,relearn,1,68,A,32.84899765868251,64.27307305796377,1.6424498829341252,1.009599070712695,A,815,Correct
1,relearn,1,69,A,49.42749785643443,60.02814095777393,2.4713748928217214,0.9429198332079758,B,889,Incorrect
1,relearn,1,70,A,26.33861737849322,48.09780777140014,1.3169308689246608,0.7555185977420237,A,615,Correct
1,relearn,1,71,A,38.4626103787776,58.11626756982408,1.9231305189388797,0.9128881962570903,A,653,Correct
1,relearn,1,72,B,73.49412845435351,54.12022242240842,3.674706422717676,0.8501184658644195,A,1106,Incorrect
1,relearn,1,73,A,53.493422227157744,71.24115699318627,2.6746711113578874,1.1190534772151557,A,495,Correct
1,relearn,1,74,A,18.364684226866558,46.03916562723747,0.9182342113433279,0.7231815225596648,B,789,Incorrect
1,relearn,1,75,A,43.80507948416797,58.34633954499613,2.1902539742083986,0.9165021583920773,A,680,Correct
1,relearn,1,76,A,50.701958966815354,81.39570114525483,2.535097948340768,1.2785606837586143,A,1005,Correct
1,relearn,1,77,B,54.9044791075892,40.39428368667609,2.7452239553794597,0.6345119243854181,A,2184,Incorrect
1,relearn,1,78,B,39.375100648332804,28.810980904439162,1.9687550324166403,0.4525618297605094,B,569,Correct
1,relearn,1,79,A,38.0001848815172,62.18766426524608,1.90000924407586,0.9768415459980279,B,618,Incorrect
1,relearn,1,80,B,69.07576138420677,51.74786404048357,3.4537880692103387,0.812853547542733,A,388,Incorrect
1,relearn,1,81,B,64.70871502160693,53.620966674363835,3.235435751080347,0.8422761749128227,B,1949,Correct
1,relearn,1,82,A,54.08162618875838,64.4699820993148,2.704081309437919,1.0126921107013642,B,772,Incorrect
1,relearn,1,83,A,53.01752601638109,61.68007224701226,2.6508763008190543,0.9688683092205069,B,549,Incorrect
1,relearn,1,84,A,38.78498997587264,65.62779487284858,1.939249498793632,1.030878991219195,A,331,Correct
1,relearn,1,85,B,34.81445251596114,18.462976461658307,1.740722625798057,0.2900157560767351,A,703,Incorrect
1,relearn,1,86,B,40.25481782234894,21.41524556217619,2.012740891117447,0.33638989066477065,B,828,Correct
1,relearn,1,87,A,60.26917467805049,75.41755036232405,3.0134587339025245,1.1846561108500775,A,626,Correct
1,relearn,1,88,A,29.858121015133698,42.52918619884545,1.4929060507566847,0.6680468946272264,B,1120,Incorrect
1,relearn,1,89,A,66.7948369428433,88.1967818372163,3.339741847142165,1.3853918094503022,A,289,Correct
1,relearn,1,90,A,28.565356427787705,45.58816305259107,1.4282678213893854,0.7160971906833689,A,834,Correct
1,relearn,1,91,A,55.50732090018644,68.37729641050824,2.775366045009322,1.074068060377922,A,989,Correct
1,relearn,1,92,B,76.49380998025545,45.930738907597195,3.8246904990127724,0.7214783596302909,A,928,Incorrect
1,relearn,1,93,B,51.07727227955414,35.29513598296164,2.5538636139777067,0.5544146995576252,B,930,Correct
1,relearn,1,94,B,82.20793083676892,60.98251156673234,4.110396541838446,0.9579110516775046,B,757,Correct
1,relearn,1,95,A,59.422267479292685,72.12988321392567,2.9711133739646347,1.133013556045793,A,1206,Correct
1,relearn,1,96,A,27.71912378341599,44.80491640029085,1.3859561891707994,0.7037939810392928,B,758,Incorrect
1,relearn,1,97,B,85.58717930892402,57.75391355157478,4.279358965446201,0.9071963526484368,A,665,Incorrect
1,relearn,1,98,B,67.22708626993762,51.23052652401152,3.361354313496881,0.8047272288368583,B,715,Correct
1,relearn,1,99,B,66.73186629888446,47.542639132676115,3.336593314944223,0.7467980291574294,B,601,Correct
1,relearn,1,100,A,31.29583467020593,61.95679049181108,1.5647917335102965,0.9732149892453783,B,779,Incorrect
1,relearn,1,101,A,26.227269077017404,49.137660412485445,1.3113634538508703,0.7718525648322714,A,350,Correct
1,relearn,1,102,A,30.21185308598073,41.434697344433346,1.5105926542990367,0.6508547039049415,A,622,Correct
1,relearn,1,103,B,48.15414158023647,24.466131588159637,2.407707079011823,0.38431309629561755,A,568,Incorrect
1,relearn,1,104,B,30.898265542416404,16.733944635205958,1.54491327712082,0.26285618765770685,B,594,Correct
1,relearn,1,105,B,60.25946009437406,37.29177794588929,3.012973004718703,0.5857778781705382,A,1546,Incorrect
1,relearn,1,106,B,53.75386069930224,27.719747909010447,2.6876930349651116,0.4354207819515412,B,340,Correct
1,relearn,1,107,A,25.559727767151813,56.787916835050176,1.2779863883575906,0.8920225117083089,B,437,Incorrect
1,relearn,1,108,A,40.99712922204887,58.40613841048806,2.0498564611024435,0.9174414767746896,A,385,Correct
1,relearn,1,109,A,38.62455315855628,51.12518642630258,1.9312276579278143,0.8030725504514039,A,1234,Correct
1,relearn,1,110,B,37.667500936914024,21.11397632730047,1.8833750468457011,0.3316575645895798,A,2025,Incorrect
1,relearn,1,111,B,58.90818479951654,28.753461448606487,2.945409239975827,0.45165831626109737,B,547,Correct
1,relearn,1,112,A,27.690658333870562,47.42569127094404,1.384532916693528,0.7449610164410769,B,507,Incorrect
1,relearn,1,113,A,45.73124411908733,67.81773083896024,2.2865622059543664,1.0652784249340372,A,428,Correct
1,relearn,1,114,B,32.75210736360641,14.78504424806549,1.6376053681803204,0.23224293196361284,B,1198,Correct
1,relearn,1,115,A,38.411183011464324,60.98850982099646,1.920559150573216,0.9580052720351571,A,708,Correct
1,relearn,1,116,B,49.285879772028935,35.419417560290306,2.4642939886014466,0.5563669100091867,B,516,Correct
1,relearn,1,117,B,73.138057631791,54.29474516983546,3.6569028815895503,0.8528598627704249,A,393,Incorrect
1,relearn,1,118,A,40.686557207323496,56.04169414184566,2.0343278603661745,0.8803008730537424,B,295,Incorrect
1,relearn,1,119,B,81.88441324432048,51.01649544053365,4.094220662216024,0.8013652364393887,B,1685,Correct
1,relearn,1,120,A,34.774657807598075,51.27294180625165,1.738732890379904,0.8053934865322858,A,479,Correct
1,relearn,1,121,A,23.871222660883504,34.540965723009215,1.193561133044175,0.5425682208165131,B,739,Incorrect
1,relearn,1,122,B,50.822542918268596,21.685915453671583,2.5411271459134297,0.34064156337812,A,356,Incorrect
1,relearn,1,123,A,10.360623841417436,33.27331767268466,0.5180311920708718,0.5226560518053278,A,1189,Correct
1,relearn,1,124,A,60.38995805931551,87.75800102768184,3.0194979029657754,1.378499456611454,B,893,Incorrect
1,relearn,1,125,B,35.979886538276375,20.134657604859434,1.7989943269138189,0.3162744620698613,A,471,Incorrect
1,relearn,1,126,B,49.336742248203166,18.70788005168882,2.4668371124101585,0.2938626926731232,B,558,Correct
1,relearn,1,127,A,39.83590988188949,68.29095055678494,1.9917954940944747,1.0727117428792967,A,583,Correct
1,relearn,1,128,B,54.4298252742573,26.159304139211432,2.7214912637128648,0.41090938853383857,B,1483,Correct
1,relearn,1,129,A,27.08747692739307,44.94581694383648,1.3543738463696535,0.7060072416017417,A,453,Correct
1,relearn,1,130,B,76.071505706647,54.03022147006467,3.8035752853323506,0.8487047342109234,A,592,Incorrect
1,relearn,1,131,A,62.24244084831706,72.8477831206296,3.1121220424158533,1.1442903014103623,B,303,Incorrect
1,relearn,1,132,A,39.816937549319775,58.92450857270075,1.9908468774659889,0.9255840162419272,A,374,Correct
1,relearn,1,133,B,34.134705579316375,11.604561931784332,1.7067352789658188,0.18228403256510717,B,914,Correct
1,relearn,1,134,B,66.148616831678,37.46168129365685,3.3074308415839,0.5884467137163727,B,639,Correct
1,relearn,1,135,A,28.837860796893644,39.07879522869862,1.441893039844682,0.6138482800080972,B,809,Incorrect
1,relearn,1,136,B,60.12939668804663,34.63551280315507,3.0064698344023317,0.544053362878536,A,441,Incorrect
1,relearn,1,137,B,46.436377692273474,33.86365884519935,2.321818884613674,0.5319291092587466,B,664,Correct
1,relearn,1,138,B,56.78185729418637,42.00724720816778,2.8390928647093188,0.6598482961335512,B,1159,Correct
1,relearn,1,139,B,64.95455232101295,37.39799042830291,3.2477276160506476,0.5874462599428891,B,575,Correct
1,relearn,1,140,B,87.76069063092939,67.5970938822536,4.388034531546469,1.0618126677225375,B,649,Correct
1,relearn,1,141,B,75.03553743825219,58.86456828010287,3.7517768719126092,0.9246424763275298,B,767,Correct
1,relearn,1,142,B,48.33737121245813,32.466368733436894,2.4168685606229063,0.5099805275085135,B,882,Correct
1,relearn,1,143,B,73.36204123815864,60.65605886813843,3.6681020619079323,0.9527831446792686,B,631,Correct
1,relearn,1,144,B,33.9863387320091,18.823821524067544,1.699316936600455,0.2956838970624801,A,542,Incorrect
1,relearn,1,145,A,53.876924457007696,68.37803953709047,2.6938462228503846,1.0740797333829792,B,558,Incorrect
1,relearn,1,146,B,47.02245487630207,24.319566737947746,2.3511227438151034,0.3820108610121166,A,550,Incorrect
1,relearn,1,147,B,45.17944377811034,16.101286474027134,2.258972188905517,0.25291841650074176,B,436,Correct
1,relearn,1,148,A,41.21504561258378,66.47180111584609,2.0607522806291887,1.0441366102821195,B,392,Incorrect
1,relearn,1,149,B,55.74343094614033,32.882941347580235,2.7871715473070164,0.5165240348299105,A,809,Incorrect
1,relearn,1,150,A,56.10352142679558,72.05089606498464,2.805176071339779,1.1317728288115876,B,288,Incorrect
1,relearn,1,151,B,52.52011835124401,28.689527024208495,2.6260059175622006,0.45065403667109627,A,545,Incorrect
1,relearn,1,152,A,47.2793680411542,58.96111533406644,2.36396840205771,0.9261590339048181,B,1358,Incorrect
1,relearn,1,153,A,40.829191101396056,68.55189861576424,2.0414595550698027,1.0768107054045863,A,666,Correct
1,relearn,1,154,B,52.543414934858085,29.546757465055357,2.627170746742904,0.46411938094808647,A,831,Incorrect
1,relearn,1,155,B,32.71695021472145,12.57103869958382,1.6358475107360726,0.19746541413302757,B,407,Correct
1,relearn,1,156,A,47.19770117966641,66.86616205381172,2.3598850589833207,1.0503312174099975,B,515,Incorrect
1,relearn,1,157,B,66.38895499967688,48.34036773191274,3.3194477499838446,0.7593287206920307,A,797,Incorrect
1,relearn,1,158,A,48.66097973622637,67.65100801297932,2.4330489868113188,1.0626595489076003,B,436,Incorrect
1,relearn,1,159,B,77.09741910407061,53.99263937419937,3.85487095520353,0.8481143960295388,B,433,Correct
1,relearn,1,160,A,29.245617047289443,41.74068965125186,1.4622808523644721,0.6556612198207218,B,508,Incorrect
1,relearn,1,161,A,58.00681157890217,78.57461642427923,2.9003405789451087,1.2342471885857575,A,465,Correct
1,relearn,1,162,B,58.841341078735034,48.00578280610138,2.9420670539367517,0.7540730729673766,A,778,Incorrect
1,relearn,1,163,A,19.04047313023948,40.83824673365595,0.952023656511974,0.6414856796197045,A,1061,Correct
1,relearn,1,164,A,27.092818459059476,49.95520773787734,1.3546409229529737,0.7846945681893372,A,1016,Correct
1,relearn,1,165,B,62.294882442160144,53.1923153023429,3.114744122108007,0.8355429349063621,A,609,Incorrect
1,relearn,1,166,B,76.04305379590897,47.33080450114621,3.8021526897954487,0.7434705385464783,B,1126,Correct
1,relearn,1,167,B,87.82856875735698,69.5369384997141,4.391428437867848,1.0922836757191352,B,811,Correct
1,relearn,1,168,B,71.95622834698457,42.93675173652594,3.5978114173492286,0.6744489191223935,B,875,Correct
1,relearn,1,169,A,40.94853650533398,55.778420734600644,2.047426825266699,0.87616538404331,B,507,Incorrect
1,relearn,1,170,A,43.065581857926965,75.42666653440492,2.1532790928963483,1.184799307346268,A,368,Correct
1,relearn,1,171,A,41.59720330909789,68.47120166415472,2.0798601654548947,1.0755431206528683,A,869,Correct
1,relearn,1,172,B,41.651294941958284,18.35111532540942,2.082564747097914,0.28825864545742647,B,747,Correct
1,relearn,1,173,B,81.91301551565469,67.93849459456409,4.095650775782735,1.067175377571162,A,803,Incorrect
1,relearn,1,174,A,51.557971310428286,62.202159789466265,2.5778985655214144,0.9770692411600285,B,738,Incorrect
1,relearn,1,175,B,35.07248639940605,13.700823270413672,1.7536243199703025,0.21521202867231837,A,578,Incorrect
1,relearn,1,176,B,55.142188439161174,31.377189879334807,2.7571094219580585,0.49287174607605116,B,486,Correct
1,relearn,1,177,A,44.4034427413682,60.34900512144187,2.22017213706841,0.9479599557048729,100,715,Incorrect
1,relearn,1,178,B,44.620826056557696,21.727925570704915,2.231041302827885,0.3413014567533619,A,785,Incorrect
1,relearn,1,179,A,50.66813209046181,75.01190109619856,2.5334066045230905,1.1782841870781076,100,788,Incorrect
1,relearn,1,180,B,79.74085783125264,57.98242343835352,3.987042891562632,0.9107857775563204,B,1798,Correct
1,relearn,1,181,B,66.71841868167371,35.557521120594046,3.3359209340836857,0.5585362356616109,B,945,Correct
1,relearn,1,182,B,82.8607192120576,61.095445524108726,4.14303596060288,0.9596850141316771,B,686,Correct
1,relearn,1,183,A,52.22909930990092,68.9257902393441,2.611454965495046,1.0826837812939725,B,453,Incorrect
1,relearn,1,184,B,80.34582349183354,51.97765091609469,4.017291174591677,0.8164630313442893,A,467,Incorrect
1,relearn,1,185,A,52.54926134994285,68.89580954480061,2.6274630674971426,1.0822128456453357,A,787,Correct
1,relearn,1,186,A,39.392424355542715,57.59372448439207,1.9696212177771357,0.9046801086652035,A,505,Correct
1,relearn,1,187,A,39.20991121640636,60.300472965566264,1.960495560820318,0.9471976143830645,A,407,Correct
1,relearn,1,188,B,49.10688448841218,28.164901105137545,2.4553442244206085,0.4424132320049158,A,754,Incorrect
1,relearn,1,189,B,50.72642572182483,31.70839484945796,2.5363212860912414,0.49807430158090776,A,504,Incorrect
1,relearn,1,190,B,47.58657534550666,29.450905841807703,2.379328767275333,0.462613747170939,A,366,Incorrect
1,relearn,1,191,A,35.630655045547535,45.37526482099346,1.7815327522773767,0.7127529930816222,B,592,Incorrect
1,relearn,1,192,A,39.00901670753963,63.36962399678854,1.9504508353769814,0.9954077260452918,A,622,Correct
1,relearn,1,193,B,48.30167261840932,24.364903286687,2.415083630920466,0.3827230058544084,A,736,Incorrect
1,relearn,1,194,B,43.81685699580005,23.859373506102592,2.1908428497900023,0.37478216263013425,A,577,Incorrect
1,relearn,1,195,B,52.16396561827463,25.308765846249976,2.6081982809137316,0.3975491642700159,B,669,Correct
1,relearn,1,196,A,31.187929148272083,55.831643687907,1.559396457413604,0.8770014082388576,A,989,Correct
1,relearn,1,197,B,64.1263877576071,34.30092479034889,3.2063193878803555,0.5387976666634804,B,655,Correct
1,relearn,1,198,B,31.550077938150643,11.192336843234813,1.5775038969075323,0.17580881601604428,A,661,Incorrect
1,relearn,1,199,B,39.91067355221976,29.928263802797595,1.995533677610988,0.47011206848783127,B,751,Correct
1,relearn,1,200,A,36.07001841566551,65.62946694741233,1.8035009207832755,1.0309052561050236,B,458,Incorrect
1,relearn,1,201,B,44.85091266981086,22.040699698819218,2.242545633490543,0.3462145012689461,A,454,Incorrect
1,relearn,1,202,A,57.57554435400614,74.51562016426381,2.878777217700307,1.1704886244286932,B,1279,Incorrect
1,relearn,1,203,B,74.95678188316272,48.55325857571808,3.747839094158136,0.7626728022466077,A,492,Incorrect
1,relearn,1,204,B,50.73662508364512,29.073993599866192,2.536831254182256,0.45669322351928143,B,592,Correct
1,relearn,1,205,A,27.780809101724117,41.281417453925926,1.3890404550862059,0.6484469890151358,A,936,Correct
1,relearn,1,206,B,77.18166358480873,60.48242360422894,3.8590831792404368,0.9500556883317578,A,795,Incorrect
1,relearn,1,207,B,65.38566662763286,45.89518746502757,3.269283331381643,0.7209199188762849,B,445,Correct
1,relearn,1,208,B,42.515001516216145,26.632087968063,2.1257500758108074,0.4183358595511192,A,724,Incorrect
1,relearn,1,209,B,41.93372212901482,14.580653530393242,2.096686106450741,0.22903237007810745,B,445,Correct
1,relearn,1,210,B,53.11256638261569,30.42451681699799,2.6556283191307846,0.4779071926065,B,493,Correct
1,relearn,1,211,A,31.844422307041892,44.353673998215,1.5922211153520944,0.6967058819625443,B,374,Incorrect
1,relearn,1,212,B,36.33198178826529,20.31515082781089,1.8165990894132644,0.3191096429860965,A,345,Incorrect
1,relearn,1,213,A,48.067958263813594,66.81093499323526,2.4033979131906795,1.0494637127710655,B,533,Incorrect
1,relearn,1,214,B,40.34390445909358,26.57790997022684,2.017195222954679,0.41748483355117777,A,764,Incorrect
1,relearn,1,215,A,53.42359229089153,64.55655274015467,2.6711796145445765,1.0140519591477597,B,436,Incorrect
1,relearn,1,216,A,43.56552366072401,57.67573623146236,2.1782761830362007,0.9059683461757241,B,2217,Incorrect
1,relearn,1,217,A,31.143357105590795,53.42698631555455,1.5571678552795396,0.8392291385619428,A,831,Correct
1,relearn,1,218,B,56.32642622372002,30.848499288321726,2.8163213111860013,0.4845670936923075,B,743,Correct
1,relearn,1,219,A,47.528971732434705,54.13846203668037,2.3764485866217355,0.8504049730554247,A,990,Correct
1,relearn,1,220,A,24.795794827225485,49.46675806743597,1.2397897413612742,0.7770220187078023,A,578,Correct
1,relearn,1,221,B,81.76357920399067,64.3386652517317,4.088178960199533,1.010629390483066,B,749,Correct
1,relearn,1,222,A,39.5959059048002,66.63904626083767,1.9797952952400097,1.0467636908763902,A,1129,Correct
1,relearn,1,223,B,81.75744645356832,62.75419246342463,4.087872322678416,0.985740550125274,B,992,Correct
1,relearn,1,224,A,51.27121279449618,61.7937516359793,2.563560639724809,0.970653980886724,A,623,Correct
1,relearn,1,225,B,79.70625838754455,55.7685607027849,3.9853129193772276,0.8760105030257274,B,583,Correct
1,relearn,1,226,A,65.40770126342926,81.53855028465779,3.270385063171463,1.2808045527932141,B,1837,Incorrect
1,relearn,1,227,B,58.534239893138725,25.685037674528306,2.9267119946569364,0.40345962832737603,A,991,Incorrect
1,relearn,1,228,B,50.77631034403488,33.590607329512075,2.538815517201744,0.5276400260800729,A,1747,Incorrect
1,relearn,1,229,A,12.452960942147964,34.81773821200386,0.6226480471073983,0.5469157529072197,A,1175,Correct
1,relearn,1,230,A,58.77593959331549,74.12993795658387,2.9387969796657747,1.1644303424773554,B,848,Incorrect
1,relearn,1,231,B,64.56948157760431,31.95714233139944,3.228474078880215,0.5019816178902393,A,855,Incorrect
1,relearn,1,232,A,55.5501230032424,78.25390075565527,2.77750615016212,1.2292093986435568,B,875,Incorrect
1,relearn,1,233,A,44.11336211091116,58.375527318077154,2.2056681055455583,0.9169606388595072,A,615,Correct
1,relearn,1,234,A,37.53187365874138,45.48056911993075,1.876593682937069,0.7144071091412862,A,782,Correct
1,relearn,1,235,A,24.321009823692957,57.01906675727446,1.216050491184648,0.8956534061959971,A,538,Correct
1,relearn,1,236,A,42.53326605431087,57.56187766572828,2.1266633027155435,0.9041798600074317,B,707,Incorrect
1,relearn,1,237,B,75.09810274181348,61.27627100546997,3.754905137090674,0.9625254141508086,B,1425,Correct
1,relearn,1,238,A,20.874639785025575,46.8580811212785,1.0437319892512789,0.7360450170596156,A,758,Correct
1,relearn,1,239,A,26.286481161901133,39.61948378412836,1.3143240580950566,0.622341395976188,A,681,Correct
1,relearn,1,240,A,66.4241029181015,87.37828633605383,3.3212051459050747,1.3725349121830606,B,1098,Incorrect
1,relearn,1,241,A,52.5625943090955,82.95792963756955,2.6281297154547754,1.3031001115320373,A,819,Correct
1,relearn,1,242,B,75.9245017381936,54.70945775903025,3.79622508690968,0.8593741528882527,B,1380,Correct
1,relearn,1,243,A,10.74209556640075,34.64930128254441,0.5371047783200374,0.5442699518063046,A,626,Correct
1,relearn,1,244,A,33.010421248026766,41.415509737162346,1.6505210624013384,0.6505533056747288,A,867,Correct
1,relearn,1,245,B,65.44082189018118,41.155341636914606,3.272041094509059,0.6464665947125452,B,1204,Correct
1,relearn,1,246,B,50.98600732279556,26.775483434369065,2.5493003661397777,0.42058831026864535,A,818,Incorrect
1,relearn,1,247,B,49.65983094330301,38.910443593306226,2.4829915471651502,0.6112038187032544,B,647,Correct
1,relearn,1,248,B,63.13027773951015,30.084798485956128,3.156513886975507,0.4725709095410455,B,539,Correct
1,relearn,1,249,A,41.446400328517115,48.92904143738416,2.0723200164258557,0.7685755856343832,A,784,Correct
1,relearn,1,250,A,44.69575138391131,54.98263673743639,2.234787569195565,0.863665238246632,A,600,Correct
1,relearn,1,251,A,33.091602664136055,55.1860996690516,1.6545801332068026,0.8668612265028331,A,406,Correct
1,relearn,1,252,B,41.97104552335792,21.816302640670024,2.0985522761678963,0.34268968052210275,A,487,Incorrect
1,relearn,1,253,B,42.26202768895539,27.017965171770143,2.1131013844477695,0.42439720449288987,107,506,Correct
1,relearn,1,254,A,62.37787254118291,73.98657975378094,3.1188936270591454,1.1621784770935677,A,1212,Correct
1,relearn,1,255,B,37.382016155397295,25.171788878940205,1.869100807769865,0.39539753509895903,A,1157,Incorrect
1,relearn,1,256,B,34.79416306242008,17.787219240464,1.739708153121004,0.27940098646816364,B,757,Correct
1,relearn,1,257,A,55.71304070847671,76.69153073837754,2.785652035423835,1.204667747801213,A,470,Correct
1,relearn,1,258,A,26.9262881017575,51.17757560490904,1.346314405087875,0.8038954777445924,B,1070,Incorrect
1,relearn,1,259,B,74.99414150260824,54.171722146789065,3.7497070751304125,0.8509274216433,A,531,Incorrect
1,relearn,1,260,B,44.68721766182304,19.671709933757384,2.234360883091152,0.3090024970572078,B,666,Correct
1,relearn,1,261,A,67.14100550411924,87.00094498219863,3.3570502752059617,1.366607648057225,B,1498,Incorrect
1,relearn,1,262,A,33.231528298963454,42.900583689728045,1.6615764149481727,0.6738807927718187,A,833,Correct
1,relearn,1,263,A,65.2174622834113,84.3141343554612,3.2608731141705647,1.3244033254244985,B,1180,Incorrect
1,relearn,1,264,B,61.84506356002651,39.62232101591976,3.092253178001325,0.62238596310895,A,396,Incorrect
1,relearn,1,265,B,72.13953933057012,40.734357998894005,3.606976966528506,0.6398537991901101,A,595,Incorrect
1,relearn,1,266,A,30.367006965430154,47.13818250105268,1.5183503482715077,0.7404448392444102,A,1055,Correct
1,relearn,1,267,B,61.75217092081388,37.752116430209824,3.0876085460406943,0.5930088581730686,B,607,Correct
1,relearn,1,268,A,35.53699363979501,57.37782974596927,1.7768496819897504,0.9012888420443149,A,1060,Correct
1,relearn,1,269,A,61.55370153246919,71.96162375977119,3.0776850766234594,1.1303705427204493,B,834,Incorrect
1,relearn,1,270,A,35.53870223327496,46.703693641657935,1.776935111663748,0.7336199042007044,A,941,Correct
1,relearn,1,271,B,67.50207975451178,38.41013739002345,3.375103987725589,0.6033450272393615,B,1379,Correct
1,relearn,1,272,A,10.5184933626198,34.34387704097348,0.52592466813099,0.5394723590385672,A,821,Correct
1,relearn,1,273,B,76.25411395483485,47.37709705046523,3.8127056977417424,0.7441977002107613,A,1389,Incorrect
1,relearn,1,274,B,71.45376124607577,52.64408881050947,3.5726880623037887,0.826931413310126,B,625,Correct
1,relearn,1,275,B,81.66890473279582,65.3108769895743,4.083445236639791,1.0259008567497663,B,781,Correct
1,relearn,1,276,A,50.127305163583,72.43665734430562,2.5063652581791502,1.1378323528173584,B,803,Incorrect
1,relearn,1,277,B,51.460171064706614,26.273400775088803,2.573008553235331,0.41270161429919683,A,770,Incorrect
1,relearn,1,278,B,62.208670802961365,50.223726359329916,3.110433540148068,0.7889124488318744,A,1566,Incorrect
1,relearn,1,279,B,47.15506245010564,36.73435487741765,2.357753122505282,0.5770218970862784,B,474,Correct
1,relearn,1,280,A,33.40291089495581,43.69402313251943,1.6701455447477906,0.6863441103945276,A,1042,Correct
1,relearn,1,281,A,37.85553351071274,59.52474809124169,1.892776675535637,0.9350125565511397,A,648,Correct
1,relearn,1,282,B,50.352745226964885,31.61930118881113,2.517637261348244,0.4966748216320602,A,814,Incorrect
1,relearn,1,283,A,48.434217058775516,80.00156763422929,2.4217108529387756,1.2566616857768085,B,1206,Incorrect
1,relearn,1,284,A,56.936372220099926,77.80987887358839,2.8468186110049967,1.2222347192298848,A,798,Correct
1,relearn,1,285,A,39.530174667102166,71.35397716766145,1.9765087333551081,1.1208256523716955,A,416,Correct
1,relearn,1,286,B,40.48439279853659,30.026734673996096,2.0242196399268293,0.4716588453155802,A,984,Incorrect
1,relearn,1,287,A,47.39102306049077,75.67604649242793,2.3695511530245383,1.1887165585666561,B,607,Incorrect
1,relearn,1,288,B,62.75005131971305,32.66042179171881,3.1375025659856526,0.5130287058200391,A,342,Incorrect
1,relearn,1,289,B,75.31025028300134,48.038956078949084,3.7655125141500667,0.7545941575187459,A,1176,Incorrect
1,relearn,1,290,A,16.40555192621136,43.498403091428244,0.820277596310568,0.6832713179745927,A,598,Correct
1,relearn,1,291,B,40.607552114412684,19.416338940370288,2.030377605720634,0.3049911388733836,B,2098,Correct
1,relearn,1,292,A,61.8626394283741,82.5076733511751,3.093131971418705,1.2960275023241903,A,1363,Correct
1,relearn,1,293,A,27.65447969817567,41.57415218378049,1.3827239849087833,0.6530452553989442,A,1927,Correct
1,relearn,1,294,B,62.35052456245965,37.22057511426945,3.117526228122982,0.5846594267068799,B,610,Correct
1,relearn,1,295,A,65.05220297571982,82.19590281322874,3.252610148785991,1.2911302221661003,B,596,Incorrect
1,relearn,1,296,B,77.7657125054509,53.36730994968418,3.888285625272545,0.8382917443988863,A,948,Incorrect
1,relearn,1,297,A,26.948450345086844,54.12624568979926,1.3474225172543421,0.8502130791273478,A,769,Correct
1,relearn,1,298,B,51.90662537288322,21.682912655401413,2.595331268644161,0.34059439553319115,A,724,Incorrect
1,relearn,1,299,A,52.44217316791967,67.47790207842064,2.6221086583959834,1.0599404072460885,B,767,Incorrect
1,relearn,1,300,A,62.74743471611359,87.76948421994793,3.13737173580568,1.3786798341737685,B,766,Correct
1,relearn,1,301,B,63.464107838322874,40.96527927865409,3.173205391916144,0.6434811021703694,B,1752,Incorrect
1,relearn,1,302,B,86.47783498001345,60.437915045478775,4.323891749000673,0.9493565495258007,A,53,Incorrect
1,relearn,1,303,A,50.23251264592455,64.47737048267105,2.5116256322962274,1.0128081671557336,B,762,Correct
1,relearn,1,304,B,67.75063238497476,44.860971730807904,3.3875316192487386,0.7046744961120275,A,990,Correct
1,relearn,1,305,A,49.84474465130442,64.57236888328954,2.4922372325652207,1.014300398543163,A,494,Incorrect
1,relearn,1,306,A,59.22248689347788,78.17048867796937,2.9611243446738937,1.2278991647911635,B,616,Incorrect
1,relearn,1,307,B,80.84697771777053,57.505308656065246,4.042348885888527,0.9032912760815405,A,717,Correct
1,relearn,1,308,A,51.08401513665301,71.29460193806878,2.5542007568326506,1.1198929884462276,A,1595,Correct
1,relearn,1,309,B,70.49623149476086,39.34535961075574,3.5248115747380435,0.6180354635299941,B,1020,Correct
1,relearn,1,310,A,60.658394546089724,72.7105771097058,3.032919727304486,1.1421350744306296,B,1190,Incorrect
1,relearn,1,311,A,57.01220693643516,72.13410645225846,2.8506103468217585,1.1330798945183964,A,371,Incorrect
1,relearn,1,312,A,65.9654537020375,85.91663311642522,3.2982726851018747,1.3495753170986549,B,593,Incorrect
1,relearn,1,313,B,39.613509103640205,14.572398115509287,1.9806754551820103,0.2289026943243486,A,760,Incorrect
1,relearn,1,314,A,37.32012151335009,63.181641228333625,1.8660060756675045,0.9924548996233944,B,674,Incorrect
1,relearn,1,315,A,32.24239296846403,47.41195235808233,1.6121196484232017,0.7447452061025035,A,1912,Correct
1,relearn,1,316,B,55.454237831087624,26.751181187840736,2.7727118915543816,0.4202065714728496,A,542,Incorrect
1,relearn,1,317,B,42.66516757201902,31.324369766204274,2.133258378600951,0.4920420496791879,B,745,Correct
1,relearn,1,318,A,56.92600262857839,76.70217845184355,2.846300131428919,1.2048350016932252,A,629,Incorrect
1,relearn,1,319,A,21.25139148649914,35.65286803518376,1.062569574324957,0.5600339414936982,B,530,Correct
1,relearn,1,320,A,17.72849154900694,38.03892129699548,0.8864245774503471,0.5975139784856067,B,407,Correct
1,relearn,1,321,A,21.80541652191421,42.94343930748495,1.0902708260957106,0.6745539672413693,B,495,Correct
1,relearn,1,322,A,46.46313281811393,56.12029697123399,2.3231566409056965,0.8815355634105312,A,729,Incorrect
1,relearn,1,323,B,45.41461350744025,18.409439086617812,2.270730675372013,0.2891747929561365,B,690,Incorrect
1,relearn,1,324,B,71.06153498025638,58.35943514513566,3.5530767490128192,0.9167078635980407,A,338,Correct
1,relearn,1,325,A,35.0859599597501,57.34708213642304,1.7542979979875049,0.9008058597229854,A,541,Incorrect
1,relearn,1,326,A,36.25854975829878,60.01496511091093,1.8129274879149389,0.9427128674894275,B,451,Correct
1,relearn,1,327,B,83.54222515356375,60.013627391712596,4.177111257678188,0.9426918546453973,A,1052,Incorrect
1,relearn,1,328,B,82.88032988669062,62.39358456817298,4.144016494334531,0.9800761345525286,B,593,Incorrect
1,relearn,1,329,A,29.304303768078746,46.12314810819485,1.4652151884039373,0.7245007162856946,A,559,Incorrect
1,relearn,1,330,B,82.38264767457423,55.719740006240684,4.1191323837287115,0.875243629317695,B,628,Incorrect
1,relearn,1,331,B,54.43724130052062,27.106367970413153,2.721862065026031,0.4257858324067581,B,775,Incorrect
1,relearn,1,332,A,40.38015644219034,52.38970232671741,2.019007822109517,0.8229355197668575,A,308,Incorrect
1,relearn,1,333,B,89.10516716391683,65.33452721387278,4.455258358195842,1.0262723536043257,B,753,Correct
1,relearn,1,334,A,21.470431207196448,43.905552898224414,1.0735215603598223,0.6896668121842993,A,927,Incorrect
1,relearn,1,335,B,85.12687802723701,60.11216882502994,4.25634390136185,0.9442397398603172,B,2231,Incorrect
1,relearn,1,336,B,82.19096036652866,66.2497411014533,4.109548018326433,1.0406484997327574,A,294,Incorrect
1,relearn,1,337,A,13.082813805265992,35.14735485296097,0.6541406902632997,0.5520933589958787,A,261,Correct
1,relearn,1,338,B,54.73969556744996,45.59930655433268,2.736984778372498,0.7162722323994021,A,1465,Incorrect
1,relearn,1,339,B,56.35754581229672,33.24574788215812,2.8178772906148364,0.5222229865484319,B,846,Incorrect
1,relearn,1,340,A,40.496042503621204,48.02647558024857,2.02480212518106,0.7543981143035925,A,391,Correct
1,relearn,1,341,B,58.02742016457542,31.285775397770525,2.9013710082287707,0.49143581075748083,A,336,Incorrect
1,relearn,1,342,A,41.715855609233785,71.19362891231872,2.085792780461689,1.1183069078666918,A,670,Correct
1,relearn,1,343,B,77.36970108919319,54.340837581504886,3.8684850544596596,0.8535838806798595,A,442,Incorrect
1,relearn,1,344,B,40.41675623106397,23.619623040265925,2.0208378115531986,0.3710161711192982,B,781,Incorrect
1,relearn,1,345,B,82.02335456584215,63.49419575211172,4.101167728292108,0.9973644946021322,A,366,Incorrect
1,relearn,1,346,B,79.97702414403808,58.139717568077714,3.998851207201904,0.9132565479682919,A,600,Incorrect
1,relearn,1,347,B,41.2351413498635,15.825148949324667,2.061757067493175,0.24858085840581307,B,609,Incorrect
1,relearn,1,348,A,35.889469304479,46.130956282457305,1.79447346522395,0.7246233668001989,A,239,Incorrect
1,relearn,1,349,A,32.57899600991933,57.86635721325875,1.6289498004959666,0.9089626135558821,A,2024,Correct
1,relearn,1,350,B,77.3289268862441,52.952254669837714,3.8664463443122052,0.83177207130889,B,669,Incorrect
1,relearn,1,351,B,70.22588528567455,43.1567811525616,3.5112942642837277,0.6779051331073498,B,673,Correct
1,relearn,1,352,B,72.55073928306194,57.408497809847375,3.627536964153097,0.9017705748652113,B,984,Correct
1,relearn,1,353,A,54.87022383859792,74.78046464467161,2.743511191929896,1.1746487917986579,B,524,Incorrect
1,relearn,1,354,B,70.73323547814017,43.59957344736979,3.5366617739070083,0.6848604982095279,B,806,Incorrect
1,relearn,1,355,A,43.409755258122054,66.67067806840119,2.170487762906103,1.0472605621476967,A,831,Correct
1,relearn,1,356,B,70.48666716281286,38.01943518911136,3.5243333581406433,0.5972078914187277,B,734,Incorrect
1,relearn,1,357,B,49.4565513934558,35.64946829983174,2.47282756967279,0.5599805385756681,A,775,Correct
1,relearn,1,358,B,56.134491880382775,46.37109183975245,2.8067245940191388,0.7283954073135196,A,791,Correct
1,relearn,1,359,A,62.26407770532105,87.12165876787714,3.1132038852660524,1.368503815768598,A,1118,Incorrect
1,relearn,1,360,B,53.35286065824947,27.463090895619274,2.6676430329124736,0.43138922301273125,B,294,Incorrect
1,relearn,1,361,A,35.568976055469165,62.512779588564854,1.7784488027734582,0.9819484455545664,B,1308,Incorrect
1,relearn,1,362,A,44.925989239211134,71.71199389519995,2.2462994619605565,1.1264493659771813,A,510,Incorrect
1,relearn,1,363,A,21.253695442041263,33.86640689338646,1.0626847721020631,0.5319722754987282,A,1197,Incorrect
1,relearn,1,364,B,77.54557663803322,48.98596903470343,3.8772788319016613,0.769469802242007,B,1066,Incorrect
1,relearn,1,365,A,33.729086647384854,49.42591986948145,1.6864543323692427,0.7763805337944035,A,557,Incorrect
1,relearn,1,366,B,72.94213191995206,46.870445535560926,3.6471065959976032,0.7362392368249936,B,293,Correct
1,relearn,1,367,B,59.85495599044455,45.77308254250221,2.992747799522227,0.7190018992384207,B,743,Incorrect
1,relearn,1,368,A,33.27814034655037,42.18172356000133,1.6639070173275186,0.6625889642592784,A,488,Correct
1,relearn,1,369,B,57.979454694524016,46.005708163320044,2.898972734726201,0.7226559739454111,A,1162,Incorrect
1,relearn,1,370,B,40.29317779609745,16.87006236122866,2.0146588898048723,0.26499431989818817,A,647,Correct
1,relearn,1,371,A,42.40700555400043,60.603082620674954,2.1203502777000214,0.9519509957300386,107,481,Correct
1,relearn,1,372,B,67.85779236561295,41.37233908382647,3.392889618280648,0.6498751826378755,A,435,Correct
1,relearn,1,373,B,56.208694018765975,48.02778538898893,2.8104347009382984,0.7544186887311741,A,645,Incorrect
1,relearn,1,374,A,35.494821715080526,57.406720981961065,1.7747410857540262,0.9017426645180396,B,830,Correct
1,relearn,1,375,A,39.73931765780405,70.78025706726953,1.9869658828902026,1.111813678108655,A,389,Incorrect
1,relearn,1,376,B,85.49620826813666,64.4186364831672,4.274810413406833,1.0118855756489475,A,623,Correct
1,relearn,1,377,B,72.25601550494527,45.19115860655833,3.6128007752472633,0.709861059427874,A,406,Incorrect
1,relearn,1,378,B,41.37311454531212,17.61958802482226,2.068655727265606,0.27676784149030154,B,539,Incorrect
1,relearn,1,379,A,45.03311538204072,62.6391898409202,2.251655769102036,0.9839340931552566,A,566,Incorrect
1,relearn,1,380,A,42.934534276621235,56.124767675427925,2.146726713831062,0.8816057890677914,B,543,Correct
1,relearn,1,381,B,46.65474721683339,35.29490509522956,2.3327373608416697,0.5544110727816107,A,577,Incorrect
1,relearn,1,382,A,52.79248672193742,66.77220846445346,2.6396243360968707,1.0488553978794657,B,565,Incorrect
1,relearn,1,383,A,57.45869826678384,74.85459502089735,2.8729349133391917,1.175813229025451,B,1287,Correct
1,relearn,1,384,A,45.095457547737254,61.62169249366479,2.2547728773868627,0.967951282199333,B,978,Incorrect
1,relearn,1,385,B,80.98662721328819,61.25892864519804,4.04933136066441,0.9622530009926775,B,2260,Correct
1,relearn,1,386,B,67.99710450643263,57.993761725763605,3.3998552253216316,0.9109638789584794,B,1101,Correct
1,relearn,1,387,B,50.537384623467666,42.606954941098586,2.526869231173383,0.6692684831739334,A,1229,Incorrect
1,relearn,1,388,A,14.69426942520317,36.62442161038406,0.7347134712601586,0.5752950693657891,A,756,Incorrect
1,relearn,1,389,B,84.04708898336389,61.7036629123428,4.202354449168195,0.9692388705249856,B,1319,Incorrect
1,relearn,1,390,A,32.663100047692055,42.092243969246425,1.6331550023846029,0.6611834221344692,A,2177,Incorrect
1,relearn,1,391,A,55.464611770175026,80.31851361621737,2.773230588508751,1.2616402616198015,B,2412,Correct
1,relearn,1,392,B,68.24789894792784,59.163504074243576,3.412394947396392,0.9293381488013671,B,880,Incorrect
1,relearn,1,393,A,35.0999863532599,66.75589384006005,1.7549993176629952,1.048599128358764,A,1348,Incorrect
1,relearn,1,394,B,80.76253317538533,52.19356378422515,4.038126658769267,0.8198545827459601,B,641,Correct
1,relearn,1,395,A,41.39398557233708,49.11551423564763,2.069699278616854,0.7715046934999775,A,768,Correct
1,relearn,1,396,A,12.466797733149829,38.44927016503189,0.6233398866574915,0.603959723431767,A,609,Correct
1,relearn,1,397,B,62.03226152852674,33.95260594597981,3.1016130764263368,0.5333262870505966,B,717,Correct
1,relearn,1,398,B,81.02508474827553,53.55599147786247,4.051254237413776,0.8412555469128514,B,745,Correct
1,relearn,1,399,B,82.29610562748482,63.350093915303574,4.114805281374242,0.9951009482427059,B,815,Correct
1,relearn,1,400,B,78.96176793028812,48.9030166470272,3.948088396514406,0.7681667891833999,B,525,Correct
1,relearn,1,401,A,33.58772893686047,58.47328242783661,1.6793864468430235,0.9184961725328632,A,612,Correct
1,relearn,1,402,A,65.77391541909657,87.01545026245599,3.2886957709548286,1.3668354964666989,A,389,Incorrect
1,relearn,1,403,A,63.465732192560424,85.21565883916507,3.1732866096280214,1.3385644388996756,B,734,Incorrect
1,relearn,1,404,A,30.57415590576459,60.97111630875252,1.5287077952882298,0.9577320553837286,A,285,Correct
1,relearn,1,405,A,29.972011950175002,58.871907716885154,1.49860059750875,0.9247577639309135,A,760,Incorrect
1,relearn,1,406,A,53.132484613146616,73.34975494044694,2.656624230657331,1.1521752563175987,A,574,Incorrect
1,relearn,1,407,B,59.368957186532626,28.12105893071636,2.968447859326631,0.44172456073952077,B,804,Correct
1,relearn,1,408,A,19.43093798933423,44.29973843510438,0.9715468994667114,0.6958586641183666,A,714,Incorrect
1,relearn,1,409,B,33.83611725726609,10.193332908550268,1.6918058628633046,0.16011649890548302,B,328,Correct
1,relearn,1,410,B,77.79474860560727,54.866564179362534,3.889737430280363,0.8618419747679912,A,814,Correct
1,relearn,1,411,B,65.07168916538559,50.32694218257672,3.2535844582692794,0.7905337591921064,A,1037,Incorrect
1,relearn,1,412,B,32.9145277207994,13.92333023880484,1.64572638603997,0.21870715995866952,A,583,Correct
1,relearn,1,413,B,64.81156541485065,54.60779551723411,3.240578270742532,0.8577772461283816,A,1200,Correct
1,relearn,1,414,A,26.446091654380908,46.29928651507183,1.3223045827190452,0.7272674919109932,A,579,Incorrect
1,relearn,1,415,B,47.861180975907715,31.01827727067791,2.3930590487953856,0.48723396000286495,A,580,Incorrect
1,relearn,1,416,A,23.09267354476683,39.04587840889347,1.1546336772383414,0.6133312238117002,B,2487,Incorrect
1,relearn,1,417,A,43.78162140911305,65.30108891778642,2.1890810704556527,1.0257471060776584,A,557,Correct
1,relearn,1,418,B,62.42371273469389,42.23648866598683,3.1211856367346944,0.6634492125324639,A,519,Correct
1,relearn,1,419,A,24.014902319096958,54.612044729860216,1.200745115954848,0.8578439926042303,A,464,Incorrect
1,relearn,1,420,B,40.95466556464441,21.55184331962795,2.0477332782322204,0.3385355632213072,B,296,Incorrect
1,relearn,1,421,A,24.999748490080698,50.349040581744944,1.2499874245040348,0.7908808800345214,B,657,Correct
1,relearn,1,422,B,57.82086810043839,29.125627716751694,2.8910434050219194,0.45750429033069195,A,1048,Correct
1,relearn,1,423,B,66.32777310383337,35.581361878833164,3.316388655191668,0.5589107254163109,A,913,Incorrect
1,relearn,1,424,A,27.958959590149327,37.321715355267266,1.3979479795074665,0.5862481338973852,B,753,Incorrect
1,relearn,1,425,B,43.46852591050672,22.11076550629862,2.173426295525336,0.34731509239917174,A,886,Incorrect
1,relearn,1,426,A,59.006551570186176,81.60779797636522,2.9503275785093086,1.2818922929909449,B,921,Incorrect
1,relearn,1,427,B,52.16632647733407,21.63893951839043,2.608316323866703,0.3399036671122462,B,813,Incorrect
1,relearn,1,428,A,14.918848504531937,32.48776691600564,0.7459424252265968,0.5103166493743042,B,397,Incorrect
1,relearn,1,429,B,49.894091992819696,20.830138296334688,2.494704599640985,0.32719904722512233,A,1667,Correct
1,relearn,1,430,B,79.25722240394397,48.80177943091472,3.962861120197198,0.7665765587113558,A,889,Correct
1,relearn,1,431,A,49.82156058792764,81.16310834468305,2.491078029396382,1.2749071245908434,A,1281,Incorrect
1,relearn,1,432,B,80.27300811383941,58.709615701666834,4.013650405691971,0.9222084869171825,A,791,Correct
1,relearn,1,433,A,10.658610976033835,33.69617655449223,0.5329305488016918,0.5292983035882872,B,1140,Incorrect
1,relearn,1,434,A,46.38608828212711,74.39007297607982,2.3193044141063557,1.1685165338083048,B,851,Incorrect
1,relearn,1,435,B,57.9621404768998,29.123318208548262,2.89810702384499,0.45746801266066545,B,1217,Incorrect
1,relearn,1,436,B,65.71900930555978,47.929805869998795,3.285950465277989,0.7528796300458658,B,703,Incorrect
1,relearn,1,437,B,46.19290568288798,28.01733893444218,2.3096452841443993,0.4400953308478941,A,727,Correct
1,relearn,1,438,B,82.00756442919685,65.24668053889,4.1003782214598425,1.0248924612604848,A,593,Correct
1,relearn,1,439,A,49.79824114654159,59.33706022809424,2.4899120573270794,0.9320643624909797,A,840,Correct
1,relearn,1,440,B,80.28337507913716,58.62915801384635,4.014168753956858,0.9209446605122742,A,682,Incorrect
1,relearn,1,441,A,23.73809438602404,46.28022744520732,1.1869047193012021,0.7269681127416402,A,929,Incorrect
1,relearn,1,442,A,24.367836334897003,46.91004992385054,1.2183918167448502,0.7368613411014966,A,486,Incorrect
1,relearn,1,443,B,44.50086808259624,36.20842817138338,2.225043404129812,0.5687606597062587,B,1107,Correct
1,relearn,1,444,B,64.85905580007696,41.337790790828606,3.2429527900038475,0.6493324993204949,B,1028,Correct
1,relearn,1,445,A,25.82066915340333,45.281210144495155,1.2910334576701665,0.711275585678008,A,764,Correct
1,relearn,1,446,A,14.982119016385024,30.796418875432085,0.7491059508192512,0.4837490164796573,A,590,Incorrect
1,relearn,1,447,B,34.381005742878685,19.993402351260546,1.7190502871439344,0.3140556297349251,B,599,Correct
1,relearn,1,448,A,58.58621570155228,70.0099554764131,2.929310785077614,1.0997138090142393,A,896,Incorrect
1,relearn,1,449,A,47.1568014468712,54.55752459429632,2.35784007234356,0.8569875923174288,B,385,Incorrect
1,relearn,1,450,A,10.442104557393336,32.856611811774464,0.5221052278696667,0.5161104514486113,A,686,Correct
1,relearn,1,451,A,48.984597920949966,71.32722011181583,2.4492298960474983,1.1204053535213137,A,1345,Incorrect
1,relearn,1,452,B,63.37771300476174,39.76672397627648,3.168885650238087,0.6246542395060164,B,875,Correct
1,relearn,1,453,A,26.55396179498232,57.58249886704822,1.327698089749116,0.9045037770803065,B,559,Correct
1,relearn,1,454,A,14.944133859727543,41.681141228114264,0.7472066929863772,0.654725835377412,B,1337,Incorrect
1,relearn,1,455,B,82.25880589515708,64.43691976422303,4.112940294757854,1.0121727687561903,A,924,Incorrect
1,relearn,1,456,A,32.205334928589615,62.605635674786264,1.6102667464294809,0.9834070255461378,B,631,Incorrect
1,relearn,1,457,A,51.08090554917709,77.3179644195342,2.5540452774588545,1.2145077450546284,A,518,Correct
1,relearn,1,458,A,62.679499154071124,73.47897295768628,3.133974957703556,1.1542050081859516,A,600,Incorrect
1,relearn,1,459,B,59.97478973700472,43.60669162736326,2.998739486850236,0.6849723103193998,A,617,Correct
1,relearn,1,460,A,42.54938996226522,64.56387948544685,2.127469498113261,1.0141670473936828,A,949,Correct
1,relearn,1,461,B,66.23868901910706,49.33968066618595,3.3119344509553525,0.7750258915567806,A,582,Correct
1,relearn,1,462,A,18.75151582582026,35.282703369211106,0.937575791291013,0.5542194085175072,A,320,Incorrect
1,relearn,1,463,B,73.49739801816548,55.048131192661,3.6748699009082744,0.8646940227435547,A,486,Correct
1,relearn,1,464,A,16.745351048611155,46.795799417541176,0.8372675524305577,0.7350666983450442,A,349,Incorrect
1,relearn,1,465,A,44.61633888597861,73.50026666208498,2.2308169442989305,1.1545394889124847,B,913,Incorrect
1,relearn,1,466,B,62.62462846486426,51.48823381237168,3.131231423243213,0.8087752854563023,A,706,Correct
1,relearn,1,467,A,43.04572147669234,63.663102200276,2.1522860738346172,1.0000176708856163,B,964,Correct
1,relearn,1,468,A,48.881181626588436,71.29581820623399,2.444059081329422,1.1199120935418905,B,916,Correct
1,relearn,1,469,A,19.786264098212737,43.78321276606677,0.9893132049106369,0.687745097882171,A,739,Incorrect
1,relearn,1,470,B,67.64917330947712,58.19019890828437,3.382458665473856,0.9140495070059749,A,1027,Correct
1,relearn,1,471,A,24.819641386416897,49.771934649222096,1.2409820693208449,0.781815721244737,A,395,Correct
1,relearn,1,472,B,41.65183324873611,17.751352444342885,2.0825916624368057,0.27883759215215415,A,342,Incorrect
1,relearn,1,473,B,83.95410556322993,61.19788701356394,4.1977052781614965,0.9612941612851535,B,506,Correct
1,relearn,1,474,B,51.296159858987465,24.269069824558777,2.5648079929493734,0.38121765735145785,A,514,Correct
1,relearn,1,475,A,42.380147702434776,72.97050998399291,2.119007385121739,1.146218090472064,A,504,Incorrect
1,relearn,1,476,A,37.54945408832296,68.61004242638252,1.877472704416148,1.0777240262460368,B,698,Incorrect
1,relearn,1,477,A,59.05168456967707,85.9247006304978,2.9525842284838535,1.3497020413133705,B,1022,Incorrect
1,relearn,1,478,B,70.31711319362813,55.161198316288434,3.5158556596814066,0.866470076968307,B,664,Incorrect
1,relearn,1,479,B,74.61935440043894,62.287996566798775,3.730967720021947,0.9784175621054064,A,396,Correct
1,relearn,1,480,B,72.73393307227025,56.69858382378956,3.6366966536135124,0.8906192720488119,A,558,Correct
1,relearn,1,481,A,35.74117232763235,63.04153321306884,1.7870586163816173,0.9902540880660701,A,367,Correct
1,relearn,1,482,B,62.142954322059055,37.532488711445644,3.1071477161029524,0.5895589540340974,A,350,Correct
1,relearn,1,483,B,30.71821327827337,14.811794235931753,1.5359106639136686,0.2326631197904342,A,701,Correct
1,relearn,1,484,A,13.760362531328418,40.13975938537612,0.6880181265664208,0.6305138660097978,A,899,Correct
1,relearn,1,485,B,67.39651793654738,34.025652295259746,3.3698258968273693,0.5344736964219435,B,903,Incorrect
1,relearn,1,486,B,74.61544942908392,54.36547378685911,3.730772471454196,0.8539708652886253,A,691,Incorrect
1,relearn,1,487,B,54.41345534916649,46.555881179760384,2.7206727674583244,0.7312980714786727,A,522,Correct
1,relearn,1,488,B,58.00882545010588,49.60776706067313,2.900441272505294,0.7792369827940223,A,546,Incorrect
1,relearn,1,489,A,22.304725157357538,52.787377887750395,1.115236257867877,0.8291821928721247,A,830,Correct
1,relearn,1,490,A,63.54995916425619,86.96429454983308,3.1774979582128093,1.3660319444118725,A,1767,Correct
1,relearn,1,491,B,66.46560453958287,56.74872683142094,3.323280226979143,0.8914069165708299,A,716,Incorrect
1,relearn,1,492,A,20.686611420670964,47.24140858469754,1.0343305710335482,0.7420663107745978,B,800,Correct
1,relearn,1,493,B,44.343861696422884,36.74197225866323,2.2171930848211443,0.577141550631082,B,630,Incorrect
1,relearn,1,494,A,49.589770250808925,78.2570529108568,2.4794885125404464,1.2292589125816773,A,604,Correct
1,relearn,1,495,B,38.0984166439673,16.67930590875954,1.904920832198365,0.261997924549679,A,647,Correct
1,relearn,1,496,A,55.496908817126965,73.91412461268483,2.774845440856348,1.1610403543986558,A,637,Correct
1,relearn,1,497,B,53.99197826120659,26.526569098392358,2.6995989130603295,0.41667837302225724,A,624,Correct
1,relearn,1,498,B,50.28577663439015,40.62681412322357,2.5142888317195076,0.638164503941386,A,390,Correct
1,relearn,1,499,A,24.367302819089815,35.27708079536576,1.2183651409544907,0.5541310893340733,B,892,Correct
1,relearn,1,500,A,22.895501026588345,38.74567746366276,1.1447750513294173,0.6086156783910127,A,812,Correct
1,relearn,1,501,A,66.18205978667874,82.71896035379586,3.3091029893339368,1.2993463908003522,B,1002,Correct
1,relearn,1,502,A,31.073348067897378,50.867226177504,1.5536674033948688,0.7990205203386849,A,527,Correct
1,relearn,1,503,B,61.84963956151942,30.50651430048594,3.0924819780759707,0.4791952060651929,A,538,Correct
1,relearn,1,504,A,33.55215329717835,53.17009619500221,1.6776076648589173,0.8351939179844076,A,374,Correct
1,relearn,1,505,B,49.84771562827872,24.731431546312862,2.492385781413936,0.3884804182932767,A,454,Correct
1,relearn,1,506,B,52.61816416351157,42.13720679765132,2.630908208175579,0.6618896965914763,A,397,Correct
1,relearn,1,507,A,20.106105835028902,46.75786387279253,1.0053052917514451,0.734470808201583,A,334,Correct
1,relearn,1,508,A,25.538198014016437,37.883156314673144,1.276909900700822,0.5950672278648547,A,451,Correct
1,relearn,1,509,A,30.345912064016456,53.981630061527696,1.5172956032008227,0.8479414621504866,A,292,Correct
1,relearn,1,510,A,31.566475445920325,57.49905628373721,1.5783237722960164,0.9031930640466743,A,267,Incorrect
1,relearn,1,511,A,17.82913294129844,42.31321390888354,0.891456647064922,0.66465440982961,A,311,Incorrect
1,relearn,1,512,A,56.327272427417626,75.58977970624554,2.816363621370881,1.187361483058059,B,298,Correct
1,relearn,1,513,B,82.10284497377782,65.33485920751545,4.105142248688891,1.02627756854827,B,673,Incorrect
1,relearn,1,514,A,45.720784324237776,53.55495806895682,2.2860392162118885,0.8412393141637209,A,257,Incorrect
1,relearn,1,515,A,36.358399064417576,46.450834178085735,1.8179199532208787,0.7296479970349591,B,466,Incorrect
1,relearn,1,516,A,65.89351093275313,85.61674919097358,3.2946755466376567,1.3448647514130123,A,508,Incorrect
1,relearn,1,517,A,25.861167096676976,48.43144532364494,1.2930583548338488,0.7607593641574933,A,401,Correct
1,relearn,1,518,B,85.94681112405773,67.07038135124088,4.297340556202887,1.053539086632621,A,490,Correct
1,relearn,1,519,B,41.07987799471037,16.64624051831829,2.0539938997355187,0.2614785346111875,A,694,Incorrect
1,relearn,1,520,B,80.17780190727112,64.81888720393542,4.008890095363556,1.0181726992687448,B,459,Correct
1,relearn,1,521,A,32.36392876241102,50.13778412884521,1.6181964381205511,0.7875624714322552,A,437,Incorrect
1,relearn,1,522,A,24.500830766556113,56.4442172510323,1.2250415383278055,0.8866236912673465,B,444,Incorrect
1,relearn,1,523,B,40.98357492270906,18.33100099263391,2.049178746135453,0.2879426902570295,A,1341,Incorrect
1,relearn,1,524,B,80.9290678766115,57.014077448158446,4.046453393830575,0.8955750343116703,B,504,Incorrect
1,relearn,1,525,B,68.1734060357822,41.81577332144877,3.4086703017891096,0.6568406313541977,A,1163,Correct
1,relearn,1,526,A,47.573069527232576,72.82660286426233,2.3786534763616287,1.1439576027213394,A,375,Incorrect
1,relearn,1,527,B,46.72012044133545,37.8305066921969,2.3360060220667727,0.5942402095289263,B,609,Correct
1,relearn,1,528,B,70.46995416798934,56.872450429824916,3.523497708399467,0.8933503623099383,A,1036,Incorrect
1,relearn,1,529,A,41.65109954744278,72.38612627731567,2.0825549773721392,1.1370386126731897,B,696,Incorrect
1,relearn,1,530,A,50.13950327517845,62.58422040668614,2.506975163758922,0.9830706353014479,A,479,Incorrect
1,relearn,1,531,A,22.036309173952727,45.555199625665225,1.1018154586976363,0.7155794023840318,A,1894,Correct
1,relearn,1,532,A,43.11535588582121,64.66445745490812,2.1557677942910605,1.0157469224435454,A,1285,Correct
1,relearn,1,533,A,31.308702940938097,59.250874064970674,1.565435147046905,0.9307105534064295,A,701,Incorrect
1,relearn,1,534,A,42.81548598926851,71.10423944582232,2.140774299463425,1.1169027814104249,B,1008,Incorrect
1,relearn,1,535,B,61.11600697124493,39.1708274049623,3.0558003485622462,0.6152939180523165,A,590,Correct
1,relearn,1,536,B,58.794990831742254,41.21439487639532,2.939749541587113,0.6473942008291617,A,584,Incorrect
1,relearn,1,537,A,38.07825780331628,66.91811787649858,1.9039128901658142,1.0511473375643188,B,446,Incorrect
1,relearn,1,538,B,76.0251812684788,59.17863835395808,3.8012590634239403,0.9295758775112093,A,707,Correct
1,relearn,1,539,A,33.69514337764122,56.71245618357373,1.684757168882061,0.8908371785667413,B,792,Correct
1,relearn,1,540,A,17.245922900167702,38.083646035799816,0.862296145008385,0.5982165130399137,A,1336,Incorrect
1,relearn,1,541,B,65.09571085003199,35.02780851866873,3.2547855425015997,0.5502155295679982,B,455,Incorrect
1,relearn,1,542,B,62.045190002462405,31.797251010728118,3.10225950012312,0.4994700508982704,B,605,Incorrect
1,relearn,1,543,A,24.12711738720082,50.218351302203956,1.2063558693600411,0.788828017631977,A,520,Correct
1,relearn,1,544,A,54.81701889346586,79.08326808194619,2.7408509446732925,1.2422370701405716,A,1178,Incorrect
1,relearn,1,545,A,44.14898840375715,75.18657062885316,2.207449420187858,1.181027889681076,B,306,Correct
1,relearn,1,546,B,77.14113376008767,65.13157870124064,3.8570566880043833,1.0230844458226152,A,818,Correct
1,relearn,1,547,B,76.46704137584223,64.9053896962474,3.823352068792111,1.0195314772405673,A,291,Incorrect
1,relearn,1,548,A,32.54436086666373,41.24870753568054,1.6272180433331866,0.6479331828208396,A,578,Incorrect
1,relearn,1,549,B,49.61933028967086,21.135133768350027,2.4809665144835433,0.33198990489643,B,531,Correct
1,relearn,1,550,A,26.94017448505929,59.49719044422147,1.3470087242529647,0.934579682043995,B,726,Correct
1,relearn,1,551,A,51.164756334017426,66.55781835248274,2.5582378167008715,1.0454877658756183,A,1118,Incorrect
1,relearn,1,552,A,50.18155343580565,74.11243515630801,2.5090776717902825,1.1641554091335358,B,462,Correct
1,relearn,1,553,A,37.85081963749081,66.65397358935815,1.8925409818745405,1.0469981688044783,B,437,Correct
1,relearn,1,554,A,47.767051957900385,76.11433649568058,2.388352597895019,1.1956012018384579,A,1996,Incorrect
1,relearn,1,555,B,36.46407275839867,22.79607260685039,1.8232036379199337,0.3580798711619036,B,469,Correct
1,relearn,1,556,B,62.465178484832634,33.190337051263356,3.1232589242416315,0.5213525952520903,B,779,Incorrect
1,relearn,1,557,B,42.68096594894973,20.137214483635734,2.1340482974474866,0.31631462542776007,A,392,Correct
1,relearn,1,558,B,43.76469541363596,34.56704371168878,2.188234770681798,0.5429778529047937,A,541,Correct
1,relearn,1,559,A,46.4669956122387,68.20249081139472,2.323349780611935,1.071322220448015,B,561,Correct
1,relearn,1,560,B,87.05251948181137,65.95046452078535,4.352625974090569,1.0359474741966677,B,397,Correct
1,relearn,1,561,A,55.73301383617529,81.71927745243147,2.786650691808765,1.2836434085061237,B,240,Correct
1,relearn,1,562,A,21.865263142066816,39.70618173899897,1.0932631571033409,0.6237032442667018,B,434,Incorrect
1,relearn,1,563,A,34.18171504715847,54.7365571620322,1.7090857523579235,0.8597998293151905,A,323,Correct
1,relearn,1,564,B,41.509156864440016,17.509748734056746,2.0754578432220008,0.2750424899455793,B,379,Incorrect
1,relearn,1,565,B,75.714555613353,62.40791540450887,3.78572778066765,0.9803012428032918,A,442,Correct
1,relearn,1,566,A,31.72386437872265,60.65101812953386,1.5861932189361323,0.9527039649424245,A,586,Incorrect
1,relearn,1,567,A,64.05602211113295,83.2298848182856,3.2028011055566474,1.3073719735212534,B,323,Incorrect
1,relearn,1,568,B,79.25217662210777,61.75400099262515,3.9626088311053884,0.9700295792410398,A,418,Incorrect
1,relearn,1,569,A,44.78424750477161,56.07843871750596,2.2392123752385804,0.8808780554985107,A,921,Incorrect
1,relearn,1,570,A,34.802396332996516,58.75887704224196,1.740119816649826,0.9229822822454666,B,603,Incorrect
1,relearn,1,571,A,55.87518999750492,73.68545733889385,2.7937594998752457,1.157448457261365,A,541,Incorrect
1,relearn,1,572,B,54.029346007957606,33.368663105820666,2.7014673003978804,0.5241537343667949,A,828,Incorrect
1,relearn,1,573,B,62.86633398694188,53.084486796592884,3.143316699347094,0.833849168698803,B,540,Incorrect
1,relearn,1,574,A,25.63754043778215,50.23487906266578,1.2818770218891076,0.7890876350862126,A,886,Correct
1,relearn,1,575,A,55.67111731536961,79.05033871080653,2.7835558657684807,1.2417198167882733,B,682,Correct
1,relearn,1,576,A,41.32836237032476,73.28123483777568,2.066418118516238,1.1510989450617226,A,633,Correct
1,relearn,1,577,B,37.012586163403114,11.908670489304928,1.8506293081701557,0.18706095861610963,A,474,Correct
1,relearn,1,578,A,30.541023090760685,59.148984547660746,1.527051154538034,0.9291100766111359,A,1248,Incorrect
1,relearn,1,579,A,54.11498883413339,75.30417144725473,2.70574944170667,1.1828751590168085,B,247,Correct
1,relearn,1,580,B,56.44786231870521,26.954418260898628,2.8223931159352604,0.42339901195112845,A,1117,Correct
1,relearn,1,581,B,76.65057562904121,44.79948506941184,3.8325287814520608,0.7037086658933492,A,482,Correct
1,relearn,1,582,B,62.843603777813684,49.91049738594626,3.1421801888906837,0.7839922596235067,A,674,Correct
1,relearn,1,583,A,54.661719367825356,68.60547521999547,2.7330859683912676,1.0776522847358716,A,1085,Incorrect
1,relearn,1,584,A,38.72290779964018,62.906199749088756,1.9361453899820091,0.9881282749849466,B,626,Correct
1,relearn,1,585,B,59.54373505599025,30.84459873509509,2.9771867527995126,0.48450582394549885,A,592,Correct
1,relearn,1,586,A,53.372670870480306,77.99324441203672,2.6686335435240154,1.2251150183724389,B,553,Incorrect
1,relearn,1,587,A,44.59172916014544,61.877434960765456,2.229586458007272,0.9719684754786049,A,277,Incorrect
1,relearn,1,588,B,32.343577429173095,18.576889426825733,1.6171788714586546,0.2918050967493281,B,1112,Incorrect
1,relearn,1,589,B,69.32722766796249,59.83584471634772,3.4663613833981244,0.9398992509110883,B,978,Correct
1,relearn,1,590,A,51.28259718225325,61.71800699454514,2.5641298591126622,0.9694641868413325,A,807,Incorrect
1,relearn,1,591,A,44.800769743569596,54.28385712518455,2.2400384871784795,0.8526888337649885,B,791,Correct
1,relearn,1,592,B,70.72733642234354,42.6061141893747,3.5363668211171775,0.669255276676737,A,932,Correct
1,relearn,1,593,B,67.06196477285164,44.99033636406302,3.353098238642582,0.7067065510193705,A,1047,Incorrect
1,relearn,1,594,A,40.96434232448075,49.476218263529866,2.0482171162240372,0.7771706191205527,A,582,Correct
1,relearn,1,595,B,39.58703515362218,13.21638045914684,1.9793517576811093,0.20760241878751706,A,753,Correct
1,relearn,1,596,A,27.83526233810101,52.70742700156808,1.3917631169050506,0.8279263272887328,A,694,Correct
1,relearn,1,597,A,42.495128263388224,49.469397465178226,2.124756413169411,0.7770634782705872,B,739,Correct
1,relearn,1,598,B,39.74303553860231,22.134901429393857,1.9871517769301152,0.34769421859258975,A,609,Incorrect
1,relearn,1,599,B,33.63089306927475,11.0047290829724,1.6815446534637375,0.17286188020906015,A,721,Incorrect
1,relearn,1,600,A,59.69225753218653,81.98929325824088,2.9846128766093267,1.2878848068655433,A,623,Correct
1,relearn,1,601,A,58.46700571299551,84.71460562749422,2.9233502856497755,1.3306939134554623,B,2758,Incorrect
1,relearn,1,602,A,50.61925903772256,72.93500514351416,2.530962951886128,1.1456603817419893,A,1370,Correct
1,relearn,1,603,B,60.078856222430716,33.971175409415004,3.0039428111215356,0.533617975500142,A,831,Incorrect
1,relearn,1,604,B,45.52162127912525,19.31740024335498,2.2760810639562625,0.30343701345488844,B,1535,Correct
1,relearn,1,605,B,62.19739572775446,40.5594132390566,3.109869786387723,0.6371057733286641,B,2448,Correct
1,relearn,1,606,A,21.51788681978174,35.92388191078925,1.0758943409890869,0.5642910174968138,A,568,Correct
1,relearn,1,607,A,25.069081498118152,47.647096163480896,1.2534540749059075,0.7484388363603901,A,701,Correct
1,relearn,1,608,B,35.18045165117442,18.468714197670415,1.7590225825587211,0.29010588422325445,A,1722,Incorrect
1,relearn,1,609,A,22.409356751117894,45.89985694147312,1.1204678375558947,0.7209932668407721,A,691,Correct
1,relearn,1,610,B,57.92923112572258,49.322662697272236,2.896461556286129,0.7747585739261891,B,818,Correct
1,relearn,1,611,B,31.792666597444168,16.103102247870943,1.5896333298722083,0.25294693860958317,A,454,Incorrect
1,relearn,1,612,A,16.777197452919545,41.36725710810219,0.8388598726459773,0.64979535514987,A,612,Correct
1,relearn,1,613,A,15.622910493512958,42.88563468242501,0.7811455246756479,0.6736459743142102,A,592,Correct
1,relearn,1,614,A,58.8143141669795,86.48334902953953,2.940715708348975,1.3584772698452168,B,812,Incorrect
1,relearn,1,615,A,19.560641329177773,45.425040579639365,0.9780320664588886,0.7135348688700662,A,581,Correct
1,relearn,1,616,B,47.85021704556365,25.269614045439866,2.392510852278183,0.3969341692210167,A,544,Incorrect
1,relearn,1,617,B,74.06726904310226,55.78020045713699,3.703363452155113,0.8761933398595381,B,385,Correct
1,relearn,1,618,B,47.35869104660921,24.89380700883816,2.3679345523304605,0.39103100609424035,A,1272,Incorrect
1,relearn,1,619,A,62.58222926635698,79.8836565483489,3.129111463317849,1.2548095427709152,B,1830,Incorrect
1,relearn,1,620,B,49.4541315385957,28.339811026086387,2.4727065769297853,0.44516071061838003,B,1661,Correct
1,relearn,1,621,B,41.30543494468823,28.73769137430068,2.0652717472344113,0.45141060051316884,A,913,Incorrect
1,relearn,1,622,B,47.626620341595434,34.659421643705684,2.3813310170797717,0.5444289220676842,B,669,Correct
1,relearn,1,623,A,46.69819592858391,63.521046374724975,2.3349097964291956,0.9977862631958628,A,850,Correct
1,relearn,1,624,B,85.42693540530871,64.24278463265648,4.271346770265436,1.0091233012405243,B,1270,Correct
1,relearn,1,625,B,38.30720355257602,12.182192048945936,1.9153601776288012,0.19135742522794275,A,604,Incorrect
1,relearn,1,626,B,69.5872831722303,46.6781892305766,3.479364158611515,0.7332192818482681,A,929,Incorrect
1,relearn,1,627,A,50.780261987251606,71.20711782621026,2.53901309936258,1.1185187912306247,A,639,Correct
1,relearn,1,628,B,84.61146423817443,63.09302617492226,4.230573211908722,0.9910629376194214,B,808,Correct
1,relearn,1,629,B,56.529065797723206,40.86850581308434,2.8264532898861603,0.6419609881278876,A,709,Incorrect
1,relearn,1,630,A,21.70126505802317,47.766035947598546,1.0850632529011586,0.7503071381204078,A,756,Correct
1,relearn,1,631,B,75.43422886619379,61.815436267826186,3.7717114433096897,0.970994602287254,B,986,Correct
1,relearn,1,632,B,68.52790943342761,44.65723788940658,3.4263954716713805,0.7014742524148574,B,1283,Correct
1,relearn,1,633,A,14.927570506659212,31.26555253789807,0.7463785253329606,0.49111815081743143,A,626,Correct
1,relearn,1,634,A,58.71005575010669,81.03175843613256,2.9355027875053343,1.272843885052084,A,1303,Correct
1,relearn,1,635,B,53.533255995631315,39.967656530703906,2.6766627997815657,0.6278104806902975,A,550,Incorrect
1,relearn,1,636,A,49.51629165592749,75.08178925549863,2.4758145827963745,1.1793819877172578,A,1876,Correct
1,relearn,1,637,B,45.73731369244308,19.2185558553257,2.2868656846221542,0.3018843694384816,B,1014,Correct
1,relearn,1,638,A,40.04606810435808,71.91045023317545,2.002303405217904,1.1295667108443923,A,647,Correct
1,relearn,1,639,B,35.602185869574924,19.90829884543057,1.7801092934787461,0.3127188269913742,A,749,Incorrect
1,relearn,1,640,A,36.13299235949605,64.27311721280483,1.8066496179748026,1.0095997642953167,A,645,Correct
1,relearn,1,641,A,52.988228409120275,60.411702428865105,2.6494114204560137,0.9489448027068762,B,868,Incorrect
1,relearn,1,642,B,65.60021220154763,53.7483615567257,3.2800106100773814,0.8442772890454876,A,585,Incorrect
1,relearn,1,643,B,68.54242992207145,51.286665256456025,3.4271214961035725,0.8056090539840056,B,1053,Correct
1,relearn,1,644,B,64.6229964533689,41.93286570752418,3.2311498226684447,0.6586799142536267,B,547,Correct
1,relearn,1,645,B,61.41878735259676,43.32497366715361,3.0709393676298378,0.6805470949485051,B,490,Correct
1,relearn,1,646,A,45.378049613523984,71.38636987168098,2.268902480676199,1.1213344757765835,A,679,Correct
1,relearn,1,647,B,85.27181013210449,59.313046350816,4.263590506605225,0.9316871533887722,A,584,Incorrect
1,relearn,1,648,B,72.56282050172587,57.96933962872875,3.6281410250862933,0.9105802575553295,B,497,Correct
1,relearn,1,649,A,43.86261118387253,70.3690958805904,2.1931305591936265,1.1053551732910927,B,1061,Incorrect
1,relearn,1,650,B,56.9667767420502,25.612261218381885,2.8483388371025105,0.40231645842745645,A,458,Incorrect
1,relearn,1,651,B,33.13602453345308,16.65902434661918,1.6568012266726542,0.26167934251656155,B,737,Correct
1,relearn,1,652,A,32.383220990584284,48.77223077381152,1.6191610495292141,0.7661124094909615,A,581,Correct
1,relearn,1,653,A,33.70284937000699,57.38258697035906,1.6851424685003493,0.9013635683502871,A,568,Correct
1,relearn,1,654,A,42.15003186580384,67.12856277958016,2.107501593290192,1.0544529983718514,A,536,Correct
1,relearn,1,655,A,45.96011621352368,62.49227262446559,2.2980058106761843,0.9816263229157581,B,722,Incorrect
1,relearn,1,656,A,27.2383399242825,45.313827311796636,1.361916996214125,0.711787934943884,A,416,Correct
1,relearn,1,657,A,41.86394971402318,68.00979899277218,2.0931974857011593,1.068295424439058,A,388,Correct
1,relearn,1,658,B,58.44521272471559,37.82851874198199,2.9222606362357793,0.594208982879972,A,385,Incorrect
1,relearn,1,659,A,57.554331672738975,77.26847422570364,2.877716583636949,1.2137303549078144,B,588,Incorrect
1,relearn,1,660,B,37.33684434035838,19.288369883319877,1.866842217017919,0.3029810056258017,A,1029,Incorrect
1,relearn,1,661,B,86.49573121545842,58.65700297906315,4.324786560772921,0.9213820482030971,B,781,Correct
1,relearn,1,662,A,61.63283581122421,81.46820098323391,3.0816417905612106,1.279699508550522,B,512,Incorrect
1,relearn,1,663,B,63.908408683461865,53.32577978722338,3.1954204341730934,0.8376393901324403,A,760,Incorrect
1,relearn,1,664,B,76.06776556276836,49.50242427074251,3.803388278138418,0.7775822621192487,B,634,Correct
1,relearn,1,665,B,37.87323863510922,28.86395156683984,1.8936619317554608,0.4533938909797782,A,635,Incorrect
1,relearn,1,666,A,66.99081773418618,79.73820060860892,3.349540886709309,1.2525247262123749,B,498,Incorrect
1,relearn,1,667,A,35.21443205883499,55.40700827709425,1.7607216029417492,0.8703312508035407,A,907,Correct
1,relearn,1,668,B,51.579350027950696,35.641593859733085,2.5789675013975346,0.5598568471598427,B,946,Correct
1,relearn,1,669,A,39.070998562553356,67.98635278906988,1.953549928127668,1.0679271323325294,A,734,Correct
1,relearn,1,670,B,84.88164078265437,65.87591650923417,4.244082039132718,1.0347764767695233,B,194,Correct
1,relearn,1,671,B,85.10343830290736,60.864831490263924,4.255171915145368,0.9560625373589692,B,707,Correct
1,relearn,1,672,A,51.17425018140084,78.29971814819305,2.5587125090700424,1.2299290965625735,A,659,Correct
1,relearn,1,673,A,50.292953005250496,64.81252696211133,2.514647650262525,1.0180727928237967,A,709,Correct
1,relearn,1,674,B,80.02233241356103,59.43295759258505,4.001116620678051,0.9335707147698945,B,612,Correct
1,relearn,1,675,A,44.34057658342291,57.98404777547879,2.2170288291711455,0.9108112925842189,A,618,Correct
1,relearn,1,676,A,67.44113753815729,81.46797756887963,3.3720568769078647,1.2796959991660515,B,1341,Incorrect
1,relearn,1,677,A,34.2975748557074,66.05018099012038,1.7148787427853702,1.037513816834192,A,796,Correct
1,relearn,1,678,B,51.73842488723746,36.058444305748814,2.5869212443618728,0.5664047186540859,B,691,Correct
1,relearn,1,679,A,49.253089401849095,74.8466220798019,2.4626544700924544,1.1756879903595863,A,712,Correct
1,relearn,1,680,A,30.832626498387732,60.10773660523983,1.5416313249193865,0.9441701187146585,A,585,Correct
1,relearn,1,681,B,56.402886540746394,46.85484421617464,2.82014432703732,0.7359941718731422,A,394,Incorrect
1,relearn,1,682,A,61.08290077744101,76.42200821138177,3.0541450388720506,1.2004340978472792,B,317,Incorrect
1,relearn,1,683,B,46.27788729763269,31.55424875389876,2.313894364881634,0.49565298037396605,B,481,Correct
1,relearn,1,684,B,64.11263978637581,42.34930854585607,3.2056319893187903,0.6652213830613444,B,725,Correct
1,relearn,1,685,A,43.35893173292429,50.47985630450856,2.167946586646215,0.7929357286025623,A,519,Correct
1,relearn,1,686,B,57.64257522576256,45.357735811869894,2.882128761288128,0.7124776480501855,B,374,Correct
1,relearn,1,687,A,14.662346598819681,38.67577688239125,0.7331173299409841,0.6075176826279914,A,783,Correct
1,relearn,1,688,A,38.728984130388696,50.91277306238139,1.936449206519435,0.7997359691333085,A,604,Correct
1,relearn,1,689,B,73.99693731729114,49.96784095211476,3.6998468658645574,0.7848930102545348,B,1166,Correct
1,relearn,1,690,B,35.53113552121987,19.564366215286597,1.7765567760609937,0.3073163458704236,A,552,Incorrect
1,relearn,1,691,A,44.69512221542635,55.522350829783,2.2347561107713174,0.8721430473844072,B,570,Incorrect
1,relearn,1,692,B,49.1314065054318,25.85841712628981,2.4565703252715902,0.40618306638706275,A,401,Incorrect
1,relearn,1,693,B,51.145852374959375,38.840661396342,2.5572926187479688,0.6101076825165835,B,500,Correct
1,relearn,1,694,B,83.49399120906445,60.04677399088813,4.174699560453223,0.9432125202077041,A,605,Incorrect
1,relearn,1,695,B,73.8607817159396,50.04525939556203,3.69303908579698,0.7861090963204661,B,353,Correct
1,relearn,1,696,A,50.373618842881385,79.58645744469227,2.5186809421440692,1.2501411501674098,A,772,Correct
1,relearn,1,697,B,50.37137176035506,24.61484687877983,2.518568588017753,0.3866491106180619,A,639,Incorrect
1,relearn,1,698,A,26.79299920477055,37.36041012341559,1.3396499602385274,0.5868559498941208,B,513,Incorrect
1,relearn,1,699,B,64.25788312955137,40.40541374221576,3.2128941564775686,0.6346867548890055,B,1342,Correct
1,relearn,1,700,A,22.32331036019819,50.52738321120434,1.1161655180099095,0.793682279507179,A,609,Correct
1,relearn,1,701,B,43.34778827279041,16.287228024040875,2.1673894136395204,0.25583917953834306,A,869,Incorrect
1,relearn,1,702,B,46.263068298090914,17.35245901532863,2.3131534149045456,0.272571788821372,B,1952,Correct
1,relearn,1,703,A,15.965855293176347,33.187581203066486,0.7982927646588174,0.5213093064898419,A,662,Correct
1,relearn,1,704,B,33.51239295195467,16.276247162154654,1.6756196475977336,0.2556666925631839,A,428,Incorrect
1,relearn,1,705,B,40.09817137677711,16.15473207719006,2.0049085688388555,0.2537579380720584,B,357,Correct
1,relearn,1,706,B,70.02704168556643,46.38723385174082,3.5013520842783215,0.7286489654449034,B,1164,Correct
1,relearn,1,707,A,30.816167658302557,58.65756972396733,1.5408083829151278,0.9213909506112341,A,544,Correct
1,relearn,1,708,B,49.946783071724674,27.537013717769657,2.4973391535862337,0.43255039998773254,A,517,Incorrect
1,relearn,1,709,B,56.759043894889956,41.451410403026536,2.8379521947444974,0.6511172320154185,B,790,Correct
1,relearn,1,710,B,53.41078317073409,35.58786849637521,2.6705391585367044,0.55901293112566,B,669,Correct
1,relearn,1,711,A,56.89344728506185,79.56725701159678,2.8446723642530922,1.249839550469617,B,791,Incorrect
1,relearn,1,712,B,63.323150029786326,50.6859104081191,3.1661575014893164,0.796172418893287,A,489,Incorrect
1,relearn,1,713,B,67.94322211534913,39.20560911351929,3.3971611057674567,0.6158402678527263,B,774,Correct
1,relearn,1,714,A,69.71294323427682,87.29508286152438,3.485647161713841,1.3712279550613862,A,1575,Correct
1,relearn,1,715,B,84.28994764679041,69.13736642711328,4.214497382339521,1.0860072122798232,B,2583,Correct
1,relearn,1,716,A,54.468774857370576,77.37440266916568,2.723438742868529,1.2153942750067468,B,382,Incorrect
1,relearn,1,717,A,53.27668823957596,60.34041532361608,2.663834411978798,0.9478250274761463,A,387,Correct
1,relearn,1,718,A,31.56372458513208,61.421345174611176,1.578186229256604,0.9648042338708068,A,926,Correct
1,relearn,1,719,A,68.7222807819897,84.00587829681899,3.436114039099485,1.319561250578224,A,378,Correct
1,relearn,1,720,B,59.319094650117236,42.32143460209036,2.9659547325058617,0.6647835401765397,A,695,Incorrect
1,relearn,1,721,B,38.00602340511953,21.863703938580173,1.9003011702559762,0.34343425836852853,B,388,Correct
1,relearn,1,722,A,34.94056402768456,55.43095828274765,1.747028201384228,0.8707074566126116,A,1309,Correct
1,relearn,1,723,B,36.05083727260431,22.36341868075691,1.8025418636302157,0.3512837591830933,A,594,Incorrect
1,relearn,1,724,B,67.59277271560582,48.39920687776301,3.3796386357802906,0.7602529638337643,B,1492,Correct
1,relearn,1,725,A,63.042161711309106,88.1815801997027,3.1521080855654553,1.3851530226866258,A,1501,Correct
1,relearn,1,726,A,38.15300848447323,59.45757801115466,1.9076504242236616,0.9339574514004275,B,805,Incorrect
1,relearn,1,727,B,49.68521640362309,42.372543303406175,2.4842608201811545,0.665586353779481,A,765,Incorrect
1,relearn,1,728,A,47.81477924799467,67.56055798853906,2.3907389623997335,1.0612387632461076,B,664,Incorrect
1,relearn,1,729,A,48.01402706880041,75.79647603130928,2.4007013534400206,1.1906082613397804,A,506,Correct
1,relearn,1,730,B,79.88176688710107,61.75547964666801,3.9940883443550534,0.9700528058844311,B,864,Correct
1,relearn,1,731,B,55.764909713699495,42.50548987034501,2.7882454856849743,0.6676746735695563,B,547,Correct
1,relearn,1,732,A,48.95991728363207,77.9514224743246,2.4479958641816038,1.2244580809110621,A,667,Correct
1,relearn,1,733,A,44.248519893053995,73.965144232722,2.2124259946526994,1.1618417687161442,A,490,Correct
1,relearn,1,734,A,41.542376740806034,62.913114582922695,2.077118837040302,0.9882368929408142,A,349,Correct
1,relearn,1,735,A,52.576118300618155,79.16761110342168,2.6288059150309078,1.2435619272238165,A,447,Correct
1,relearn,1,736,B,36.93997381936454,19.003070309824228,1.8469986909682268,0.29849953040497057,B,521,Correct
1,relearn,1,737,B,49.86093393914027,29.41672771218097,2.4930466969570135,0.46207687836619515,B,621,Correct
1,relearn,1,738,A,36.83358619573444,44.86678256862479,1.841679309786722,0.7047657725390112,A,733,Correct
1,relearn,1,739,A,56.85353049803109,79.50574678418894,2.8426765249015546,1.2488733500768916,B,592,Incorrect
1,relearn,1,740,A,51.68019026923276,60.698448293255616,2.584009513461638,0.9534489962119589,A,573,Correct
1,relearn,1,741,B,49.805113432735055,19.656080718819574,2.4902556716367528,0.3087569939230578,A,441,Incorrect
1,relearn,1,742,B,38.81420724977593,22.459332910360775,1.9407103624887967,0.35279037637858435,B,58,Correct
1,relearn,1,743,B,61.54528948070655,31.929716035738203,3.0772644740353274,0.5015508066454167,A,371,Incorrect
1,relearn,1,744,B,40.24917840196227,13.075201631576007,2.0124589200981133,0.20538478694982235,A,516,Incorrect
1,relearn,1,745,A,31.983014470520942,60.20976833806474,1.5991507235260471,0.9457728294260376,A,699,Correct
1,relearn,1,746,B,66.287081378155,43.60774591845904,3.3143540689077495,0.684988871085206,B,606,Correct
1,relearn,1,747,B,69.1711278651363,55.1919790275564,3.4585563932568153,0.8669535792502655,B,675,Correct
1,relearn,1,748,A,47.67871658812852,75.47663234495043,2.383935829406426,1.1855841684629702,A,873,Correct
1,relearn,1,749,A,61.53869579642955,80.69107384247046,3.0769347898214776,1.2674924239688834,A,527,Correct
1,relearn,1,750,A,31.61662996878345,62.476046494172756,1.5808314984391725,0.9813714434571374,A,375,Correct
1,relearn,1,751,B,66.38107021112725,56.480241835041596,3.3190535105563628,0.8871895641097081,A,351,Incorrect
1,relearn,1,752,B,34.02585546255076,16.795392701496787,1.701292773127538,0.2638214116258897,B,350,Correct
1,relearn,1,753,A,43.6334841823389,73.10533574231752,2.1816742091169448,1.1483359285314003,A,494,Correct
1,relearn,1,754,B,47.7460579663981,29.58751731674518,2.3873028983199047,0.4647596352012373,B,639,Correct
1,relearn,1,755,B,48.38502909791973,34.275236328880226,2.4192514548959863,0.5383941532543206,A,428,Incorrect
1,relearn,1,756,B,55.77383554342457,46.1397967636942,2.7886917771712287,0.7247622327547389,B,326,Correct
1,relearn,1,757,A,39.55450568430963,61.3637277215316,1.9777252842154815,0.9638991810342401,B,367,Incorrect
1,relearn,1,758,A,21.514178391700757,40.36808854030738,1.0757089195850378,0.6341004519884599,A,345,Correct
1,relearn,1,759,B,52.92250685146123,34.34762418469737,2.6461253425730615,0.5395312190345419,A,334,Incorrect
1,relearn,1,760,A,32.622741853826454,48.30073743687857,1.6311370926913227,0.7587062094733361,B,337,Incorrect
1,relearn,1,761,A,25.118663429822107,53.785425397749634,1.2559331714911053,0.8448594864988607,A,405,Correct
1,relearn,1,762,A,48.81834183197546,67.78988228402513,2.440917091598773,1.064840980856051,B,708,Incorrect
1,relearn,1,763,A,24.59789541689564,57.00885577457085,1.229894770844782,0.8954930124547591,A,268,Correct
1,relearn,1,764,B,40.418833669157635,27.916348766767733,2.020941683457882,0.43850898100364,A,321,Incorrect
1,relearn,1,765,B,71.35965565989822,40.72375076390182,3.5679827829949113,0.6396871811324785,B,370,Correct
1,relearn,1,766,B,61.640397700208766,39.96921287895566,3.0820198850104386,0.6278349277514682,B,437,Correct
1,relearn,1,767,A,30.93068771940645,52.33125402984729,1.5465343859703224,0.8220174160665474,B,206,Incorrect
1,relearn,1,768,B,37.60399626735153,16.66651267785356,1.8801998133675766,0.2617969689485295,A,671,Incorrect
1,relearn,1,769,B,58.93644076684123,28.047927957666275,2.946822038342061,0.44057582210110063,B,889,Correct
1,relearn,1,770,A,36.28689609616653,69.02624837579225,1.8143448048083264,1.0842617740112666,A,651,Correct
1,relearn,1,771,B,67.13322950718087,50.96883136882861,3.3566614753590436,0.8006165309518448,B,947,Correct
1,relearn,1,772,A,65.54402049118218,81.37223092604981,3.277201024559109,1.2781920144174512,A,1012,Correct
1,relearn,1,773,A,17.179708945623318,38.029778300776265,0.8589854472811659,0.5973703606368362,A,692,Correct
1,relearn,1,774,A,40.952522819172145,50.1715449768636,2.047626140958607,0.7880927855928228,B,703,Incorrect
1,relearn,1,775,B,39.602782147040145,29.308384366459748,1.9801391073520074,0.4603750250712794,A,327,Incorrect
1,relearn,1,776,A,18.841842489469943,46.562109672755255,0.9420921244734971,0.7313959084178508,A,630,Correct
1,relearn,1,777,B,50.99939109834179,20.19419492099912,2.5499695549170895,0.3172096720448558,B,570,Correct
1,relearn,1,778,A,34.88528052671733,47.42243171343398,1.7442640263358666,0.7449098154314391,B,609,Incorrect
1,relearn,1,779,B,52.8767421139261,42.60250926135254,2.6438371056963046,0.6691986505997812,A,467,Incorrect
1,relearn,1,780,B,85.63125474484859,61.22586488052893,4.28156273724243,0.961733636591755,B,331,Correct
1,relearn,1,781,B,42.53693694374162,18.479316236007996,2.1268468471870814,0.2902724206520265,B,879,Correct
1,relearn,1,782,B,46.94350820559713,37.24026769669768,2.3471754102798563,0.5849687570683135,A,593,Incorrect
1,relearn,1,783,A,46.85128857229342,73.1705779128362,2.3425644286146707,1.149360750149429,B,405,Incorrect
1,relearn,1,784,B,74.68311859871709,62.89565325233624,3.7341559299358544,0.9879626110013524,B,1069,Correct
1,relearn,1,785,A,50.22768557518167,59.26769072033098,2.5113842787590834,0.9309747088111189,A,746,Correct
1,relearn,1,786,A,28.607494849367097,59.83306708232838,1.4303747424683548,0.9398556199379405,A,672,Correct
1,relearn,1,787,A,56.491214578019225,76.98238365183536,2.8245607289009613,1.209236454682185,A,740,Correct
1,relearn,1,788,B,47.260124809375434,36.21589302077254,2.363006240468772,0.5688779172862644,A,565,Incorrect
1,relearn,1,789,A,21.37826334713626,41.49709229141126,1.068913167356813,0.6518348014401764,B,571,Incorrect
1,relearn,1,790,B,65.6782294884546,35.61251540017545,3.28391147442273,0.5594000837852228,A,546,Incorrect
1,relearn,1,791,B,84.47460734627289,59.9533072281612,4.223730367313644,0.9417443477320153,B,415,Correct
1,relearn,1,792,A,46.42223076040751,78.1230320931354,2.3211115380203755,1.227153718499769,A,537,Correct
1,relearn,1,793,B,45.72367015743679,21.05056978657712,2.2861835078718395,0.3306615769769497,B,292,Correct
1,relearn,1,794,A,15.85004381518625,33.64202736131253,0.7925021907593126,0.5284477300508312,A,681,Correct
1,relearn,1,795,B,78.98449723210618,66.32300348185375,3.9492248616053085,1.0417993025130101,A,590,Incorrect
1,relearn,1,796,B,48.094922255955225,34.19362971000166,2.404746112797761,0.5371122794825545,B,761,Correct
1,relearn,1,797,A,45.45948802027641,54.437062068670066,2.2729744010138204,0.8550953713897271,A,793,Correct
1,relearn,1,798,B,58.296913565659366,42.12397721465565,2.914845678282968,0.6616818867877302,A,827,Incorrect
1,relearn,1,799,A,65.51191448495155,89.13489577158032,3.2755957242475775,1.400127668672443,B,675,Incorrect
1,relearn,1,800,B,59.03628056715741,45.05890335047233,2.951814028357871,0.7077835987232819,A,543,Incorrect
1,relearn,1,801,B,46.71218641154946,31.47016156613512,2.335609320577473,0.49433214191726976,B,574,Correct
1,relearn,1,802,B,52.73588318853196,41.57005836197716,2.636794159426598,0.652980949796432,A,432,Incorrect
1,relearn,1,803,A,63.7188030908146,76.65451935465285,3.1859401545407304,1.20408637434517,B,295,Incorrect
1,relearn,1,804,A,56.09328142184407,78.02123921588867,2.804664071092203,1.2255547597230385,A,232,Correct
1,relearn,1,805,B,43.72548280551378,33.63315336391597,2.186274140275689,0.5283083376256863,B,649,Correct
1,relearn,1,806,B,41.63448148481115,17.906912032898678,2.081724074240557,0.28128111645516574,A,658,Incorrect
1,relearn,1,807,B,51.44889034664956,25.735575770787925,2.5724445173324786,0.4042534788870541,B,333,Correct
1,relearn,1,808,B,42.0770948502354,25.023612603242007,2.10385474251177,0.3930699876031103,B,760,Correct
1,relearn,1,809,B,56.170209402545936,23.63252077310564,2.8085104701272967,0.37121876823298433,B,549,Correct
1,relearn,1,810,B,67.3309781525048,55.8638703694821,3.36654890762524,0.8775076237692875,A,1095,Incorrect
1,relearn,1,811,A,16.01648520034584,37.1866157976465,0.800824260017292,0.584125995008762,A,1002,Correct
1,relearn,1,812,B,32.32950145456,11.061416337676846,1.616475072728,0.17375232152371847,A,781,Incorrect
1,relearn,1,813,B,70.41772781328791,46.901413122334844,3.5208863906643955,0.7367256745405353,B,1238,Correct
1,relearn,1,814,A,42.25315583743176,53.90334065403492,2.1126577918715883,0.8467116950133207,A,737,Correct
1,relearn,1,815,B,60.00772978755923,42.27567554072944,3.0003864893779615,0.6640647585215066,A,607,Incorrect
1,relearn,1,816,B,34.32945851852023,13.276299626024322,1.7164729259260114,0.20854362685987465,B,943,Correct
1,relearn,1,817,A,44.851543532868476,72.40503040671197,2.2425771766434237,1.1373355580433597,A,554,Correct
1,relearn,1,818,B,38.42722324586748,19.09490159554903,1.921361162293374,0.2999420128679842,A,525,Incorrect
1,relearn,1,819,A,65.65491148034215,76.41552116075697,3.2827455740171074,1.2003321994943472,B,381,Incorrect
1,relearn,1,820,B,46.55687777029688,22.163862643883387,2.3278438885148436,0.34814914028598654,100,703,Incorrect
1,relearn,1,821,B,39.3406463538098,21.31001099217486,1.96703231769049,0.3347368699046714,B,781,Correct
1,relearn,1,822,B,33.66705463261631,17.912299473380294,1.683352731630816,0.28136574217235927,A,545,Incorrect
1,relearn,1,823,B,32.66526111083903,13.979347441767935,1.6332630555419516,0.21958707612518705,B,370,Correct
1,relearn,1,824,A,11.676685222970377,34.47186358916687,0.5838342611485189,0.5414827670363807,A,898,Correct
1,relearn,1,825,A,12.035854778021644,32.05410652028004,0.6017927389010822,0.5035047278074822,A,572,Correct
1,relearn,1,826,A,45.70147831411239,70.90967040938233,2.2850739157056195,1.1138464981329452,A,759,Correct
1,relearn,1,827,A,25.81210777013463,38.80219901146067,1.2906053885067315,0.6095035167876699,B,379,Incorrect
1,relearn,1,828,B,88.4800154169348,64.95911360072797,4.424000770846741,1.020375370358759,A,775,Incorrect
1,relearn,1,829,A,18.677407629930915,46.73283075511908,0.9338703814965457,0.7340775889086862,A,636,Correct
1,relearn,1,830,A,18.96518321404508,45.14301770774817,0.948259160702254,0.7091048639576779,A,467,Correct
1,relearn,1,831,B,74.18545318635296,42.29900262756546,3.709272659317648,0.664431179544675,B,1116,Correct
1,relearn,1,832,B,59.61092415433458,33.120589326069386,2.9805462077167295,0.5202570005467205,A,1120,Incorrect
1,relearn,1,833,B,42.36908769867613,25.7364464945098,2.118454384933807,0.4042671561832939,A,567,Incorrect
1,relearn,1,834,B,35.73905435481453,11.716580450047754,1.7869527177407263,0.18404361533531907,B,775,Correct
1,relearn,1,835,B,44.30993718960089,31.018603525678632,2.2154968594800444,0.4872390848044322,A,683,Incorrect
1,relearn,1,836,B,62.88756789720309,50.83498530977879,3.1443783948601545,0.7985140819727304,B,657,Correct
1,relearn,1,837,A,18.31404088103417,32.876903310875505,0.9157020440517085,0.5164291895711421,A,607,Correct
1,relearn,1,838,B,57.599086224772684,29.231249559994495,2.879954311238634,0.45916339436464293,A,378,Incorrect
1,relearn,1,839,A,37.15518046546888,66.23424950244237,1.857759023273444,1.0404051582645317,B,817,Incorrect
1,relearn,1,840,B,44.4262588877794,27.073642229093238,2.22131294438897,0.42527177766418855,A,581,Incorrect
1,relearn,1,841,B,73.32601296345108,45.73532962155209,3.666300648172554,0.7184088777428783,107,461,Incorrect
1,relearn,1,842,B,47.74232411231162,18.74229343074322,2.3871162056155812,0.29440325676723567,B,909,Correct
1,relearn,1,843,A,16.221003359473514,39.946667125011935,0.8110501679736757,0.627480779876672,A,664,Correct
1,relearn,1,844,A,26.04304784697226,51.80259632730416,1.3021523923486131,0.8137132802936817,A,340,Correct
1,relearn,1,845,B,40.18940538076485,24.185631306370574,2.0094702690382427,0.37990700817262557,A,592,Incorrect
1,relearn,1,846,A,29.025359175849214,44.928211635326534,1.4512679587924606,0.7057306980623465,B,856,Incorrect
1,relearn,1,847,B,56.87009660156096,39.5193097535984,2.843504830078048,0.6207678659842208,A,932,Incorrect
1,relearn,1,848,A,32.48731282543344,41.67527241938914,1.624365641271672,0.6546336483455313,B,98,Incorrect
1,relearn,1,849,A,43.66297660129575,74.1701914401566,2.1831488300647877,1.1650626427187225,100,383,Correct
1,relearn,1,850,B,77.73513775401483,56.19800286506119,3.8867568877007415,0.8827561647364719,B,1520,Correct
1,relearn,1,851,A,31.91006899944871,53.71161160536777,1.5955034499724354,0.8437000221594583,A,920,Correct
1,relearn,1,852,A,58.043308146161465,67.83638879370407,2.902165407308073,1.0655715034018083,B,939,Incorrect
1,relearn,1,853,B,69.14882674353346,45.128125613887924,3.457441337176673,0.7088709394943383,A,349,Incorrect
1,relearn,1,854,B,75.08801628151923,57.77233202606534,3.7544008140759617,0.9074856693691861,A,459,Incorrect
1,relearn,1,855,B,50.34827061970067,37.197311248838766,2.517413530985033,0.5842939987632241,A,598,Incorrect
1,relearn,1,856,B,45.54502761253916,31.399891703676417,2.277251380626958,0.4932283454989247,B,707,Correct
1,relearn,1,857,A,46.45442074368583,61.038514432233725,2.3227210371842917,0.9587907426317,A,624,Correct
1,relearn,1,858,B,66.20106863052612,56.25147874514364,3.3100534315263066,0.8835961618965283,A,496,Incorrect
1,relearn,1,859,B,39.14164534201708,12.153312308159549,1.957082267100854,0.19090378332048227,B,256,Correct
1,relearn,1,860,B,59.08043714708998,28.209908973607238,2.954021857354499,0.44312021394960643,A,453,Incorrect
1,relearn,1,861,A,31.789935828420106,54.85279402701361,1.5894967914210054,0.8616256737207001,B,365,Incorrect
1,relearn,1,862,A,41.014574511585344,59.45630250710745,2.050728725579267,0.9339374158297059,A,228,Correct
1,relearn,1,863,A,47.45768717714205,61.227292600139734,2.3728843588571022,0.9617560631589583,A,471,Correct
1,relearn,1,864,A,29.214990935048576,60.73222543046886,1.4607495467524287,0.9539795662426009,A,385,Correct
1,relearn,1,865,B,81.1564667559906,51.79591038088454,4.0578233377995305,0.8136082576929109,A,306,Incorrect
1,relearn,1,866,A,44.922967227849625,52.011337059973826,2.246148361392481,0.8169921720549815,B,387,Incorrect
1,relearn,1,867,B,76.03297518820361,50.40314751687578,3.8016487594101807,0.7917307897840977,B,652,Correct
1,relearn,1,868,B,83.07186993889916,66.80073806988125,4.153593496944958,1.0493035398735746,B,374,Correct
1,relearn,1,869,A,13.208717196069863,30.893572622795844,0.6604358598034932,0.4852751039745909,A,814,Correct
1,relearn,1,870,B,47.017801028758385,23.889130803529728,2.3508900514379194,0.37524958916507317,A,514,Incorrect
1,relearn,1,871,A,13.213868366105665,39.12267017324071,0.6606934183052832,0.6145374660253476,A,957,Correct
1,relearn,1,872,A,38.66140650317083,54.43135199191794,1.9330703251585417,0.8550056777138478,B,1586,Incorrect
1,relearn,1,873,A,49.71753707175397,65.1384432502157,2.485876853587699,1.0231922739057666,A,257,Correct
1,relearn,1,874,B,55.72236147645915,26.737401345814305,2.7861180738229576,0.41999011822046034,A,368,Incorrect
1,relearn,1,875,B,67.93376783262194,59.49594616802732,3.3966883916310966,0.9345601369992421,B,272,Correct
1,relearn,1,876,B,75.48033023413487,53.22001931945078,3.7740165117067432,0.8359781085894671,B,541,Correct
1,relearn,1,877,B,53.645509582252416,22.816209124881837,2.682275479112621,0.35839617484748587,B,386,Correct
1,relearn,1,878,A,66.44693392037402,86.17351543847282,3.322346696018701,1.353610415177564,B,611,Incorrect
1,relearn,1,879,A,55.85049679069843,80.54138282482182,2.792524839534922,1.2651410829621168,A,315,Correct
1,relearn,1,880,A,21.512663062948555,44.50038151908939,1.0756331531474277,0.699010358311571,A,614,Correct
1,relearn,1,881,A,25.859763888873914,38.0594118370804,1.2929881944436956,0.5978358431366009,A,533,Correct
1,relearn,1,882,B,75.92851900282244,51.22901517479144,3.796425950141122,0.8047034886188241,A,607,Incorrect
1,relearn,1,883,A,59.86084792746492,69.02050798390161,2.993042396373246,1.084171604146305,B,415,Incorrect
1,relearn,1,884,A,19.40393081224111,46.10145419024063,0.9701965406120556,0.7241599490193317,A,727,Correct
1,relearn,1,885,A,57.93174083744795,77.74037671649873,2.8965870418723974,1.221142981899277,B,897,Incorrect
1,relearn,1,886,A,31.17345489732756,45.49318127035571,1.558672744866378,0.7146052203368914,A,470,Correct
1,relearn,1,887,A,25.664713242321874,52.35477178785093,1.2832356621160939,0.8223868321454132,A,546,Correct
1,relearn,1,888,B,57.028553755475464,31.96731407826374,2.851427687773773,0.5021413953163547,A,582,Incorrect
1,relearn,1,889,B,65.59764760958743,38.42183349211431,3.279882380479371,0.6035287491813829,B,351,Correct
1,relearn,1,890,A,18.033641271534343,46.32026139421439,0.9016820635767172,0.7275969645421142,A,716,Correct
1,relearn,1,891,A,62.384236049429205,74.04228641048135,3.1192118024714603,1.163053515210798,A,530,Correct
1,relearn,1,892,A,51.033514188783485,72.32093172954026,2.5516757094391744,1.1360145391114633,A,316,Correct
1,relearn,1,893,B,77.17306382908296,49.40229277114784,3.858653191454148,0.7760094002016509,A,602,Incorrect
1,relearn,1,894,B,41.73456112602611,26.16932115104259,2.0867280563013053,0.411066735387737,A,535,Incorrect
1,relearn,1,895,B,76.69900849843377,61.67033500086981,3.8349504249216886,0.9687153569157704,B,261,Correct
1,relearn,1,896,B,76.46701128971554,53.61731896593562,3.823350564485777,0.8422188768428202,B,650,Correct
1,relearn,1,897,B,71.96709534420695,42.60558162815136,3.5983547672103473,0.6692469112246029,B,303,Correct
1,relearn,1,898,B,33.082740266630736,21.31864681096216,1.6541370133315367,0.3348725210289709,A,594,Incorrect
