experiment,condition,subject,trial,cat,x,y,xt,yt,resp,rt,fb
1,relearn,17,0,B,74.21001986230723,41.53979511584562,3.710500993115362,0.6525055758378289,B,1625,Correct
1,relearn,17,1,A,26.170034295221,51.16152819050599,1.30850171476105,0.8036434055486036,A,1153,Correct
1,relearn,17,2,B,70.14319898587138,40.16423078260533,3.507159949293569,0.6308982618185895,B,623,Correct
1,relearn,17,3,B,45.38558582514503,30.127964989022782,2.2692792912572513,0.47324896738562233,A,1247,Incorrect
1,relearn,17,4,A,56.26855648646383,77.85813676401898,2.8134278243231914,1.2229927524001571,B,1726,Incorrect
1,relearn,17,5,B,47.9873385868308,30.023687782299255,2.39936692934154,0.4716109848527248,A,2203,Incorrect
1,relearn,17,6,B,79.38464509517078,65.17877074746457,3.969232254758539,1.02382573675124,B,892,Correct
1,relearn,17,7,A,58.837845401537095,70.80917424295195,2.941892270076855,1.1122679080420872,B,1984,Incorrect
1,relearn,17,8,B,76.12273381030053,46.69389573174718,3.8061366905150265,0.7334659989917237,B,849,Correct
1,relearn,17,9,A,37.776305281784396,54.11698499558119,1.88881526408922,0.8500676124827345,A,900,Correct
1,relearn,17,10,A,18.163709422882903,43.79087868225132,0.9081854711441452,0.6878655138120131,A,897,Correct
1,relearn,17,11,B,59.29360732663506,47.22385034218639,2.964680366331753,0.741790506546183,B,1753,Correct
1,relearn,17,12,A,43.63935297882433,57.24066807598224,2.181967648941216,0.8991343115703881,A,672,Correct
1,relearn,17,13,B,43.81025938389486,33.34775421018556,2.1905129691947427,0.5238252982021853,A,4926,Incorrect
1,relearn,17,14,A,23.2111639667058,52.22758879804239,1.16055819833529,0.8203890464131925,A,3740,Correct
1,relearn,17,15,B,67.99464444004948,45.95327581498257,3.399732222002474,0.7218323685436737,B,853,Correct
1,relearn,17,16,A,53.232441511848855,78.77336599566549,2.661622075592443,1.2373691395526136,A,3766,Correct
1,relearn,17,17,A,31.702509531578617,60.84218202468947,1.5851254765789309,0.9557067603856871,A,1890,Correct
1,relearn,17,18,A,37.165197436633505,64.82263374100803,1.8582598718316752,1.0182315497354635,A,918,Correct
1,relearn,17,19,A,32.09193956301167,42.45000278592025,1.6045969781505836,0.6668030844855666,A,2291,Correct
1,relearn,17,20,B,51.99828586529272,40.02435632121079,2.599914293264636,0.6287011189168801,B,832,Correct
1,relearn,17,21,A,20.860432108406883,36.33336522249396,1.043021605420344,0.5707231663159096,A,1634,Correct
1,relearn,17,22,B,74.73069318843687,49.67372104442569,3.7365346594218436,0.7802729855481823,B,1364,Correct
1,relearn,17,23,B,67.72126414121988,56.59464033575,3.3860632070609937,0.888986531556744,B,1028,Correct
1,relearn,17,24,B,70.72983287199284,42.619536802203235,3.536491643599642,0.6694661185860075,B,750,Correct
1,relearn,17,25,B,61.50889832757584,29.752093345670787,3.075444916378792,0.4673447894183856,B,1842,Correct
1,relearn,17,26,A,57.883491427076194,82.08019883528586,2.8941745713538096,1.2893127483306175,B,1269,Incorrect
1,relearn,17,27,B,45.34959698740575,29.854400170131626,2.2674798493702872,0.468951821259077,B,2498,Correct
1,relearn,17,28,A,25.116005572347092,36.610597739577564,1.2558002786173545,0.5750779245109398,A,647,Correct
1,relearn,17,29,A,46.28552336598463,65.90766645716369,2.3142761682992314,1.0352752037853594,B,2989,Incorrect
1,relearn,17,30,B,84.37684948975729,68.33328078648091,4.2188424744878645,1.073376664572485,B,650,Correct
1,relearn,17,31,A,56.93336865253254,84.27910627694911,2.846668432626627,1.3238531056538838,A,748,Correct
1,relearn,17,32,B,48.56244929519234,22.299419907378383,2.4281224647596167,0.3502784688016695,A,2402,Incorrect
1,relearn,17,33,A,52.28215274668543,75.13231955816987,2.6141076373342718,1.1801757158555357,A,894,Correct
1,relearn,17,34,A,32.94827841872201,62.270327489944435,1.6474139209361005,0.9781400168951999,A,625,Correct
1,relearn,17,35,A,30.19213415503843,62.771037957341235,1.5096067077519217,0.9860051585249464,A,1363,Correct
1,relearn,17,36,B,43.06831158925918,34.546045877565234,2.153415579462959,0.5426480196976744,A,1975,Incorrect
1,relearn,17,37,A,47.94181617001913,61.381085059189644,2.397090808500957,0.9641718294566021,A,337,Correct
1,relearn,17,38,B,66.67069270492436,48.35443581275013,3.333534635246218,0.7595497015890751,B,1237,Correct
1,relearn,17,39,A,47.90202978932924,54.8742949378554,2.395101489466462,0.8619634092384305,A,816,Correct
1,relearn,17,40,B,52.8664336063757,29.971601179104447,2.643321680318785,0.47079281040298854,B,1473,Correct
1,relearn,17,41,B,30.653592013491426,11.428863579268004,1.5326796006745713,0.17952416929754156,A,758,Incorrect
1,relearn,17,42,B,32.83419519919614,15.898954404427684,1.6417097599598067,0.2497401917835455,A,1667,Incorrect
1,relearn,17,43,A,42.246803735372914,49.826867971768216,2.1123401867686455,0.782678611857478,B,772,Incorrect
1,relearn,17,44,B,75.1456925795793,52.61089568445713,3.757284628978965,0.8264100169053473,B,1025,Correct
1,relearn,17,45,A,31.212126566116403,42.28642184552365,1.5606063283058202,0.6642335610824802,A,853,Correct
1,relearn,17,46,A,54.20337743743652,70.09914025918735,2.7101688718718258,1.1011147203061176,B,1745,Incorrect
1,relearn,17,47,A,47.515888492848646,57.07725262943113,2.3757944246424323,0.8965673877385478,A,1769,Correct
1,relearn,17,48,A,14.713926441483956,41.42476864553604,0.7356963220741978,0.6506987442673642,A,829,Correct
1,relearn,17,49,A,19.13697055967977,40.13091645706595,0.9568485279839885,0.6303749616167206,A,836,Correct
1,relearn,17,50,A,10.67324339273388,33.67978273058146,0.533662169636694,0.5290407900044755,A,714,Correct
1,relearn,17,51,B,60.52317144651468,49.038688115247965,3.0261585723257336,0.7702979116227205,B,2107,Correct
1,relearn,17,52,B,57.78606582195782,28.63568433538388,2.889303291097891,0.4498082776927916,B,1317,Correct
1,relearn,17,53,A,50.009987695327716,70.85083793457586,2.500499384766386,1.1129223597797229,B,1745,Incorrect
1,relearn,17,54,B,73.0096231860174,45.38384245451717,3.6504811593008695,0.7128877302339386,B,2218,Correct
1,relearn,17,55,A,48.071564587353436,74.80377935166314,2.403578229367672,1.1750150183596837,A,1733,Correct
1,relearn,17,56,B,70.48488808481322,53.50423855961762,3.5242444042406613,0.8404426139740522,B,814,Correct
1,relearn,17,57,B,51.17635072047445,34.26565778626356,2.5588175360237226,0.5382436938587375,B,1014,Correct
1,relearn,17,58,B,60.975292237597806,53.26884443422494,3.0487646118798906,0.836745051698893,B,800,Correct
1,relearn,17,59,A,43.45645408947618,62.18097607859035,2.172822704473809,0.9767364882077105,A,1754,Correct
1,relearn,17,60,A,48.37580101220791,67.8422750583851,2.4187900506103954,1.0656639646312034,A,1703,Correct
1,relearn,17,61,A,13.065006440654852,34.083240196107624,0.6532503220327426,0.5353782850531403,A,656,Correct
1,relearn,17,62,B,68.04625735370882,40.96115824942493,3.402312867685441,0.6434163691946115,B,978,Correct
1,relearn,17,63,A,26.79588930988697,43.26709913375925,1.3397944654943483,0.6796380039037968,A,1194,Correct
1,relearn,17,64,A,57.248418583407734,67.75399973383745,2.862420929170387,1.0642773390757425,B,2438,Incorrect
1,relearn,17,65,A,42.434643903436296,68.52728479725302,2.121732195171815,1.0764240724475278,A,563,Correct
1,relearn,17,66,A,61.32330112135059,75.18868706174922,3.066165056067529,1.1810611345312663,B,938,Incorrect
1,relearn,17,67,A,62.181670955032835,71.3211259977149,3.109083547751642,1.1203096274008657,B,793,Incorrect
1,relearn,17,68,B,54.85750687580332,24.22771506716756,2.742875343790166,0.3805680583414017,B,905,Correct
1,relearn,17,69,A,35.925575688099514,62.893111549712216,1.7962787844049757,0.9879226860298963,A,599,Correct
1,relearn,17,70,A,18.514623932812718,41.5107940133031,0.925731196640636,0.6520500275843608,A,671,Correct
1,relearn,17,71,B,60.35502004021558,35.44166598060117,3.0177510020107787,0.5567163873781997,B,916,Correct
1,relearn,17,72,A,20.339107650339567,35.08728112719824,1.0169553825169784,0.551149723118229,A,551,Correct
1,relearn,17,73,A,39.320641293885615,48.762476562558845,1.9660320646942808,0.7659591906988966,A,562,Correct
1,relearn,17,74,B,73.98240893374324,47.86746832168392,3.6991204466871626,0.7519004341267217,A,1128,Incorrect
1,relearn,17,75,B,34.07465673556804,17.14829114090804,1.7037328367784021,0.26936472734947814,A,1031,Incorrect
1,relearn,17,76,A,27.00325351699933,59.566833691108684,1.3501626758499665,0.93567363560796,A,840,Correct
1,relearn,17,77,B,73.76354176526375,49.463039571975365,3.688177088263188,0.7769636087176952,B,740,Correct
1,relearn,17,78,A,33.20800208708984,52.87160257268482,1.6604001043544918,0.8305051911293292,A,1099,Correct
1,relearn,17,79,B,69.72743970217363,60.93896898978963,3.4863719851086814,0.9572270864782965,B,1393,Correct
1,relearn,17,80,B,68.38132033593834,45.43430049968314,3.4190660167969167,0.7136803233539781,B,1764,Correct
1,relearn,17,81,B,87.46789382212924,65.73212218012817,4.373394691106462,1.0325177607297868,B,1657,Correct
1,relearn,17,82,B,42.75254490671114,14.200996441036366,2.137627245335557,0.22306873046407322,A,1400,Incorrect
1,relearn,17,83,A,23.095934679033977,46.1990926554772,1.154796733951699,0.7256936504448068,B,934,Incorrect
1,relearn,17,84,A,44.944423799213155,76.62627279415929,2.2472211899606576,1.2036426784104914,A,2161,Correct
1,relearn,17,85,B,35.13193107362818,18.219643860842766,1.756596553681409,0.28619349652123,A,708,Incorrect
1,relearn,17,86,A,24.872941032225906,49.682316605919894,1.2436470516112954,0.7804080043124006,A,679,Correct
1,relearn,17,87,B,57.93671648246399,45.52905718346763,2.8968358241231997,0.7151687578622574,A,3355,Incorrect
1,relearn,17,88,B,70.19799762064527,52.94840566853441,3.509899881032263,0.8317116113377994,B,628,Correct
1,relearn,17,89,A,30.787610607149368,44.7465102779576,1.5393805303574684,0.7028765398150588,A,1608,Correct
1,relearn,17,90,B,81.76418903143588,51.29763058760537,4.088209451571794,0.8057812970029206,B,2165,Correct
1,relearn,17,91,A,42.653126038245446,66.22053640272757,2.132656301912272,1.040189753397922,A,676,Correct
1,relearn,17,92,A,19.406937581242666,32.334632412436335,0.9703468790621332,0.507911218217182,A,599,Correct
1,relearn,17,93,A,40.58446391592371,48.34600373684426,2.029223195796186,0.7594172508504732,A,1545,Correct
1,relearn,17,94,A,25.524153921935163,35.81103541767324,1.276207696096758,0.5625184289280306,A,958,Correct
1,relearn,17,95,B,61.69257337273134,44.276008837207385,3.084628668636567,0.6954859204662375,B,1289,Correct
1,relearn,17,96,A,51.92004701175219,76.84990871147787,2.5960023505876095,1.2071555431851255,A,2884,Correct
1,relearn,17,97,A,29.60851024659879,62.49263890716742,1.4804255123299397,0.9816320764709842,A,778,Correct
1,relearn,17,98,B,41.28345608984117,32.30422930793218,2.0641728044920584,0.5074336473683991,A,1030,Incorrect
1,relearn,17,99,A,54.32151444408046,75.64884324436193,2.716075722204023,1.1882892509452665,A,1317,Correct
1,relearn,17,100,B,86.8170363133483,63.330237613407206,4.340851815667415,0.9947890461818805,B,704,Correct
1,relearn,17,101,B,88.57045884225985,63.51097981879935,4.428522942112993,0.9976281381051482,B,690,Correct
1,relearn,17,102,A,34.78155176666441,47.51920288621125,1.7390775883332201,0.7464298934588206,A,628,Correct
1,relearn,17,103,B,73.56332068211506,49.417446087983635,3.6781660341057534,0.7762474279458953,B,839,Correct
1,relearn,17,104,B,68.22755826600641,49.04525237286771,3.411377913300321,0.7704010227402928,B,2303,Correct
1,relearn,17,105,A,43.75525262008197,50.85768653848887,2.1877626310040985,0.7988706720394456,A,2583,Correct
1,relearn,17,106,B,75.81959885628643,47.05033994678082,3.790979942814322,0.7390650116285449,B,1081,Correct
1,relearn,17,107,B,77.22632228132058,58.76048312950394,3.8613161140660286,0.9230075106051828,B,637,Correct
1,relearn,17,108,B,62.155886726646806,53.37071035783087,3.1077943363323404,0.8383451578851506,107,2083,Incorrect
1,relearn,17,109,B,49.111708287051584,24.785565883445493,2.455585414352579,0.3893307584724909,A,1837,Incorrect
1,relearn,17,110,B,64.90790763090507,50.7679289414352,3.2453953815452534,0.7974607630019075,B,544,Correct
1,relearn,17,111,B,53.727440286921976,41.63912210470201,2.686372014346099,0.654065800530301,B,577,Correct
1,relearn,17,112,B,57.05535462178927,27.93805000118205,2.8527677310894637,0.4388498631966892,B,1615,Correct
1,relearn,17,113,A,16.69444261985518,45.19335800421645,0.834722130992759,0.7098956074854994,A,514,Correct
1,relearn,17,114,A,32.3860812629235,49.46559451189797,1.6193040631461748,0.7770037416201513,A,1137,Correct
1,relearn,17,115,B,43.42306597175515,31.11726565116602,2.1711532985877575,0.4887888658475259,A,812,Incorrect
1,relearn,17,116,B,42.139948154217336,14.589217241296105,2.1069974077108666,0.22916688853440698,A,751,Incorrect
1,relearn,17,117,A,33.618149831052506,62.36541917353114,1.6809074915526252,0.9796337135680672,A,729,Correct
1,relearn,17,118,A,47.265123128569,64.13545035797767,2.36325615642845,1.0074372983964777,A,702,Correct
1,relearn,17,119,B,63.12831417037168,33.19235792473369,3.156415708518584,0.5213843390583316,B,2178,Correct
1,relearn,17,120,A,37.954029919000455,66.42498414635172,1.8977014959500227,1.043401211044985,A,639,Correct
1,relearn,17,121,B,64.19614815365915,52.81592783685252,3.2098074076829572,0.8296306544239226,B,701,Correct
1,relearn,17,122,A,31.67753198605981,42.80103627457998,1.5838765993029906,0.6723171056312535,A,1558,Correct
1,relearn,17,123,B,44.07251771717675,31.93046053592785,2.2036258858588376,0.5015625012270487,A,1025,Incorrect
1,relearn,17,124,A,18.578824682688712,32.0409880870636,0.9289412341344356,0.5032986639403855,A,787,Correct
1,relearn,17,125,A,46.57066443414963,73.91307914244372,2.3285332217074814,1.161023932190511,A,1690,Correct
1,relearn,17,126,A,66.48033073176056,79.31811673261697,3.3240165365880276,1.2459260641188354,B,1672,Incorrect
1,relearn,17,127,A,39.68853878673579,68.56161123930102,1.9844269393367895,1.0769632709383372,A,562,Correct
1,relearn,17,128,B,45.71550082718126,17.683782736369377,2.285775041359063,0.2777762096612802,B,2090,Correct
1,relearn,17,129,A,42.777149775822025,74.43515500261904,2.138857488791101,1.1692246806252278,A,1730,Correct
1,relearn,17,130,B,63.76973249578216,49.965972232224296,3.188486624789108,0.7848636564711373,B,1486,Correct
1,relearn,17,131,A,36.016645895938574,53.98470669747911,1.8008322947969289,0.8479897898350005,A,767,Correct
1,relearn,17,132,A,45.03142180977064,59.99472858807936,2.251571090488532,0.9423949929321183,A,1686,Correct
1,relearn,17,133,B,66.43201675152946,34.554693802928284,3.3216008375764727,0.5427838609916213,B,2891,Correct
1,relearn,17,134,B,42.94671967109707,28.398295875179738,2.1473359835548536,0.4460793884796699,B,892,Correct
1,relearn,17,135,A,55.871265912067344,81.29001481655249,2.793563295603367,1.2769005667894335,A,978,Correct
1,relearn,17,136,B,70.07779965189852,57.71495182339349,3.503889982594926,0.9065843432533092,B,592,Correct
1,relearn,17,137,A,20.327984356975815,49.041038880912495,1.0163992178487908,0.7703348373634304,A,593,Correct
1,relearn,17,138,A,33.5355899428243,63.81273344770129,1.6767794971412149,1.0023680730239102,A,592,Correct
1,relearn,17,139,A,69.2741570558218,87.41300116236509,3.46370785279109,1.3730802113996112,B,581,Incorrect
1,relearn,17,140,B,39.01355949098988,11.79626150201916,1.9506779745494938,0.18529524237283748,A,1461,Incorrect
1,relearn,17,141,A,43.93906542607916,74.54478564775617,2.196953271303958,1.1709467547720833,A,1872,Correct
1,relearn,17,142,B,40.253689295803326,23.946178271404772,2.0126844647901665,0.3761456886949839,B,617,Correct
1,relearn,17,143,B,68.25403419874597,47.849865883257436,3.4127017099372985,0.7516239356704921,107,765,Incorrect
1,relearn,17,144,B,58.49205255298845,44.885463039166986,2.9246026276494224,0.705059204684116,B,864,Correct
1,relearn,17,145,B,75.35107328527012,57.24255329111001,3.767553664263506,0.8991639244603674,B,643,Correct
1,relearn,17,146,A,43.90728537558074,68.20592811923606,2.195364268779037,1.0713762135533274,A,1906,Correct
1,relearn,17,147,B,32.198640765290314,14.298292050405983,1.6099320382645157,0.22459704632218389,A,511,Incorrect
1,relearn,17,148,A,31.202287718020322,45.583065928148926,1.5601143859010163,0.7160171252398595,A,692,Correct
1,relearn,17,149,B,63.71215051127155,32.676423838690866,3.1856075255635776,0.5132800653860881,A,1767,Incorrect
1,relearn,17,150,A,42.31554766815998,64.16675293947665,2.115777383407999,1.0079289981968556,A,649,Correct
1,relearn,17,151,B,69.07818795135607,41.23378988328787,3.453909397567804,0.6476988568850115,B,442,Correct
1,relearn,17,152,A,29.237680016160354,42.21355757128204,1.4618840008080178,0.6630890117391472,A,642,Correct
1,relearn,17,153,B,49.70063435469039,39.93115137238274,2.48503171773452,0.627237059004298,107,5788,Incorrect
1,relearn,17,154,A,65.84240164346795,86.82779274098081,3.2921200821733976,1.3638877790124124,B,1601,Incorrect
1,relearn,17,155,A,43.51734912373489,60.05676189267136,2.1758674561867446,0.943369409802039,A,701,Correct
1,relearn,17,156,A,58.008645134290575,78.09676572142509,2.900432256714529,1.226741127297761,A,664,Correct
1,relearn,17,157,A,44.283032653676436,51.038203579684456,2.2141516326838215,0.8017062270917847,A,1134,Correct
1,relearn,17,158,B,63.03792085837296,37.4245636615282,3.1518960429186484,0.5878636713143025,B,3003,Correct
1,relearn,17,159,B,62.28153337929352,40.97156384232721,3.1140766689646764,0.6435798198657018,B,659,Correct
1,relearn,17,160,A,56.306710461065876,77.43240392927018,2.815335523053294,1.216305356669963,A,801,Correct
1,relearn,17,161,B,39.907666400219725,30.983897340136096,1.9953833200109863,0.4866939213167595,B,684,Correct
1,relearn,17,162,A,42.873399477438454,68.14926735624358,2.1436699738719227,1.0704861883695076,A,569,Correct
1,relearn,17,163,A,27.41981355850728,54.064366498441544,1.370990677925364,0.8492410830624503,B,481,Incorrect
1,relearn,17,164,B,60.437533998088604,47.335300222197226,3.02187669990443,0.7435411571676105,A,451,Incorrect
1,relearn,17,165,B,71.37442165775367,46.169126892909695,3.5687210828876834,0.7252229493471003,B,1769,Correct
1,relearn,17,166,A,35.991641996024356,61.788058705099644,1.7995820998012177,0.9705645565375796,B,1377,Incorrect
1,relearn,17,167,A,34.199846180241025,54.03078921187056,1.7099923090120512,0.8487136522783562,A,578,Correct
1,relearn,17,168,B,60.11613175633366,31.689965262311393,3.0058065878166826,0.49778481030296606,B,961,Correct
1,relearn,17,169,A,59.66256487539023,74.32062120470604,2.9831282437695115,1.1674255879346715,B,647,Incorrect
1,relearn,17,170,B,77.3463814078703,45.6643617028816,3.8673190703935147,0.7172941162831996,B,475,Correct
1,relearn,17,171,B,80.04574835424995,56.97048530071332,4.002287417712497,0.8948902904608315,B,1392,Correct
1,relearn,17,172,A,57.30388660233659,80.94839229771648,2.8651943301168297,1.2715343728120534,A,1661,Correct
1,relearn,17,173,B,60.624239782602295,38.86400450814382,3.031211989130115,0.6104743552593261,B,750,Correct
1,relearn,17,174,A,63.36306449996307,78.81858678209345,3.1681532249981537,1.2380794660047718,A,823,Correct
1,relearn,17,175,A,67.84212440721599,85.00570781477343,3.3921062203607995,1.3352665359204632,A,2781,Correct
1,relearn,17,176,B,82.25303115207211,52.21521956944524,4.112651557603606,0.8201947510247358,A,1281,Incorrect
1,relearn,17,177,B,86.48516409430545,59.37903097986222,4.324258204715273,0.9327236375180795,B,522,Correct
1,relearn,17,178,B,70.0669566664992,45.89045611252866,3.50334783332496,0.7208455989650244,B,1310,Correct
1,relearn,17,179,A,44.103194331314036,74.34527573357718,2.2051597165657015,1.167812860368568,B,1436,Incorrect
1,relearn,17,180,A,41.59209743303631,56.71688503143508,2.0796048716518154,0.8909067467462667,A,984,Correct
1,relearn,17,181,B,31.079175926247178,16.018529233038496,1.553958796312359,0.2516184687991354,A,1606,Incorrect
1,relearn,17,182,B,88.96725719946664,63.50353099867876,4.448362859973332,0.9975111323123044,B,658,Correct
1,relearn,17,183,B,68.26501644048248,38.68650332558826,3.4132508220241244,0.607686173203726,B,669,Correct
1,relearn,17,184,A,50.12084709641881,79.26196840994108,2.50604235482094,1.2450440883286855,A,694,Correct
1,relearn,17,185,B,68.9870665964831,57.86593568662519,3.449353329824155,0.9089559922310055,A,2568,Incorrect
1,relearn,17,186,B,59.675419103474034,44.66799874787191,2.9837709551737017,0.7016432835843623,B,618,Correct
1,relearn,17,187,B,30.27460460497602,12.100482791646712,1.513730230248801,0.1900739392156351,A,1442,Incorrect
1,relearn,17,188,B,60.75057294129671,41.636332002344446,3.0375286470648355,0.6540219737049545,B,787,Correct
1,relearn,17,189,A,21.744377199579,51.084131693039716,1.0872188599789498,0.8024276642093355,B,1782,Incorrect
1,relearn,17,190,A,47.38631130065133,59.180883384556815,2.3693155650325664,0.9296111423693898,A,634,Correct
1,relearn,17,191,A,67.68163327607142,84.8887532092368,3.384081663803571,1.3334294172726764,B,1215,Incorrect
1,relearn,17,192,A,36.93943877420767,45.264317768742764,1.8469719387103836,0.711010240860181,B,656,Incorrect
1,relearn,17,193,A,16.750463484217278,33.42028794590948,0.8375231742108639,0.5249646554586237,A,472,Correct
1,relearn,17,194,A,28.88366959939293,48.93150876485773,1.4441834799696465,0.7686143423237081,A,521,Correct
1,relearn,17,195,B,58.21401011866138,39.54918821580507,2.9107005059330686,0.6212371957710661,A,936,Incorrect
1,relearn,17,196,A,62.3039745748636,79.23726268623685,3.1151987287431804,1.2446560117282315,B,631,Incorrect
1,relearn,17,197,A,29.57331505603529,45.355548538328705,1.4786657528017644,0.7124432904377437,A,774,Correct
1,relearn,17,198,A,27.235885619019953,38.589638325858786,1.3617942809509975,0.6061646213460254,A,3282,Correct
1,relearn,17,199,B,61.79885982772992,48.15358737100059,3.0899429913864958,0.7563947816436485,B,2253,Correct
1,relearn,17,200,A,28.89281961919091,41.55572286274873,1.4446409809595453,0.6527557683011241,B,1284,Incorrect
1,relearn,17,201,A,65.57370179507507,82.37340842212274,3.278685089753753,1.2939184737504619,A,1076,Correct
1,relearn,17,202,B,53.95883171960134,42.636520468843216,2.6979415859800673,0.6697328973977433,A,654,Incorrect
1,relearn,17,203,A,39.13917906273134,68.8823986515552,1.9569589531365668,1.0820021878268467,A,972,Correct
1,relearn,17,204,B,48.85624453993994,33.058275960768924,2.442812226996997,0.5192781844934785,B,398,Correct
1,relearn,17,205,B,69.60858409797883,41.83188110066283,3.480429204898942,0.6570936517584203,B,1499,Correct
1,relearn,17,206,A,39.21054967632412,62.45856501295042,1.9605274838162061,0.9810968449922277,A,1007,Correct
1,relearn,17,207,A,52.399146211415406,69.11246939565696,2.6199573105707703,1.0856161306242267,A,1921,Correct
1,relearn,17,208,A,17.67218190278339,46.10282125934944,0.8836090951391695,0.7241814228906778,A,945,Correct
1,relearn,17,209,A,29.558901799439774,45.69287580953276,1.4779450899719888,0.7177420148230944,A,1700,Correct
1,relearn,17,210,A,17.581919962535967,46.21250770752403,0.8790959981267983,0.725904373589596,A,688,Correct
1,relearn,17,211,B,42.66148517302028,33.58409802694277,2.133074258651014,0.5275377781944144,A,698,Incorrect
1,relearn,17,212,A,64.24179564059494,82.79709040373925,3.2120897820297474,1.3005736547549858,A,3081,Correct
1,relearn,17,213,A,26.88870819683946,43.09032244466631,1.3444354098419729,0.6768612021648954,A,799,Correct
1,relearn,17,214,A,67.47961845593483,86.81934611760826,3.373980922796741,1.3637550997627383,A,834,Correct
1,relearn,17,215,A,20.919445219744883,33.615499409573346,1.0459722609872442,0.5280310299593383,A,612,Correct
1,relearn,17,216,A,69.70016141651524,87.1308714877503,3.4850080708257622,1.3686485288339634,A,849,Correct
1,relearn,17,217,A,62.98446802891284,75.88620117266053,3.149223401445642,1.1920176605643376,A,673,Correct
1,relearn,17,218,B,81.68633141823707,67.14594782797941,4.084316570911853,1.0547260820735183,A,711,Incorrect
1,relearn,17,219,B,60.62332963386226,44.713215961240735,3.031166481693113,0.7023535539110388,B,673,Correct
1,relearn,17,220,A,14.017993830272431,34.86364773430556,0.7008996915136215,0.547636897997184,A,598,Correct
1,relearn,17,221,B,68.07964145485691,56.56836025743928,3.4039820727428456,0.8885737250519602,B,1671,Correct
1,relearn,17,222,A,38.57961205723284,52.83317301654932,1.9289806028616423,0.8299015410731492,A,1290,Correct
1,relearn,17,223,A,13.898730144745425,36.31561461642653,0.6949365072372713,0.5704443404478184,A,667,Correct
1,relearn,17,224,B,51.37985775932246,43.03002763021364,2.5689928879661235,0.6759140934342249,A,1023,Incorrect
1,relearn,17,225,B,41.093283841431365,17.608337375183964,2.0546641920715683,0.2765911166990426,B,2450,Correct
1,relearn,17,226,B,46.060630610682566,34.829858824788374,2.303031530534128,0.547106143047624,A,1722,Incorrect
1,relearn,17,227,A,22.62810318411395,48.75154735480507,1.1314051592056975,0.7657875151049526,A,1028,Correct
1,relearn,17,228,A,40.31323416824055,65.9199524538128,2.0156617084120274,1.0354681917694335,A,856,Correct
1,relearn,17,229,A,44.387087448968835,55.062413975809434,2.2193543724484415,0.8649183761766144,B,819,Incorrect
1,relearn,17,230,B,88.76103184325541,69.06568006297124,4.43805159216277,1.0848811655050674,B,721,Correct
1,relearn,17,231,B,59.467782699765685,27.575011632327577,2.9733891349882846,0.433147269833867,B,618,Correct
1,relearn,17,232,B,68.56564190670949,50.29148459708349,3.4282820953354745,0.7899767927416087,B,611,Correct
1,relearn,17,233,B,66.5672012155651,53.50137296158882,3.3283600607782553,0.8403976012654752,B,1132,Correct
1,relearn,17,234,A,48.00951603454915,65.95293049871708,2.400475801727458,1.035986209687439,A,1809,Correct
1,relearn,17,235,A,18.67364585769358,47.08423691769895,0.9336822928846789,0.7395974640026218,A,670,Correct
1,relearn,17,236,B,63.74515520529114,35.6885574609684,3.1872577602645573,0.5605945496829776,A,697,Incorrect
1,relearn,17,237,B,45.55914046153127,20.466228712337735,2.2779570230765636,0.3214827688468436,B,6031,Correct
1,relearn,17,238,A,25.591080557936095,46.84666166879427,1.2795540278968047,0.7358656407194532,A,1365,Correct
1,relearn,17,239,B,37.51332882328717,26.9794003559171,1.8756664411643584,0.4237914297820351,A,615,Incorrect
1,relearn,17,240,A,45.837692462743895,54.56304264412522,2.2918846231371948,0.857074269641452,A,552,Correct
1,relearn,17,241,A,10.43101568512553,34.873589104051426,0.5215507842562765,0.5477930566679851,A,944,Correct
1,relearn,17,242,B,66.14687444178637,42.94344581328715,3.3073437220893185,0.6745540694342713,B,1377,Correct
1,relearn,17,243,A,32.6409049389397,59.81817265736471,1.6320452469469848,0.9396216588577141,A,1330,Correct
1,relearn,17,244,B,60.57532912325812,48.204702929817884,3.028766456162906,0.7571977029639712,A,928,Incorrect
1,relearn,17,245,A,47.706063559172364,68.73963170206298,2.3853031779586185,1.0797596098283455,A,872,Correct
1,relearn,17,246,A,40.962523079784496,57.16099497158903,2.048126153989225,0.8978828093731359,B,541,Incorrect
1,relearn,17,247,B,55.971059854504844,24.320486033650504,2.7985529927252424,0.3820253012752479,A,590,Incorrect
1,relearn,17,248,B,71.54486792599856,43.44126737796804,3.577243396299928,0.6823738322862716,B,795,Correct
1,relearn,17,249,A,52.82194430232353,66.09580174813338,2.6410972151161762,1.0382304260253163,B,639,Incorrect
1,relearn,17,250,A,36.60737735823829,52.21815409442395,1.8303688679119146,0.8202408464353103,A,587,Correct
1,relearn,17,251,A,44.01434448155972,67.20140624663156,2.2007172240779855,1.0555972208766047,A,489,Correct
1,relearn,17,252,B,72.5653349924908,54.522796564646725,3.62826674962454,0.8564420857033247,A,581,Incorrect
1,relearn,17,253,B,49.75809949610165,39.17185588797863,2.4879049748050823,0.6153100734257587,B,680,Correct
1,relearn,17,254,B,62.958700342328605,43.600248093825726,3.1479350171164304,0.6848710955312765,B,555,Correct
1,relearn,17,255,B,75.88828864523293,46.36332287549089,3.7944144322616467,0.7282733727082689,B,757,Correct
1,relearn,17,256,B,84.80487592647334,64.25971634308598,4.240243796323667,1.0093892639260145,B,6745,Correct
1,relearn,17,257,A,58.65817167825877,85.8772310513474,2.9329085839129387,1.3489563909077311,A,3750,Correct
1,relearn,17,258,A,31.16120995055502,47.54948386846946,1.558060497527751,0.7469055460158502,A,1411,Correct
1,relearn,17,259,B,88.02999806511274,66.67525637156459,4.401499903255637,1.0473324779656166,B,4786,Correct
1,relearn,17,260,B,65.10688906435594,48.67191183043751,3.2553444532177966,0.7645366032133631,B,4277,Correct
1,relearn,17,261,B,46.19816490313969,35.18341658552862,2.3099082451569846,0.55265981536643,B,1726,Correct
1,relearn,17,262,B,71.28716787620544,59.99094959882204,3.5643583938102723,0.9423356327076745,B,2120,Correct
1,relearn,17,263,B,56.549555348105905,26.33230338806897,2.827477767405295,0.41362685438027536,B,1118,Correct
1,relearn,17,264,A,30.003515355539637,58.54493934025635,1.500175767776982,0.9196217566810471,A,1632,Correct
1,relearn,17,265,A,49.5898337940654,74.05188412083105,2.47949168970327,1.1632042756924272,A,1732,Correct
1,relearn,17,266,B,73.24281072483883,46.93376241354382,3.6621405362419415,0.7372338160185902,B,1511,Correct
1,relearn,17,267,A,32.2291574238694,59.543937505694586,1.61145787119347,0.9353139831684992,A,622,Correct
1,relearn,17,268,B,37.24276920747086,20.875958577580434,1.862138460373543,0.32791879051985756,B,2367,Correct
1,relearn,17,269,B,52.00220902330355,28.834055119758702,2.600110451165177,0.4529242786871855,B,819,Correct
1,relearn,17,270,A,61.2236879140673,79.62364341642625,3.0611843957033646,1.25072526604549,A,721,Correct
1,relearn,17,271,A,47.98019534991298,68.73827351052074,2.399009767495649,1.0797382754054892,A,637,Correct
1,relearn,17,272,A,63.44828189435262,73.3666578433611,3.1724140947176305,1.152440766495696,A,672,Correct
1,relearn,17,273,B,40.89631424695685,14.49247308775244,2.0448157123478423,0.22764723492415426,B,681,Correct
1,relearn,17,274,B,31.656818724667016,10.47340052009871,1.5828409362333509,0.16451579066022815,A,2919,Incorrect
1,relearn,17,275,B,65.0214404328203,35.89838067697771,3.2510720216410154,0.5638904450528148,B,898,Correct
1,relearn,17,276,B,82.30268254191692,53.668001530771335,4.115134127095846,0.843014996709585,B,612,Correct
1,relearn,17,277,B,65.82113212813066,39.23083565955443,3.291056606406533,0.6162365255112234,B,661,Correct
1,relearn,17,278,B,51.589444183694624,20.7863901973776,2.5794722091847313,0.32651185369366176,B,534,Correct
1,relearn,17,279,A,51.90509127641454,71.37898274546193,2.5952545638207267,1.1212184390692788,A,1117,Correct
1,relearn,17,280,A,21.921921474141286,51.8980853773002,1.0960960737070642,0.8152132187835109,B,533,Incorrect
1,relearn,17,281,A,16.5376111236852,37.62597725715828,0.8268805561842599,0.5910274686761254,A,718,Correct
1,relearn,17,282,B,67.43321021234058,36.3061993621691,3.371660510617029,0.5702964459797845,A,575,Incorrect
1,relearn,17,283,A,44.618981396295005,55.645616252331536,2.2309490698147503,0.8740792961140078,B,660,Incorrect
1,relearn,17,284,B,56.848429007722906,44.82998452829459,2.842421450386145,0.7041877502731718,A,774,Incorrect
1,relearn,17,285,A,40.13886763305258,59.705349817315195,2.0069433816526288,0.9378494418304306,B,391,Incorrect
1,relearn,17,286,A,27.073389715952533,38.32310706222489,1.3536694857976266,0.6019779580471041,A,757,Correct
1,relearn,17,287,A,27.533584504037737,58.65006208913347,1.376679225201887,0.9212730209590347,A,522,Correct
1,relearn,17,288,B,47.685558224973036,29.990401742695685,2.3842779112486516,0.47108812896529645,A,544,Incorrect
1,relearn,17,289,A,57.28736006177546,68.34015908221531,2.864368003088773,1.073484708589227,A,571,Correct
1,relearn,17,290,A,12.946867673395506,40.580043224660045,0.6473433836697753,0.6374298283847413,A,920,Correct
1,relearn,17,291,B,58.09729189780075,26.99178290424485,2.9048645948900376,0.423985934396331,A,568,Incorrect
1,relearn,17,292,A,27.377067258681606,55.5715660251905,1.3688533629340804,0.8729161178660931,A,387,Correct
1,relearn,17,293,B,54.38065667560186,43.69651276434058,2.719032833780093,0.686383217439725,B,831,Correct
1,relearn,17,294,B,84.60475511272254,66.67418120242152,4.230237755636128,1.0473155892482107,A,873,Incorrect
1,relearn,17,295,B,43.700889478095505,19.232463487478167,2.1850444739047754,0.3021028300134767,B,1361,Correct
1,relearn,17,296,B,73.08240273749037,41.61434983185031,3.6541201368745186,0.6536766785782829,B,1047,Correct
1,relearn,17,297,B,50.92860573236071,21.480154022421036,2.5464302866180355,0.3374094703740758,B,1931,Correct
1,relearn,17,298,B,88.96513038536328,66.27428630688729,4.448256519268164,1.0410340549181185,B,1122,Correct
1,relearn,17,299,B,31.079913782926003,16.309637593153038,1.5539956891463,0.2561911882268075,A,684,Incorrect
1,relearn,17,300,A,51.96247412215608,68.16724516225561,2.5981237061078044,1.070768583085983,A,1037,Correct
1,relearn,17,301,B,53.975276803874934,47.052311608100645,2.6987638401937466,0.7390959824121337,B,468,Correct
1,relearn,17,302,A,26.42947796504301,46.464561240104885,1.3214738982521503,0.7298636212209328,A,880,Incorrect
1,relearn,17,303,A,56.0204522108149,79.08419828780228,2.801022610540745,1.2422516817799907,A,2022,Correct
1,relearn,17,304,B,79.10608937006693,49.77858695748561,3.9553044685033463,0.7819202154585875,B,1333,Correct
1,relearn,17,305,B,84.85254854694149,59.572347434400896,4.242627427347075,0.9357602452850631,B,923,Correct
1,relearn,17,306,A,34.62283439736572,63.02547937398339,1.7311417198682861,0.9900019149514062,A,1622,Correct
1,relearn,17,307,A,47.9731025525398,54.95426099990628,2.3986551276269896,0.8632195132038084,A,700,Correct
1,relearn,17,308,A,62.48466477566874,77.61851322519557,3.124233238783437,1.219228754654183,A,768,Incorrect
1,relearn,17,309,B,57.38596885045026,29.254191030214592,2.869298442522513,0.45952375813617297,B,914,Incorrect
1,relearn,17,310,A,64.96014799040441,81.49506500684853,3.2480073995202203,1.28012148764669,A,686,Correct
1,relearn,17,311,B,86.18653658010581,61.54640999111054,4.30932682900529,0.9667687474144914,A,1327,Incorrect
1,relearn,17,312,B,54.985106665845905,35.90402869463771,2.7492553332922953,0.5639791639067548,A,3457,Correct
1,relearn,17,313,B,85.32906316916657,65.21622200624151,4.266453158458329,1.0244140197484464,A,862,Correct
1,relearn,17,314,A,16.69201998592288,46.86259301390234,0.8346009992961441,0.7361158897032197,B,506,Incorrect
1,relearn,17,315,B,61.47797405109877,32.9200248136691,3.0738987025549385,0.5171065405530827,A,1697,Incorrect
1,relearn,17,316,B,63.6397144697244,54.83288639671153,3.18198572348622,0.8613129653951631,B,768,Incorrect
1,relearn,17,317,A,35.53045470910792,65.87038465618834,1.776522735455396,1.0346895826250755,A,620,Incorrect
1,relearn,17,318,A,54.4014588823685,68.83552989761414,2.7200729441184253,1.0812659751615257,A,1012,Incorrect
1,relearn,17,319,B,54.98142605345454,44.50774395372496,2.7490713026727267,0.6991260071643893,B,879,Incorrect
1,relearn,17,320,B,57.12695480404745,39.780502029478576,2.8563477402023727,0.6248706646596188,B,658,Correct
1,relearn,17,321,B,40.27809242126595,19.151347426582056,2.013904621063298,0.30082866190847984,B,559,Correct
1,relearn,17,322,A,28.42923717529849,38.85292116832428,1.4214618587649244,0.6103002585645545,B,454,Incorrect
1,relearn,17,323,B,54.19577112735048,41.435230975924085,2.709788556367524,0.6508630861687967,B,572,Correct
1,relearn,17,324,A,43.45660605930228,56.563364983924565,2.172830302965114,0.8884952594790778,B,521,Correct
1,relearn,17,325,A,22.3769004242916,54.63890067575157,1.1188450212145797,0.8582658448158177,A,609,Incorrect
1,relearn,17,326,B,39.90052148210572,24.408549290757364,1.9950260741052859,0.3834085956831385,B,751,Correct
1,relearn,17,327,A,59.01333016047611,80.42371057133946,2.9506665080238053,1.263292691526759,A,2514,Incorrect
1,relearn,17,328,B,42.391226478069186,28.50211962330776,2.1195613239034596,0.4477102481016057,B,1494,Incorrect
1,relearn,17,329,A,44.63633447147332,71.73941818519731,2.231816723573666,1.1268801457171091,B,913,Correct
1,relearn,17,330,A,49.8485858645018,79.71916251207386,2.49242929322509,1.2522256764913104,B,733,Correct
1,relearn,17,331,A,65.92989980350238,79.89050776718287,3.2964949901751193,1.2549171614647001,B,1364,Incorrect
1,relearn,17,332,A,13.494614082316982,40.854464228034146,0.6747307041158491,0.6417404234256954,A,739,Incorrect
1,relearn,17,333,B,65.82469867836592,37.047188054130785,3.291234933918296,0.5819358691350841,B,883,Correct
1,relearn,17,334,A,27.945652106850915,49.92958979244474,1.3972826053425456,0.7842921624434814,A,1531,Incorrect
1,relearn,17,335,B,52.13669048457584,20.952151047461797,2.606834524228792,0.32911561903804837,B,535,Correct
1,relearn,17,336,A,43.620865091731076,50.67383938205589,2.181043254586554,0.7959828076592796,B,617,Correct
1,relearn,17,337,B,52.635677599800424,26.934088236291608,2.631783879990021,0.423079668671365,B,475,Correct
1,relearn,17,338,A,46.90226205726695,69.59927265484976,2.3451131028633476,1.0932628183383448,B,1128,Incorrect
1,relearn,17,339,B,41.1615929498444,31.427195314059794,2.0580796474922196,0.4936572296079092,B,527,Correct
1,relearn,17,340,B,73.05323521703525,51.188901134438055,3.6526617608517626,0.8040733787464241,B,721,Incorrect
1,relearn,17,341,B,70.855234418761,39.487953790484795,3.54276172093805,0.6202753276674013,A,650,Correct
1,relearn,17,342,B,46.66972026052366,38.395380029983606,2.333486013026183,0.6031132191699237,A,714,Incorrect
1,relearn,17,343,B,47.93434061577966,28.066264390362655,2.396717030788983,0.4408638501123606,B,456,Correct
1,relearn,17,344,B,47.071488648620345,25.68837004191964,2.3535744324310173,0.40351197303195424,A,2605,Incorrect
1,relearn,17,345,B,75.68675572673072,47.00616877036579,3.784337786336536,0.7383711724119155,B,488,Correct
1,relearn,17,346,B,63.75661013838226,40.96946521094971,3.187830506919113,0.643546854641111,B,962,Correct
1,relearn,17,347,A,31.22631246007399,50.966394896658564,1.5613156230036995,0.8005782589364944,A,1670,Incorrect
1,relearn,17,348,B,47.90176584432091,26.633797673288825,2.395088292216046,0.4183627155380055,B,685,Incorrect
1,relearn,17,349,A,64.16535100608877,89.20072723945759,3.2082675503044387,1.4011617469517346,A,800,Correct
1,relearn,17,350,A,17.557515767959654,48.166528769490164,0.8778757883979827,0.7565980646557586,A,1237,Correct
1,relearn,17,351,B,75.42973463022763,44.02413899215093,3.7714867315113816,0.6915295581917866,A,2766,Incorrect
1,relearn,17,352,A,56.84469983405086,84.24763081350078,2.8422349917025427,1.3233586902301957,B,668,Correct
1,relearn,17,353,B,72.02411509977685,44.31606078410784,3.6012057549888423,0.6961150549769596,B,1935,Correct
1,relearn,17,354,B,55.93897783216461,44.435671837308774,2.7969488916082303,0.6979939010070806,B,1925,Correct
1,relearn,17,355,A,54.83176570270451,74.5071046193,2.741588285135226,1.170354862561195,A,1377,Correct
1,relearn,17,356,B,45.03387425225167,36.227931092785816,2.2516937126125836,0.5690670108792658,B,909,Incorrect
1,relearn,17,357,A,45.35063563504026,74.93347692717266,2.267531781752013,1.1770523031117295,A,516,Incorrect
1,relearn,17,358,B,55.69648172884665,38.91915808426051,2.784824086442333,0.6113407056070632,B,604,Correct
1,relearn,17,359,B,57.408351153290916,37.45426179050552,2.870417557664546,0.5883301684334052,A,2999,Correct
1,relearn,17,360,B,42.97522306427123,33.21084540447354,2.1487611532135618,0.521674739711002,B,1396,Correct
1,relearn,17,361,B,43.94894546313736,36.454629117986926,2.197447273156868,0.5726279751320413,B,1406,Incorrect
1,relearn,17,362,B,62.87386901494789,45.19968991894637,3.1436934507473944,0.7099950689694927,B,517,Incorrect
1,relearn,17,363,A,13.345249742623832,38.3759024038645,0.6672624871311916,0.6028072653342978,A,590,Correct
1,relearn,17,364,A,29.4893783382229,43.04498511737488,1.4744689169111451,0.6761490450931344,A,569,Correct
1,relearn,17,365,B,40.5021114092132,14.010021934055839,2.02510557046066,0.22006890992330846,A,3481,Incorrect
1,relearn,17,366,A,33.04233034739018,57.82926093097572,1.652116517369509,0.9083799065164028,B,4756,Correct
1,relearn,17,367,B,53.83210510461007,27.69600880684048,2.6916052552305034,0.4350478890066414,B,752,Correct
1,relearn,17,368,B,74.017482247739,45.895137841145356,3.7008741123869497,0.7209191393861658,B,877,Incorrect
1,relearn,17,369,B,71.18481578914927,41.0416747153763,3.559240789457464,0.6446811188842408,A,938,Correct
1,relearn,17,370,B,88.76040375119018,67.99713856475182,4.438020187559509,1.0680965549007577,A,756,Incorrect
1,relearn,17,371,B,62.362031952173595,44.33533980884074,3.1181015976086797,0.696417889189306,B,592,Correct
1,relearn,17,372,B,44.66321231177989,29.57262065022988,2.2331606155889943,0.46452563891079995,A,1067,Correct
1,relearn,17,373,A,15.737122679003722,36.863220098515185,0.786856133950186,0.5790461072457945,A,679,Incorrect
1,relearn,17,374,B,35.89430273267491,12.1502544675728,1.7947151366337453,0.19085575087286635,B,693,Correct
1,relearn,17,375,A,36.91238956551875,49.48576582416794,1.8456194782759376,0.7773205918523545,A,5143,Correct
1,relearn,17,376,B,43.697666982914164,29.347218244295323,2.1848833491457085,0.4609850261978727,A,5574,Incorrect
1,relearn,17,377,A,48.28315319791369,75.55610686930771,2.4141576598956846,1.186832551372312,B,565,Correct
1,relearn,17,378,B,47.51138574706367,35.02058969895219,2.3755692873531835,0.550102136613053,A,586,Correct
1,relearn,17,379,B,48.29226068662853,38.994180612547744,2.4146130343314267,0.6125191567256677,A,625,Correct
1,relearn,17,380,A,45.206662912380494,53.337059925785496,2.2603331456190245,0.8378165781346313,A,705,Correct
1,relearn,17,381,B,57.6766659866086,29.10455252531445,2.88383329933043,0.45717324199773063,B,884,Incorrect
1,relearn,17,382,A,41.56735224313665,49.567237622341395,2.0783676121568324,0.7786003478654369,A,840,Incorrect
1,relearn,17,383,B,51.631069549823614,34.275020401427504,2.5815534774911804,0.5383907614738247,A,1946,Incorrect
1,relearn,17,384,B,65.97858507272512,50.672650669726316,3.298929253636256,0.7959641354096705,B,598,Correct
1,relearn,17,385,A,25.299561904226735,37.59091774248723,1.2649780952113368,0.5904767551074804,A,821,Incorrect
1,relearn,17,386,A,19.51060664099506,42.88536845639776,0.975530332049753,0.6736417924455532,B,1058,Incorrect
1,relearn,17,387,A,22.037502071007562,40.9425818045501,1.1018751035503782,0.6431245710808687,A,663,Incorrect
1,relearn,17,388,A,55.46135978561039,64.17658280065984,2.7730679892805195,1.0080834052952503,A,1822,Correct
1,relearn,17,389,B,54.032068261981834,23.46798083909173,2.701603413099092,0.3686341809933831,B,1014,Correct
1,relearn,17,390,B,83.23656538583036,55.533037721910375,4.161828269291518,0.8723109166933926,A,2383,Incorrect
1,relearn,17,391,A,54.520693831846856,77.78403808316838,2.726034691592343,1.2218288130431523,A,984,Incorrect
1,relearn,17,392,A,47.008677367990714,62.32493522492643,2.3504338683995356,0.978997793190443,B,650,Incorrect
1,relearn,17,393,A,47.542475836832864,73.59092840293344,2.377123791841643,1.1559636002075409,A,848,Correct
1,relearn,17,394,A,33.45690881770576,45.278978144757986,1.672845440885288,0.7112405255081224,A,1940,Correct
1,relearn,17,395,A,10.293664366738732,34.08017259424062,0.5146832183369365,0.5353300992756928,A,819,Incorrect
1,relearn,17,396,B,49.95776588394481,42.32378280945375,2.4978882941972405,0.6648204257315494,B,1906,Correct
1,relearn,17,397,B,44.66589642526445,15.311698557140225,2.2332948212632227,0.24051559850546586,B,2197,Incorrect
1,relearn,17,398,A,38.346908817534604,55.23536875972878,1.91734544087673,0.8676351435694356,A,1170,Correct
1,relearn,17,399,A,29.18415334898245,48.24398423011907,1.4592076674491223,0.7578147321862194,A,1307,Correct
1,relearn,17,400,B,47.00366947927237,33.668433705607505,2.3501834739636185,0.5288625199370576,B,1994,Correct
1,relearn,17,401,B,73.62533096668517,60.88735651268799,3.6812665483342584,0.9564163595838161,B,1345,Correct
1,relearn,17,402,B,47.98463450567929,23.778283514926944,2.3992317252839643,0.37350840402734886,B,2435,Incorrect
1,relearn,17,403,B,87.04995524395775,65.7292970809361,4.3524977621978875,1.0324733841754496,B,1173,Incorrect
1,relearn,17,404,A,11.451742284290372,33.62815829289474,0.5725871142145187,0.5282298752335639,A,610,Incorrect
1,relearn,17,405,B,75.36845182838444,53.2614511037693,3.7684225914192218,0.8366289175356683,B,956,Correct
1,relearn,17,406,A,25.321319703969287,57.2030932127016,1.2660659851984644,0.8985440869981776,A,2634,Correct
1,relearn,17,407,B,56.08006965048965,46.64717185327832,2.8040034825244824,0.7327320620249987,B,1943,Correct
1,relearn,17,408,B,43.25815259518255,35.339951107747915,2.162907629759127,0.5551186538916166,A,2114,Incorrect
1,relearn,17,409,A,27.530820115815125,46.04132387926984,1.3765410057907561,0.7232154243033122,A,634,Incorrect
1,relearn,17,410,A,37.241310937187905,55.71384110010066,1.8620655468593952,0.8751509695167266,B,426,Incorrect
1,relearn,17,411,B,64.18287684639263,40.02606599383912,3.2091438423196315,0.6287279743917261,B,544,Incorrect
1,relearn,17,412,A,37.64433164665969,61.599056454437644,1.8822165823329842,0.9675957161266211,A,926,Incorrect
1,relearn,17,413,A,58.47693668821621,78.24317134771837,2.9238468344108104,1.2290408614977972,B,1247,Incorrect
1,relearn,17,414,B,70.734276645364,59.42718092111982,3.5367138322682,0.9334799750267077,B,605,Incorrect
1,relearn,17,415,B,38.42754148090789,23.466887900190553,1.9213770740453946,0.36861701314926926,A,894,Incorrect
1,relearn,17,416,A,45.57783839379175,74.82125713473133,2.2788919196895874,1.1752895587341239,B,727,Incorrect
1,relearn,17,417,B,80.10914662637279,67.0907034186446,4.005457331318639,1.0538583049209274,A,664,Incorrect
1,relearn,17,418,B,55.9629685028852,24.27210353447923,2.79814842514426,0.381265310755454,B,807,Incorrect
1,relearn,17,419,B,45.895897001014085,22.641568151840236,2.294794850050704,0.3556529208578696,A,528,Incorrect
1,relearn,17,420,A,30.14552693517419,60.59113139519622,1.5072763467587094,0.9517632663192117,A,1456,Correct
1,relearn,17,421,A,18.519510025965403,35.03566716151877,0.9259755012982701,0.5503389728412226,A,1159,Correct
1,relearn,17,422,B,75.81625926914381,64.64125722790057,3.7908129634571908,1.0153824941299026,A,701,Incorrect
1,relearn,17,423,A,32.93543489439808,44.52650409330875,1.6467717447199037,0.6994206907478732,A,2695,Incorrect
1,relearn,17,424,A,21.712819796680957,53.587425624996385,1.085640989834048,0.8417493133413904,A,869,Correct
1,relearn,17,425,A,48.90681627727287,62.655986437608306,2.4453408138636434,0.9841979334790598,B,6257,Incorrect
1,relearn,17,426,B,60.21551873548856,33.4933138275534,3.010775936774428,0.526111743325096,A,1143,Incorrect
1,relearn,17,427,B,74.05221069700787,51.92450827753182,3.7026105348503933,0.8156282687297818,B,1105,Incorrect
1,relearn,17,428,A,46.5239863787873,72.26319051924038,2.326199318939365,1.135107542301026,A,759,Incorrect
1,relearn,17,429,A,37.128835020819196,70.38254754103404,1.8564417510409599,1.1055664714792344,A,1322,Incorrect
1,relearn,17,430,B,59.11386377506268,50.43524430164804,2.955693188753134,0.7922349649003197,B,401,Correct
1,relearn,17,431,A,50.17206015825262,70.48092006926765,2.5086030079126314,1.1071117035393032,B,2244,Incorrect
1,relearn,17,432,A,13.270325641220293,37.97104411905201,0.6635162820610147,0.5964477662677385,A,911,Incorrect
1,relearn,17,433,A,27.75357783382267,53.15283686427469,1.3876788916911336,0.8349228090513106,B,823,Incorrect
1,relearn,17,434,A,58.68171342793465,77.14359283102469,2.9340856713967325,1.211768722547347,A,870,Incorrect
1,relearn,17,435,A,22.014237860794253,41.663401064859684,1.1007118930397126,0.6544471735446418,A,833,Correct
1,relearn,17,436,B,46.36839540055284,26.26505778857131,2.318419770027642,0.412570562973435,A,2517,Correct
1,relearn,17,437,A,60.83305526005766,80.60849453381105,3.041652763002883,1.266195271221769,B,1222,Correct
1,relearn,17,438,B,64.40617450270227,31.775643565222108,3.2203087251351135,0.49913064193794776,B,1727,Correct
1,relearn,17,439,A,27.576651522325022,44.61483036056004,1.3788325761162512,0.7008081165094515,A,2237,Correct
1,relearn,17,440,B,65.26538197963251,35.12056717866424,3.2632690989816253,0.551672579191992,B,880,Correct
1,relearn,17,441,A,52.46964014810243,76.50832453717943,2.6234820074051215,1.2017899515223331,A,978,Incorrect
1,relearn,17,442,B,86.85528544276357,60.084837635187554,4.342764272138179,0.9438104225342037,B,633,Correct
1,relearn,17,443,B,51.23703779627298,22.294624053160064,2.561851889813649,0.3502031356997698,A,2082,Correct
1,relearn,17,444,A,35.13041145860343,62.06491959590463,1.7565205729301716,0.9749134772406758,A,2037,Correct
1,relearn,17,445,A,27.02436392407867,37.80017520758615,1.3512181962039336,0.5937637636827984,B,1883,Correct
1,relearn,17,446,A,47.034720784783275,68.67748034838672,2.3517360392391637,1.0787833386477457,A,1136,Correct
1,relearn,17,447,A,46.87498882416254,74.55894478661718,2.343749441208127,1.1711691660052175,A,627,Incorrect
1,relearn,17,448,A,40.32681776427226,52.994682971278905,2.0163408882136133,0.8324385335094495,B,497,Correct
1,relearn,17,449,B,64.08787226931614,38.63815808639715,3.2043936134658066,0.6069267679623317,B,632,Incorrect
1,relearn,17,450,A,19.830152577488633,46.989943868211505,0.9915076288744317,0.7381163122448502,A,443,Incorrect
1,relearn,17,451,B,73.11389202901705,53.135062049203896,3.6556946014508527,0.8346436029090839,B,566,Correct
1,relearn,17,452,A,36.969669822162466,50.53411922927248,1.8484834911081234,0.7937880886315655,B,724,Correct
1,relearn,17,453,B,83.78815287433245,66.75368185060205,4.189407643716623,1.0485643825096085,B,589,Incorrect
1,relearn,17,454,B,70.78013537158614,53.846300102716626,3.539006768579307,0.8458157041284293,A,512,Correct
1,relearn,17,455,A,24.49408518164374,50.10207610558973,1.224704259082187,0.7870015711145871,A,677,Correct
1,relearn,17,456,B,44.74963581709888,31.55877005993453,2.2374817908549436,0.4957240008830992,A,1479,Incorrect
1,relearn,17,457,B,81.89535962835089,65.31664356074351,4.094767981417545,1.0259914378378745,B,1344,Incorrect
1,relearn,17,458,B,68.90929623310878,42.761719965793674,3.4454648116554387,0.671699526497007,B,825,Correct
1,relearn,17,459,A,11.040764516176694,34.719679500107944,0.5520382258088347,0.5453754502626563,A,505,Correct
1,relearn,17,460,A,49.58701347732134,69.40285172237849,2.479350673866067,1.0901774455460298,A,916,Incorrect
1,relearn,17,461,A,12.396030230440054,30.959773761950224,0.6198015115220027,0.48631498903672427,B,735,Correct
1,relearn,17,462,A,69.67546742464923,87.15934597884097,3.4837733712324614,1.3690958050940893,A,653,Incorrect
1,relearn,17,463,B,69.83854901049688,49.063927721215556,3.4919274505248437,0.770694374426157,B,627,Correct
1,relearn,17,464,A,25.627373283995176,54.232961429872496,1.2813686641997588,0.8518893660525303,A,1034,Incorrect
1,relearn,17,465,B,81.04309043261713,60.479924697179975,4.0521545216308565,0.9500164355916224,A,571,Correct
1,relearn,17,466,A,17.62906533360315,44.841049328711755,0.8814532666801576,0.7043615557516918,A,498,Correct
1,relearn,17,467,A,19.099730020356308,46.983463551449546,0.9549865010178153,0.7380145196671886,A,474,Incorrect
1,relearn,17,468,A,50.53767843867398,77.98583224833448,2.526883921933699,1.2249985883772678,A,361,Correct
1,relearn,17,469,B,61.82772418655393,34.70456263045997,3.0913862093276965,0.5451379950294994,B,564,Correct
1,relearn,17,470,B,68.9123814654842,47.34373063232628,3.44561907327421,0.7436735817402516,B,392,Incorrect
1,relearn,17,471,A,20.05328236842102,48.60396217036909,1.002664118421051,0.7634692524489387,A,549,Correct
1,relearn,17,472,A,53.122406725682,63.192471641482626,2.6561203362841,0.9926250233553158,A,1097,Incorrect
1,relearn,17,473,B,77.35863136831834,65.56272934018357,3.8679315684159175,1.0298569442220833,B,471,Incorrect
1,relearn,17,474,A,55.491041906547856,63.78068761033152,2.7745520953273926,1.0018646981876154,A,510,Incorrect
1,relearn,17,475,A,26.626298077727654,51.69947642769162,1.3313149038863827,0.8120934766983734,B,474,Correct
1,relearn,17,476,A,23.42382204655624,35.401450687804264,1.1711911023278119,0.556084687036136,B,639,Correct
1,relearn,17,477,A,22.578899920877948,49.95575923938978,1.1289449960438973,0.7847032311548369,B,589,Correct
1,relearn,17,478,B,52.70937913418522,40.95250784786461,2.635468956709261,0.6432804890046491,B,502,Correct
1,relearn,17,479,B,63.895798717822316,32.542122178839406,3.1947899358911163,0.5111704598463168,B,685,Correct
1,relearn,17,480,A,43.8232352730345,74.61902575307525,2.191161763651725,1.1721129156194439,A,3180,Incorrect
1,relearn,17,481,A,37.02432170923594,61.157549648049155,1.8512160854617972,0.9606605434293213,B,427,Correct
1,relearn,17,482,A,59.059906509729714,80.82049351019975,2.952995325486486,1.2695253433557254,A,1189,Incorrect
1,relearn,17,483,A,43.75247295752169,55.630516528729444,2.1876236478760847,0.8738421102103099,B,615,Incorrect
1,relearn,17,484,B,60.33393278871625,48.91826656834003,3.0166966394358123,0.7684063343872213,A,461,Correct
1,relearn,17,485,A,67.43965044888874,84.64545069170514,3.371982522444437,1.3296076302642896,B,1287,Incorrect
1,relearn,17,486,A,67.824459519966,84.90728944847699,3.3912229759983,1.3337205838377872,A,516,Correct
1,relearn,17,487,A,18.81251726868874,38.44630124935294,0.940625863434437,0.6039130878133364,A,2460,Incorrect
1,relearn,17,488,B,73.43642732477676,53.67770188505281,3.6718213662388384,0.8431673695183245,B,626,Incorrect
1,relearn,17,489,A,59.94494435406945,69.744804122055,2.9972472177034724,1.0955488212795357,A,474,Incorrect
1,relearn,17,490,B,67.22226795795997,53.26789723323158,3.3611133978979986,0.8367301731004821,B,460,Incorrect
1,relearn,17,491,B,61.02545304352568,30.91825381492329,3.051272652176284,0.485662795233938,A,386,Incorrect
1,relearn,17,492,A,63.46092677679488,88.58636740407891,3.1730463388397436,1.3915114052243032,B,412,Correct
1,relearn,17,493,A,67.57113631148185,85.48613850733373,3.3785568155740924,1.3428131235919958,B,745,Correct
1,relearn,17,494,A,60.43851480810371,70.65593397776391,3.0219257404051856,1.1098608155853427,B,601,Incorrect
1,relearn,17,495,B,33.76026088055421,13.675848923017472,1.6880130440277106,0.21481973254077785,A,966,Correct
1,relearn,17,496,B,80.31821821557864,49.14592518620092,4.015910910778932,0.771982387594212,A,820,Incorrect
1,relearn,17,497,B,57.82578019110686,34.078074937746536,2.8912890095553427,0.5352971493645349,B,414,Correct
1,relearn,17,498,B,40.68101618977529,29.504693436400768,2.0340508094887646,0.46345864073107823,B,594,Incorrect
1,relearn,17,499,A,54.46733713606156,77.60258378381448,2.723366856803078,1.2189785355740899,A,433,Correct
1,relearn,17,500,A,57.86136076892638,69.03312744958204,2.8930680384463194,1.084369830249674,A,553,Incorrect
1,relearn,17,501,B,43.887889864879995,30.604214281901413,2.1943944932439994,0.4807298737845465,B,551,Correct
1,relearn,17,502,B,45.838908530565746,25.015166482383265,2.291945426528287,0.3929373162469045,B,617,Correct
1,relearn,17,503,B,61.344638373534465,45.63900912237478,3.067231918676723,0.7168958788798507,B,737,Incorrect
1,relearn,17,504,B,62.94126673385244,52.317645009780904,3.1470633366926215,0.8218036460792318,A,559,Correct
1,relearn,17,505,B,58.11226223805213,50.17460258713507,2.9056131119026065,0.7881408144226547,B,1025,Correct
1,relearn,17,506,A,23.894833023663136,52.78522552007542,1.1947416511831568,0.8291483835597471,A,700,Correct
1,relearn,17,507,B,65.72560616462636,49.109103124224745,3.286280308231318,0.7714039879972401,B,737,Incorrect
1,relearn,17,508,B,75.55090717383543,47.57246103719857,3.7775453586917713,0.7472664705382487,A,331,Correct
1,relearn,17,509,B,75.92257791993813,59.688202005581175,3.796128895996907,0.937580084633587,A,622,Correct
1,relearn,17,510,A,34.29618748238304,46.61543974874396,1.714809374119152,0.7322336152925583,B,1069,Incorrect
1,relearn,17,511,A,28.894576991066323,56.625293334549454,1.4447288495533162,0.8894680277359382,A,353,Correct
1,relearn,17,512,B,43.259671792386925,33.95054755504773,2.1629835896193463,0.5332939539214443,B,708,Incorrect
1,relearn,17,513,A,33.851835191580534,51.90880851861924,1.6925917595790267,0.8153816574934672,A,298,Correct
1,relearn,17,514,A,32.55382830630706,51.93546990541282,1.627691415315353,0.8158004535778935,A,487,Correct
1,relearn,17,515,B,64.85874864876509,55.67355504903687,3.242937432438254,0.874518157706406,A,593,Correct
1,relearn,17,516,A,52.27378642753509,62.09687350547985,2.613689321376755,0.9754154080785506,A,487,Correct
1,relearn,17,517,A,27.13580139883492,58.25517440119679,1.3567900699417461,0.91507013966196,A,405,Incorrect
1,relearn,17,518,B,62.424572139305575,30.879167162320783,3.121228606965279,0.4850488235305908,B,661,Incorrect
1,relearn,17,519,B,35.600951936985055,24.207288443653002,1.7800475968492526,0.38024719768954685,A,356,Incorrect
1,relearn,17,520,A,19.496631910075862,43.84822316165987,0.9748315955037932,0.6887662787881823,A,937,Correct
1,relearn,17,521,B,56.789467298903936,42.270217726589365,2.8394733649451966,0.6639790273774709,B,467,Correct
1,relearn,17,522,A,59.86550931111771,70.55017917644977,2.993275465555886,1.108199623050891,B,2451,Incorrect
1,relearn,17,523,B,32.90007168705176,20.97870477485745,1.645003584352588,0.3295327240126064,A,794,Incorrect
1,relearn,17,524,B,62.25581649445523,29.598924916518076,3.1127908247227616,0.46493882535944536,B,471,Incorrect
1,relearn,17,525,B,44.44918603077229,34.95150936686285,2.2224593015386147,0.5490170252940558,A,405,Correct
1,relearn,17,526,B,44.205884265524986,30.563176970356025,2.2102942132762493,0.4800852612021762,A,297,Correct
1,relearn,17,527,A,52.016411461113876,63.82440457626071,2.6008205730556937,1.002551402682617,A,1173,Correct
1,relearn,17,528,A,53.07548847989777,81.34375492221562,2.653774423994889,1.2777447143952059,A,468,Correct
1,relearn,17,529,A,47.727355829657746,56.363827893117914,2.386367791482887,0.8853609381860934,B,839,Incorrect
1,relearn,17,530,B,66.61935293696081,33.64521949516672,3.3309676468480403,0.5284978719721594,A,435,Incorrect
1,relearn,17,531,A,65.96641594508189,88.60592972367868,3.2983207972540947,1.3918186894220124,B,1111,Correct
1,relearn,17,532,A,30.872507301404674,62.44847555981366,1.5436253650702338,0.9809383602329617,A,855,Correct
1,relearn,17,533,B,79.31763071936103,50.91017384931331,3.9658815359680517,0.7996951407899094,B,748,Correct
1,relearn,17,534,A,14.731870729399944,31.736763666587308,0.7365935364699971,0.4985199179183307,A,772,Incorrect
1,relearn,17,535,A,34.62872712646536,52.40461719795996,1.7314363563232678,0.8231698020164817,B,710,Incorrect
1,relearn,17,536,A,48.57910897019424,77.17057989412423,2.428955448509712,1.2121926343432243,A,1388,Incorrect
1,relearn,17,537,A,60.36839173497137,74.13244230847212,3.0184195867485686,1.1644696807448258,B,299,Incorrect
1,relearn,17,538,B,74.28174281715422,56.27140480736551,3.7140871408577114,0.8839091597499843,A,377,Incorrect
1,relearn,17,539,A,24.513843310346925,40.54578527767484,1.2256921655173463,0.6368917058118624,A,590,Correct
1,relearn,17,540,A,52.6357647346805,80.74617714592318,2.631788236734025,1.2683579846354616,B,711,Incorrect
1,relearn,17,541,A,50.79683149598567,78.75868497896295,2.5398415747992833,1.237138530681514,A,437,Incorrect
1,relearn,17,542,B,59.494842719803664,37.19272591222051,2.974742135990183,0.5842219724640535,B,682,Correct
1,relearn,17,543,A,36.18817944435419,61.19446648794911,1.8094089722177096,0.9612404317944385,B,761,Correct
1,relearn,17,544,A,27.435173047265074,44.6705132899265,1.3717586523632537,0.7016827819185915,100,6309,Correct
1,relearn,17,545,B,33.86898972685519,18.73198359178433,1.6934494863427596,0.29424131019557104,A,1333,Incorrect
1,relearn,17,546,B,40.31062550583223,13.028371449225062,2.0155312752916115,0.20464918016562228,B,443,Correct
1,relearn,17,547,B,42.856777783492795,18.991887707561055,2.1428388891746395,0.2983238744993805,B,589,Correct
1,relearn,17,548,A,41.61857807138953,58.7861014162349,2.0809289035694762,0.9234099217121405,B,1192,Correct
1,relearn,17,549,B,83.69872696837702,64.5058476975827,4.184936348418851,1.0132554862015393,B,1534,Incorrect
1,relearn,17,550,A,29.89463402650214,62.577756077977575,1.494731701325107,0.9829690938635418,B,1069,Incorrect
1,relearn,17,551,A,17.638455750797203,39.19953178907586,0.8819227875398602,0.6157448054636016,A,568,Correct
1,relearn,17,552,B,49.502881894676484,40.5309828409499,2.475144094733824,0.636659189679511,107,1168,Correct
1,relearn,17,553,B,80.69729584335103,57.0015840963805,4.034864792167551,0.8953787892008488,A,593,Incorrect
1,relearn,17,554,B,43.83017903768276,21.63547120725881,2.191508951884138,0.3398491870083889,B,402,Incorrect
1,relearn,17,555,A,38.299286737538004,58.84240541581203,1.9149643368769003,0.9242943428693365,107,354,Incorrect
1,relearn,17,556,A,29.295357391017014,38.681315395794044,1.4647678695508506,0.6076046813930817,A,832,Incorrect
1,relearn,17,557,B,64.3734084869538,55.6070454953624,3.2186704243476902,0.8734734280803196,B,332,Correct
1,relearn,17,558,B,57.57000353613234,28.79753536666745,2.878500176806617,0.4523506277470735,B,1361,Correct
1,relearn,17,559,B,43.034593572851904,32.14971997311289,2.1517296786425955,0.5050066204125023,B,1065,Incorrect
1,relearn,17,560,A,22.996856766125607,44.49577718700097,1.1498428383062802,0.6989380336322527,A,315,Correct
1,relearn,17,561,B,66.3240912949276,33.87300641590759,3.31620456474638,0.532075940556076,A,591,Incorrect
1,relearn,17,562,B,78.69966362127606,47.80163060053573,3.934983181063803,0.7508662576212805,B,451,Incorrect
1,relearn,17,563,A,63.10079545112404,73.3289674476763,3.155039772556202,1.1518487271447246,A,589,Correct
1,relearn,17,564,A,27.594412704527024,58.77366547271859,1.3797206352263514,0.9232145783681841,A,368,Correct
1,relearn,17,565,A,37.20384325983869,49.25715443832875,1.8601921629919347,0.7737295726009574,A,485,Incorrect
1,relearn,17,566,B,58.46506888590119,44.56989286126588,2.9232534442950593,0.7001022399211853,B,326,Incorrect
1,relearn,17,567,A,60.14692112167043,76.87144773157375,3.0073460560835215,1.2074938773216193,B,555,Incorrect
1,relearn,17,568,A,34.59378063996953,66.40591783410575,1.7296890319984766,1.0431017181125704,A,561,Incorrect
1,relearn,17,569,B,36.06894189252651,19.917137122978442,1.8034470946263255,0.3128576583304481,B,1395,Incorrect
1,relearn,17,570,A,62.96908382653061,79.135147521836,3.1484541913265303,1.2430519904767225,A,456,Correct
1,relearn,17,571,B,41.397875756192114,28.77572605183417,2.069893787809606,0.45200804783077325,A,366,Incorrect
1,relearn,17,572,A,41.81961012600131,59.754742426596316,2.090980506300065,0.9386252991227266,B,756,Correct
1,relearn,17,573,B,40.39698313492069,24.990497996437426,2.019849156746034,0.3925498245757913,B,559,Correct
1,relearn,17,574,A,42.64185408864962,55.422593712014844,2.132092704432481,0.8705760662427886,A,896,Incorrect
1,relearn,17,575,A,61.01035944152147,78.52695883487071,3.0505179720760736,1.2334985849218896,B,317,Incorrect
1,relearn,17,576,B,61.30083741764633,30.66262750781473,3.0650418708823164,0.4816474265915553,A,344,Incorrect
1,relearn,17,577,B,59.238233562704195,40.794662334570575,2.9619116781352095,0.6408010574798157,B,339,Incorrect
1,relearn,17,578,A,54.710900375847764,72.02719671259844,2.735545018792388,1.1314005602548307,B,486,Incorrect
1,relearn,17,579,B,60.12072474779429,32.42088954417947,3.0060362373897145,0.5092661420742017,A,389,Incorrect
1,relearn,17,580,B,62.790334997767374,41.479452694610046,3.1395167498883687,0.6515577193015614,B,1986,Incorrect
1,relearn,17,581,B,53.74483481540509,33.82578851050695,2.6872417407702547,0.5313342434324534,107,1266,Correct
1,relearn,17,582,A,35.00006730405808,58.44494869802702,1.7500033652029037,0.9180511073457702,A,917,Incorrect
1,relearn,17,583,A,23.381041723730828,53.88390690436904,1.1690520861865414,0.8464064303874106,A,1162,Correct
1,relearn,17,584,B,54.113698574565866,30.302357449313128,2.705684928728293,0.47598831774607037,B,669,Incorrect
1,relearn,17,585,A,58.98417051790912,80.85984050725529,2.9492085258954557,1.2701434045401778,A,1281,Incorrect
1,relearn,17,586,B,82.05145961160744,52.91707328441015,4.102572980580373,0.8312194433988782,B,521,Incorrect
1,relearn,17,587,B,66.79245386169603,42.23471814154492,3.3396226930848014,0.6634214011995654,A,444,Correct
1,relearn,17,588,A,18.965207756925484,38.16778225794698,0.9482603878462741,0.5995381217269053,A,625,Correct
1,relearn,17,589,A,44.953463409348615,52.30416197180628,2.2476731704674306,0.8215918550139861,A,527,Correct
1,relearn,17,590,B,69.50215218383474,44.47325670334399,3.4751076091917366,0.6985842827021925,A,846,Incorrect
1,relearn,17,591,B,61.32330452284394,47.046774387799005,3.066165226142197,0.7390090039590291,B,656,Incorrect
1,relearn,17,592,A,58.50405589331005,85.68070742670025,2.925202794665503,1.3458694050304898,A,287,Incorrect
1,relearn,17,593,A,43.35794812876541,59.8241795334147,2.16789740643827,0.9397160146460622,B,499,Incorrect
1,relearn,17,594,B,62.066666981336304,40.444966115777646,3.103333349066815,0.6353080421200759,A,411,Incorrect
1,relearn,17,595,B,35.40936686600549,23.41072306527746,1.7704683433002746,0.36773477798550397,B,404,Incorrect
1,relearn,17,596,B,55.908351991958256,43.21405409165186,2.795417599597913,0.6788047743308271,A,324,Correct
1,relearn,17,597,B,36.26580202332565,19.380508200799177,1.8132901011662823,0.30442831093233713,A,1180,Correct
1,relearn,17,598,B,72.32852952081296,45.67286758127533,3.616426476040648,0.7174277263085699,B,885,Correct
1,relearn,17,599,B,57.12110868013596,48.416254035709684,2.8560554340067985,0.7605207399646137,A,623,Incorrect
1,relearn,17,600,A,45.55848175435631,52.503336965235206,2.2779240877178153,0.8247204884946616,B,2634,Incorrect
1,relearn,17,601,B,82.50612950134384,59.24960874455772,4.125306475067192,0.9306906777998604,B,1162,Correct
1,relearn,17,602,B,60.03735562112299,31.74182257534735,3.00186778105615,0.4985993830713094,A,1118,Incorrect
1,relearn,17,603,B,76.92290133949484,63.48011366215422,3.846145066974742,0.9971432936503436,B,856,Correct
1,relearn,17,604,A,18.789595654324486,40.12026097283632,0.9394797827162243,0.6302075856618393,A,588,Correct
1,relearn,17,605,B,51.014091330280216,43.37753079549828,2.550704566514011,0.6813726603900121,B,459,Correct
1,relearn,17,606,B,52.65953160204671,26.146458940401132,2.6329765801023357,0.41070761662275673,B,748,Correct
1,relearn,17,607,A,44.725672401380415,73.10680927299356,2.236283620069021,1.1483590746971335,A,2276,Correct
1,relearn,17,608,A,62.10145256810016,86.87186250153346,3.105072628405008,1.3645800251924007,A,638,Correct
1,relearn,17,609,A,15.877685172859763,38.045083169794154,0.7938842586429883,0.59761076895719,A,748,Correct
1,relearn,17,610,A,26.10021343009005,49.97825395822103,1.3050106715045025,0.7850565773719609,A,513,Correct
1,relearn,17,611,A,27.473105635327457,40.55549633242859,1.3736552817663727,0.6370442467032272,A,1160,Correct
1,relearn,17,612,B,33.49116521937337,19.237397490543824,1.6745582609686687,0.302180333152396,B,2249,Correct
1,relearn,17,613,B,51.57112941942687,24.780506266259827,2.5785564709713436,0.38925128219158855,B,1113,Correct
1,relearn,17,614,B,61.255808575332416,52.53214576791929,3.0627904287666206,0.8251730161090168,A,1793,Incorrect
1,relearn,17,615,A,52.8459309225737,65.38632604681699,2.642296546128685,1.0270860077695358,B,1024,Incorrect
1,relearn,17,616,A,49.452243734231786,71.71074808061242,2.472612186711589,1.1264297967674017,A,606,Correct
1,relearn,17,617,A,31.564876143058413,50.59621101265236,1.5782438071529208,0.7947634240841382,A,1007,Correct
1,relearn,17,618,A,19.762681433024184,41.830316871258105,0.9881340716512093,0.6570690809003884,A,542,Correct
1,relearn,17,619,A,12.730062195491701,36.76066965033448,0.636503109774585,0.5774352485726604,A,488,Correct
1,relearn,17,620,B,59.13331509965309,51.85250670900774,2.9566657549826543,0.8144972707361708,A,1953,Incorrect
1,relearn,17,621,A,15.941695762059403,35.904464672676575,0.7970847881029701,0.5639860122337749,A,630,Correct
1,relearn,17,622,B,78.9882101778682,57.74445737777374,3.94941050889341,0.9070478154177144,A,661,Incorrect
1,relearn,17,623,B,42.12797166372523,14.613328786153094,2.106398583186262,0.22954563179535406,B,620,Correct
1,relearn,17,624,A,39.71008456826912,55.64421083259555,1.9855042284134559,0.8740572198324188,B,2013,Incorrect
1,relearn,17,625,B,67.07405071403801,45.25255723596787,3.3537025357019004,0.7108255068433416,B,814,Correct
1,relearn,17,626,B,76.23281198361221,59.779938269658544,3.8116405991806106,0.9390210745000532,B,656,Correct
1,relearn,17,627,B,71.31785808822062,57.07636213519424,3.5658929044110312,0.8965533998877844,B,869,Correct
1,relearn,17,628,A,20.403919235683823,46.21558665217898,1.0201959617841911,0.7259527375391398,A,522,Correct
1,relearn,17,629,A,38.95596880841657,51.12573386555974,1.9477984404208286,0.8030811496071469,A,689,Correct
1,relearn,17,630,A,65.41171304425075,87.45340850306656,3.2705856522125374,1.373714928423105,A,1153,Correct
1,relearn,17,631,B,74.98503429216096,51.45282826488459,3.749251714608048,0.8082191364168934,B,567,Correct
1,relearn,17,632,B,59.87350149460686,40.606088985602874,2.9936750747303433,0.6378389542409171,B,478,Correct
1,relearn,17,633,A,41.14382932684478,70.07227854309482,2.057191466342239,1.100692777456422,A,795,Correct
1,relearn,17,634,A,64.67993313035835,77.72773788374165,3.2339966565179172,1.2209444515785792,A,708,Correct
1,relearn,17,635,A,61.63448730620476,73.16685212564668,3.081724365310238,1.1493022256211116,A,838,Correct
1,relearn,17,636,A,45.18103649135933,71.95366068373842,2.2590518245679663,1.1302454590146267,A,626,Correct
1,relearn,17,637,A,47.51815112359076,68.50943583044142,2.375907556179538,1.0761437015324804,A,507,Correct
1,relearn,17,638,A,69.07583038644272,87.7578016550876,3.453791519322136,1.378496324874067,A,592,Correct
1,relearn,17,639,B,31.701817830978804,16.171934422538484,1.5850908915489401,0.254028151880914,B,776,Correct
1,relearn,17,640,B,64.5123092769467,48.30441805370533,3.2256154638473347,0.7587640244672541,B,881,Correct
1,relearn,17,641,B,73.58835775930811,58.521202184465935,3.6794178879654056,0.9192488943098057,B,536,Correct
1,relearn,17,642,B,82.17639703670989,67.74015800070845,4.108819851835494,1.0640599136401876,B,1003,Correct
1,relearn,17,643,A,18.332015253194218,34.28702799359412,0.9166007626597108,0.5385793762905144,A,793,Correct
1,relearn,17,644,A,20.075086891894802,48.41018029007239,1.0037543445947401,0.7604253337912439,A,702,Correct
1,relearn,17,645,A,64.1183105823613,77.04293717434967,3.205915529118065,1.2101876271895846,B,1632,Incorrect
1,relearn,17,646,A,31.700063589820804,46.28181524716746,1.5850031794910402,0.7269930538765068,B,659,Incorrect
1,relearn,17,647,A,55.69494048533038,63.078830163446526,2.784747024266519,0.9908399471926091,A,524,Correct
1,relearn,17,648,A,20.322420026587967,39.54785000594708,1.0161210013293982,0.621216175219772,A,431,Correct
1,relearn,17,649,A,27.35708049674407,49.770904382561355,1.3678540248372035,0.781799537853874,A,491,Correct
1,relearn,17,650,A,43.61814310947182,55.26512463198593,2.1809071554735913,0.8681025477178566,A,556,Correct
1,relearn,17,651,A,43.09207718988922,72.84732910382782,2.1546038594944608,1.1442831697311169,A,905,Correct
1,relearn,17,652,B,51.264531761273574,37.08401010341897,2.563226588063679,0.5825142685327536,A,667,Incorrect
1,relearn,17,653,B,76.89799516641156,44.98943242705618,3.8448997583205777,0.7066923520100706,A,428,Incorrect
1,relearn,17,654,B,60.501393773841436,43.506072516066254,3.025069688692072,0.6833917890150928,B,499,Correct
1,relearn,17,655,A,63.73741067284621,87.64111658405906,3.18687053364231,1.3766634400644326,A,850,Correct
1,relearn,17,656,B,74.77833537628116,51.42341436482656,3.7389167688140583,0.8077571039552149,B,1000,Correct
1,relearn,17,657,A,21.350216342549597,34.65357409995704,1.0675108171274799,0.5443370690652729,A,603,Correct
1,relearn,17,658,B,41.09432577782501,26.894062739624452,2.054716288891251,0.4224509496399358,B,696,Correct
1,relearn,17,659,B,69.87073809830811,58.06242321532562,3.4935369049154055,0.9120424111144423,A,692,Incorrect
1,relearn,17,660,B,40.304104182822044,30.914787448985194,2.015205209141102,0.48560834568510913,B,703,Correct
1,relearn,17,661,B,41.08178410238567,29.456182287739935,2.054089205119283,0.46269662938982786,B,546,Correct
1,relearn,17,662,B,45.122507377597806,34.27298479703149,2.25612536887989,0.5383587862747439,B,548,Correct
1,relearn,17,663,B,76.36069546815445,45.03136572222379,3.8180347734077227,0.7073510386702674,B,734,Correct
1,relearn,17,664,B,37.81007597765581,25.738015519540816,1.8905037988827906,0.4042918023708475,A,3948,Incorrect
1,relearn,17,665,A,56.41436875162848,64.36405133479913,2.820718437581424,1.0110281541434063,A,1276,Correct
1,relearn,17,666,B,48.999404653241264,25.134287152076823,2.4499702326620634,0.39480845935090436,B,714,Correct
1,relearn,17,667,B,66.61938938017006,45.16951174304413,3.3309694690085028,0.7095210312909266,B,496,Correct
1,relearn,17,668,A,15.164689333135009,33.3431796276365,0.7582344666567505,0.5237534408275385,A,812,Correct
1,relearn,17,669,A,30.27904187205666,50.783536901491146,1.513952093602833,0.7977059322651537,A,866,Correct
1,relearn,17,670,A,15.658995903183222,30.743019452355004,0.7829497951591611,0.4829102203034329,B,679,Incorrect
1,relearn,17,671,A,29.988558466660738,46.94928605498095,1.4994279233330368,0.7374776608080694,A,405,Correct
1,relearn,17,672,A,44.9979045561651,72.69985916919178,2.2498952278082553,1.1419667174147272,A,1309,Correct
1,relearn,17,673,B,70.8928419300149,44.84563423458169,3.5446420965007452,0.7044335752846838,A,1283,Incorrect
1,relearn,17,674,A,15.711024778685836,45.640494981951036,0.7855512389342918,0.716919218707496,B,468,Incorrect
1,relearn,17,675,A,44.444366440445656,51.299501117196314,2.222218322022283,0.8058106792130265,A,544,Correct
1,relearn,17,676,A,45.52545132232221,54.838329212153916,2.276272566116111,0.8613984609402063,B,1621,Incorrect
1,relearn,17,677,B,80.79580126694361,50.608062177864966,4.039790063347181,0.7949495817519804,A,348,Incorrect
1,relearn,17,678,B,80.28466970862377,49.62973394996294,4.0142334854311885,0.7795820378840976,B,603,Correct
1,relearn,17,679,A,30.791738423697673,45.00618384127294,1.5395869211848836,0.7069554826092737,B,444,Incorrect
1,relearn,17,680,A,47.096896718370985,64.20773214457918,2.3548448359185494,1.008572698045356,A,931,Correct
1,relearn,17,681,B,73.37327238475861,56.23503340772416,3.6686636192379303,0.8833378391404141,B,597,Correct
1,relearn,17,682,B,82.30727549072095,62.41696379952289,4.115363774536047,0.9804433746598058,B,1147,Correct
1,relearn,17,683,B,45.636239258510834,20.116672080935857,2.281811962925542,0.3159919461207149,A,2020,Incorrect
1,relearn,17,684,B,62.13546439138592,53.71055852321599,3.1067732195692965,0.8436834803837,B,627,Correct
1,relearn,17,685,A,47.72197859779443,77.24456756325428,2.3860989298897213,1.2133548299322003,B,638,Incorrect
1,relearn,17,686,A,63.72772222241908,87.06525324476655,3.1863861111209544,1.3676177998834675,A,743,Correct
1,relearn,17,687,A,52.952350675257414,80.31712586962823,2.6476175337628707,1.261618462947354,A,498,Correct
1,relearn,17,688,A,15.551685012060492,34.306576077364994,0.7775842506030246,0.538886436872346,A,768,Correct
1,relearn,17,689,B,35.757318207711236,18.052440165027193,1.7878659103855619,0.2835670670090937,B,1030,Correct
1,relearn,17,690,B,44.28212177623128,16.195671187242347,2.214106088811564,0.2544010081089822,B,953,Correct
1,relearn,17,691,B,77.48096036239438,51.59367647612821,3.874048018119719,0.8104315749454645,B,1118,Correct
1,relearn,17,692,B,73.30813134163883,61.73056693087821,3.6654065670819413,0.9696614778599002,B,766,Correct
1,relearn,17,693,A,51.83914530156292,77.29586036291388,2.591957265078146,1.2141605353451637,B,2588,Incorrect
1,relearn,17,694,A,55.60822151239015,75.74855297940918,2.7804110756195075,1.1898554878008458,B,562,Incorrect
1,relearn,17,695,A,54.16379534912264,62.050737893443895,2.708189767456132,0.9746907115793457,B,784,Incorrect
1,relearn,17,696,B,57.52867340619928,44.78078414185168,2.876433670309964,0.7034149124101577,A,527,Incorrect
1,relearn,17,697,B,52.3637070821121,28.713391053962102,2.6181853541056053,0.4510288919738912,B,774,Correct
1,relearn,17,698,A,13.428134622793774,36.77157555644756,0.6714067311396887,0.5776065581452883,A,702,Correct
1,relearn,17,699,A,34.21622876450873,42.49825034308724,1.7108114382254365,0.667560955341314,A,530,Correct
1,relearn,17,700,A,15.187896744693816,31.523476461306267,0.7593948372346908,0.49516961033225265,A,1028,Correct
1,relearn,17,701,B,42.35150377237774,32.93213790376674,2.1175751886188867,0.5172968125273977,A,782,Incorrect
1,relearn,17,702,A,34.86081966554682,58.132738999753094,1.743040983277341,0.9131469288733859,B,693,Incorrect
1,relearn,17,703,B,48.724288758674994,18.425857944762107,2.43621443793375,0.2894326997767688,B,2469,Correct
1,relearn,17,704,A,15.67349388235306,44.73636371835205,0.783674694117653,0.7027171580294789,A,1416,Correct
1,relearn,17,705,A,12.229793612865425,34.152509990634684,0.6114896806432712,0.5364663724411497,A,589,Correct
1,relearn,17,706,A,43.94391709626845,72.60646003242017,2.1971958548134225,1.1404996072050608,A,1623,Correct
1,relearn,17,707,A,35.35207541784466,43.997839134161445,1.7676037708922332,0.6911164409885355,B,2249,Incorrect
1,relearn,17,708,A,66.34175576025922,81.29371578619225,3.317087788012961,1.2769587014845911,A,417,Correct
1,relearn,17,709,B,67.30075482835171,48.537369442775166,3.365037741417586,0.7624232163299809,B,711,Correct
1,relearn,17,710,A,45.65075273999837,56.06502801354503,2.2825376369999186,0.8806674006532951,A,2691,Correct
1,relearn,17,711,A,55.98378751952928,77.68608375970669,2.799189375976464,1.2202901501282795,A,722,Correct
1,relearn,17,712,A,66.72924563471369,82.1445323558459,3.336462281735685,1.2903232969084728,A,690,Correct
1,relearn,17,713,B,36.16201889835307,24.456726837948455,1.8081009449176535,0.38416536682475594,B,704,Correct
1,relearn,17,714,B,65.9125245348009,50.63382335556393,3.295626226740045,0.7953542373850147,A,1540,Incorrect
1,relearn,17,715,B,76.61290628353348,62.080651230037454,3.8306453141766736,0.9751605891717792,B,429,Correct
1,relearn,17,716,A,32.50608693984069,48.43754896239804,1.6253043469920345,0.7608552398908279,B,685,Incorrect
1,relearn,17,717,B,60.19683763855028,46.62540087670158,3.009841881927514,0.732390084324624,A,380,Incorrect
1,relearn,17,718,A,61.56005282928477,84.14361166809499,3.0780026414642383,1.321724761314998,B,422,Incorrect
1,relearn,17,719,B,48.77323248324874,27.951749014945126,2.438661624162437,0.43906504680168673,A,499,Incorrect
1,relearn,17,720,B,54.41625078951949,32.27669360060505,2.720812539475974,0.5070011174891476,B,423,Correct
1,relearn,17,721,B,47.42718965579742,22.8357236618371,2.3713594827898707,0.35870270847717023,B,1413,Correct
1,relearn,17,722,A,38.91191119644891,57.46946465181801,1.9455955598224455,0.9027282397794487,A,999,Correct
1,relearn,17,723,A,34.106336931592615,46.821019601591374,1.7053168465796307,0.7354628560697158,A,863,Correct
1,relearn,17,724,A,28.391730520765783,52.12088623626895,1.4195865260382892,0.8187129664922594,A,681,Correct
1,relearn,17,725,B,62.37871945748991,49.08889204448012,3.1189359728744956,0.7710865130990058,A,664,Incorrect
1,relearn,17,726,B,37.24402441767204,14.034337920349717,1.862201220883602,0.22045086454283663,B,1257,Correct
1,relearn,17,727,B,37.3352676432643,20.18413874413698,1.866763382163215,0.3170517099880893,B,769,Correct
1,relearn,17,728,B,77.66227111675319,65.81709919820044,3.8831135558376593,1.0338525766082858,B,989,Correct
1,relearn,17,729,B,60.835510419155234,31.5326160589593,3.0417755209577617,0.49531317479647036,B,1939,Correct
1,relearn,17,730,A,43.841034674774626,74.28644103833675,2.1920517337387313,1.1668886871368502,A,879,Correct
1,relearn,17,731,A,50.58676251295092,62.8975067231057,2.529338125647546,0.9879917252521175,A,637,Correct
1,relearn,17,732,B,41.184595107254424,22.637786340393717,2.0592297553627215,0.35559351630258135,B,903,Correct
1,relearn,17,733,B,43.510130959650404,17.603626847310984,2.17550654798252,0.2765171239002412,A,742,Incorrect
1,relearn,17,734,B,32.29403650002365,13.600356249233755,1.6147018250011826,0.213633896393984,B,340,Correct
1,relearn,17,735,B,75.63151770007352,53.4686768754287,3.781575885003676,0.8398840123450664,B,852,Correct
1,relearn,17,736,A,34.08236933793086,61.40338314258743,1.7041184668965428,0.96452208693156,A,866,Correct
1,relearn,17,737,A,51.79188015861881,66.23096532212632,2.5895940079309407,1.040353570480762,A,567,Correct
1,relearn,17,738,B,70.12016573864929,54.56255609859469,3.5060082869324645,0.8570666270021303,A,509,Incorrect
1,relearn,17,739,A,46.67304729699621,68.39822187690301,2.33365236484981,1.0743967568354158,B,362,Incorrect
1,relearn,17,740,A,42.457778772536294,74.27040027397496,2.1228889386268146,1.1666367193994656,A,416,Correct
1,relearn,17,741,B,84.89643995828938,67.34167141069881,4.244821997914468,1.0578005009215459,A,605,Incorrect
1,relearn,17,742,A,39.75015404184153,62.84941161560242,1.9875077020920768,0.9872362490700878,B,279,Incorrect
1,relearn,17,743,B,64.82986916995036,40.02095114056218,3.241493458497518,0.628647630464331,A,403,Incorrect
1,relearn,17,744,A,50.43887923899368,72.19362399396942,2.5219439619496837,1.1340147938773908,B,324,Incorrect
1,relearn,17,745,B,80.65767528313559,50.50923536886121,4.03288376415678,0.7933972138662606,A,353,Incorrect
1,relearn,17,746,B,66.28002052735455,47.40701759788871,3.3140010263677278,0.7446676910706459,B,479,Correct
1,relearn,17,747,A,50.720040323234194,59.56897264111796,2.5360020161617096,0.9357072341561379,A,801,Correct
1,relearn,17,748,A,16.02439458895002,42.76327561479836,0.801219729447501,0.6717239625744303,A,711,Correct
1,relearn,17,749,B,67.81351898038366,36.82506672750023,3.390675949019183,0.5784467954953433,A,709,Incorrect
1,relearn,17,750,B,47.254531458278386,34.77851283456273,2.3627265729139193,0.546299602119203,B,634,Correct
1,relearn,17,751,A,38.49816470321515,66.67747529210715,1.9249082351607576,1.047367332687994,A,552,Correct
1,relearn,17,752,A,24.71873684990739,47.43165761397781,1.2359368424953694,0.7450547355382954,A,572,Correct
1,relearn,17,753,B,83.63967472874113,55.83403167207257,4.181983736437056,0.877038918606415,B,658,Correct
1,relearn,17,754,B,33.659220700810614,21.16692070247337,1.6829610350405306,0.33248921289004024,B,565,Correct
1,relearn,17,755,A,25.30009238299811,50.216790133126594,1.2650046191499056,0.7888034948454546,B,380,Incorrect
1,relearn,17,756,A,17.78588822383453,37.04177508424662,0.8892944111917265,0.5818508424029731,A,1569,Correct
1,relearn,17,757,A,24.508267203904687,50.578908785255585,1.2254133601952344,0.794491641331736,A,1570,Correct
1,relearn,17,758,A,36.37873578901438,54.02724116077122,1.818936789450719,0.8486579196220146,B,2859,Incorrect
1,relearn,17,759,B,39.288703410885475,23.26798242596356,1.964435170544274,0.3654926132663177,A,703,Incorrect
1,relearn,17,760,A,16.11796925349378,37.30243244298964,0.805898462674689,0.585945238619629,A,592,Correct
1,relearn,17,761,A,50.765965038817,69.03731733072448,2.53829825194085,1.0844356447487566,B,530,Incorrect
1,relearn,17,762,A,54.560234353492206,73.99138542854126,2.7280117176746104,1.1622539644561805,A,697,Correct
1,relearn,17,763,A,38.528289253457395,52.38979858361602,1.9264144626728696,0.8229370317666853,A,845,Correct
1,relearn,17,764,A,33.865734921362396,47.34406603890295,1.6932867460681198,0.7436788502944377,A,789,Correct
1,relearn,17,765,B,64.74520094477494,45.88371820374521,3.2372600472387467,0.720739760141351,A,450,Incorrect
1,relearn,17,766,B,55.4685167924017,30.546575905255654,2.773425839620085,0.4798244922813707,B,723,Correct
1,relearn,17,767,A,39.24685986352564,71.93700495674385,1.962342993176282,1.1299838314667952,A,579,Correct
1,relearn,17,768,A,35.628465714850286,49.14850146273851,1.7814232857425143,0.7720228556514326,A,814,Correct
1,relearn,17,769,B,70.0314181813422,45.665252228829765,3.50157090906711,0.7173081046320825,B,969,Correct
1,relearn,17,770,A,56.41743133898295,69.63185820852753,2.8208715669491475,1.0937746710185812,B,699,Incorrect
1,relearn,17,771,A,57.958033367045175,84.26887807949201,2.897901668352259,1.3236924415039304,A,401,Correct
1,relearn,17,772,B,58.741902842346114,30.176213226863823,2.9370951421173057,0.4740068489333727,B,675,Correct
1,relearn,17,773,A,11.312009232811278,37.08052897613143,0.5656004616405639,0.5824595871131899,B,809,Incorrect
1,relearn,17,774,A,60.869041809869614,81.93089220301418,3.0434520904934805,1.286967445235233,A,652,Correct
1,relearn,17,775,B,54.843654027471224,43.48149797411999,2.742182701373561,0.6830057730128741,A,703,Incorrect
1,relearn,17,776,A,40.9558336387302,51.595985189345136,2.04779168193651,0.8104678401278722,B,2700,Incorrect
1,relearn,17,777,B,40.71279678293206,25.939016234437048,2.035639839146603,0.40744911421726904,A,574,Incorrect
1,relearn,17,778,B,84.49646676640418,63.521483367529065,4.224823338320209,0.9977931274627777,B,938,Correct
1,relearn,17,779,B,30.356046584529782,13.525772294071505,1.517802329226489,0.21246233436591702,A,808,Incorrect
1,relearn,17,780,B,71.37600166399453,45.58171431537901,3.5688000831997266,0.715995894156117,B,439,Correct
1,relearn,17,781,B,36.522730872897114,12.832522899377398,1.8261365436448558,0.20157279833853414,A,541,Incorrect
1,relearn,17,782,B,53.97068514111852,28.61758818846663,2.698534257055926,0.44952402408172404,B,608,Correct
1,relearn,17,783,A,27.837148372014095,56.96534099693797,1.3918574186007047,0.8948094839260888,A,706,Correct
1,relearn,17,784,B,75.86275043079493,55.883044399032364,3.7931375215397463,0.8778088087211616,B,654,Correct
1,relearn,17,785,A,48.67091415729158,73.44503719997434,2.433545707864579,1.1536719465503422,A,695,Correct
1,relearn,17,786,B,67.28206386953174,58.84034566824437,3.364103193476587,0.9242619884302027,B,478,Correct
1,relearn,17,787,B,59.220212201562816,26.711148838930797,2.9610106100781413,0.41957774480664256,B,681,Correct
1,relearn,17,788,A,54.21342152408215,66.99376058406557,2.7106710762041075,1.0523355304362692,A,675,Correct
1,relearn,17,789,A,51.70464239742563,66.4748538957645,2.5852321198712813,1.0441845632369429,B,583,Incorrect
1,relearn,17,790,A,56.29545715323339,69.6441152788393,2.8147728576616697,1.0939672046288111,A,417,Correct
1,relearn,17,791,B,37.64432809894433,27.783341416827056,1.8822164049472163,0.43641970643640465,B,1210,Correct
1,relearn,17,792,B,42.394055835884146,18.271451736838053,2.1197027917942073,0.2870072927343545,A,1890,Incorrect
1,relearn,17,793,A,56.956844748264864,74.01481752103274,2.847842237413243,1.1626220349043277,B,423,Incorrect
1,relearn,17,794,B,47.399148103036886,27.20351016588453,2.3699574051518444,0.4273117384449905,B,974,Correct
1,relearn,17,795,B,84.56083100097743,62.13336284457995,4.2280415500488715,0.975988581276807,B,690,Correct
1,relearn,17,796,B,45.63796273194325,24.1055252439933,2.2818981365971625,0.3786487050872633,A,542,Incorrect
1,relearn,17,797,A,28.853732167796387,39.194896683967016,1.4426866083898193,0.6156719974028086,B,405,Incorrect
1,relearn,17,798,A,54.816284510567655,84.34055030819151,2.7408142255283825,1.3248182662396741,B,833,Incorrect
1,relearn,17,799,A,25.273017986367023,42.80612888990166,1.263650899318351,0.6723971002456643,A,420,Correct
1,relearn,17,800,B,60.087006470977244,52.118522941335435,3.0043503235488624,0.8186758439422526,A,572,Incorrect
1,relearn,17,801,A,25.04268636696073,37.35900513751537,1.2521343183480367,0.5868338804272081,B,510,Incorrect
1,relearn,17,802,B,32.50331698288885,15.536694390437855,1.6251658491444425,0.24404982479034656,A,611,Incorrect
1,relearn,17,803,B,43.925586917793964,26.691030228625735,2.1962793458896983,0.41926172241496856,B,472,Correct
1,relearn,17,804,B,75.4211668308784,60.96379850722588,3.7710583415439203,0.9576171076261462,B,698,Correct
1,relearn,17,805,A,45.287633064765025,74.01270595859121,2.2643816532382512,1.1625888665590582,A,819,Correct
1,relearn,17,806,B,84.6564711510209,55.230923785862295,4.232823557551045,0.8675653220832137,A,689,Incorrect
1,relearn,17,807,B,58.60705383666129,38.09644284683908,2.9303526918330642,0.5984175248776654,B,419,Correct
1,relearn,17,808,B,54.59244237239087,33.28177050794696,2.7296221186195435,0.5227888286311381,A,812,Incorrect
1,relearn,17,809,B,89.05905132868038,68.57447301398444,4.452952566434019,1.0771653032226252,B,801,Correct
1,relearn,17,810,A,38.01348922015082,68.46533780627512,1.9006744610075408,1.0754510113886873,A,740,Correct
1,relearn,17,811,A,35.89429982061783,66.73405356808337,1.7947149910308917,1.048256062168792,A,497,Correct
1,relearn,17,812,A,34.31666965623058,59.50607315021264,1.715833482811529,0.9347192112634244,A,474,Correct
1,relearn,17,813,A,19.5628032985591,39.467837574144994,0.9781401649279551,0.6199593428800456,A,729,Correct
1,relearn,17,814,B,61.66011092258032,38.755667247519085,3.0830055461290162,0.6087725975488826,A,554,Incorrect
1,relearn,17,815,B,60.58778380744874,39.35192887219611,3.029389190372437,0.6181386532473968,B,508,Correct
1,relearn,17,816,B,41.6212405113435,18.957359463154805,2.0810620255671752,0.29778150610454046,A,1462,Incorrect
1,relearn,17,817,B,73.5834294821112,52.15815570516103,3.6791714741055603,0.8192983939406323,B,488,Correct
1,relearn,17,818,A,59.20118625801558,69.0683990809443,2.9600593129007793,1.0849238757395132,A,1872,Correct
1,relearn,17,819,B,64.72890776794377,44.18340385562553,3.2364453883971884,0.6940312848171205,B,487,Correct
1,relearn,17,820,B,84.16907196935564,57.17935458552789,4.2084535984677816,0.8981712015145011,B,477,Correct
1,relearn,17,821,B,79.90165286208511,55.171125065608564,3.995082643104256,0.8666260059819978,B,409,Correct
1,relearn,17,822,B,76.77728355360458,49.860499810897934,3.8388641776802284,0.7832068995511612,B,474,Correct
1,relearn,17,823,A,34.159917945775895,57.54247227043456,1.7079958972887948,0.9038750407709579,A,1071,Correct
1,relearn,17,824,A,51.464642671462016,81.67000520665698,2.5732321335731005,1.2828694418793687,A,891,Correct
1,relearn,17,825,B,39.91038288812962,22.098338425363682,1.9955191444064808,0.34711988826831786,B,745,Correct
1,relearn,17,826,B,64.02871358261324,44.15915567742674,3.201435679130662,0.6936503953246593,B,758,Correct
1,relearn,17,827,B,54.21187146025174,28.904190919011604,2.7105935730125874,0.45402596924561833,B,522,Correct
1,relearn,17,828,A,23.60884967391774,45.85774625984851,1.1804424836958871,0.7203317938006244,A,1087,Correct
1,relearn,17,829,B,68.04932562909113,36.807659809147864,3.4024662814545565,0.5781733682612561,B,568,Correct
1,relearn,17,830,A,53.53626352125783,82.63859480132183,2.6768131760628915,1.2980840116540817,A,675,Correct
1,relearn,17,831,A,29.617520362105907,53.52100079849055,1.4808760181052951,0.8407059146065566,A,669,Correct
1,relearn,17,832,A,34.35331220161045,56.624256954730264,1.7176656100805223,0.8894517483198066,A,577,Correct
1,relearn,17,833,A,23.105403335948814,38.23774026470115,1.1552701667974405,0.6006370195272989,B,564,Incorrect
1,relearn,17,834,B,33.88685067368153,15.19439103126063,1.6943425336840763,0.23867293619789517,A,1253,Incorrect
1,relearn,17,835,B,68.68211675311957,48.867808288345074,3.4341058376559785,0.7676137375784966,B,515,Correct
1,relearn,17,836,B,61.51496814466335,41.79395020397768,3.0757484072331676,0.6564978346265695,A,606,Incorrect
1,relearn,17,837,B,52.381830409514265,44.59448097130589,2.619091520475713,0.7004884690505221,B,372,Correct
1,relearn,17,838,A,41.47666302583047,59.418443408230935,2.0738331512915233,0.9333427264951959,B,472,Incorrect
1,relearn,17,839,B,53.90512697028212,32.75490546496463,2.6952563485141057,0.5145128518888052,B,1316,Correct
1,relearn,17,840,A,59.762976817316954,78.70714678304017,2.9881488408658474,1.2363289705930627,A,651,Correct
1,relearn,17,841,B,43.58751895434746,26.26317155433469,2.179375947717373,0.4125409340753315,B,697,Correct
1,relearn,17,842,B,53.11158378981194,42.95037590193727,2.655579189490597,0.674662927012231,A,689,Incorrect
1,relearn,17,843,A,57.0128074385627,68.9200202935061,2.8506403719281352,1.082593147196691,B,784,Incorrect
1,relearn,17,844,A,56.089611824163825,66.01953126239961,2.8044805912081916,1.0370323720369814,A,443,Correct
1,relearn,17,845,A,60.01537491191107,83.29095494517712,3.000768745595553,1.3083312608312343,A,840,Correct
1,relearn,17,846,A,56.174483752423484,70.8354914386752,2.8087241876211744,1.1126812975858236,A,1320,Correct
1,relearn,17,847,B,88.24117093110452,64.35726147516866,4.412058546555226,1.0109214992777362,A,611,Incorrect
1,relearn,17,848,A,56.27497487642296,79.28917872618558,2.813748743821148,1.245471506976764,B,364,Incorrect
1,relearn,17,849,B,33.86003118198596,14.453685801012892,1.693001559099298,0.227037965648786,B,872,Correct
1,relearn,17,850,B,61.02308149891775,37.31003405008592,3.051154074945887,0.5860646443846748,B,3196,Correct
1,relearn,17,851,B,57.120169001682484,41.1794202788413,2.8560084500841243,0.6468448211354719,B,2408,Correct
1,relearn,17,852,A,38.74747701166372,48.945076526387766,1.937373850583186,0.76882746422345,A,4115,Correct
1,relearn,17,853,B,48.75324761050928,24.635881234286643,2.437662380525464,0.3869795175017278,A,698,Incorrect
1,relearn,17,854,A,20.600404121194465,46.94524468016374,1.0300202060597232,0.7374141790408887,A,635,Correct
1,relearn,17,855,B,34.70253967724736,17.63209153474092,1.735126983862368,0.27696424616482423,A,514,Incorrect
1,relearn,17,856,A,23.911819103107433,40.62303817246019,1.1955909551553716,0.6381051914454934,A,2857,Correct
1,relearn,17,857,A,41.665797924008864,70.45600974227767,2.0832898962004434,1.106720413037952,A,1973,Correct
1,relearn,17,858,A,55.78482545787136,66.33551064652849,2.789241272893568,1.0419957645963072,A,358,Correct
1,relearn,17,859,A,40.8618741479448,55.1977101374452,2.04309370739724,0.8670436033138835,A,569,Correct
1,relearn,17,860,A,31.213459336795896,51.32641899445032,1.560672966839795,0.8062335042401837,A,645,Correct
1,relearn,17,861,B,63.735440293395996,43.03078136649412,3.1867720146697995,0.6759259330960324,A,609,Incorrect
1,relearn,17,862,B,87.11210209662501,67.10111769354128,4.35560510483125,1.0540218919684667,B,357,Correct
1,relearn,17,863,B,67.38172264490669,56.00012793229593,3.3690861322453345,0.8796479525609473,B,476,Correct
1,relearn,17,864,B,70.01103174975637,48.315741880084104,3.5005515874878186,0.7589418987160648,B,466,Correct
1,relearn,17,865,A,31.1518589580622,61.708889015249646,1.55759294790311,0.969320961957481,B,411,Incorrect
1,relearn,17,866,B,49.81270159248009,40.4438182958471,2.4906350796240044,0.6352900122067686,A,437,Incorrect
1,relearn,17,867,B,56.95480060266145,39.40474926358982,2.847740030133073,0.618968354015208,B,478,Correct
1,relearn,17,868,A,62.17967052004123,74.8945439154559,3.1089835260020613,1.176440744793772,B,548,Incorrect
1,relearn,17,869,B,61.828571488587805,41.13393836221152,3.0914285744293903,0.6461303928596952,A,506,Incorrect
1,relearn,17,870,A,28.80278702457258,40.583610190941016,1.4401393512286291,0.6374858581600608,B,570,Incorrect
1,relearn,17,871,B,65.68624316256486,57.774630602886106,3.2843121581282433,0.9075217753294552,A,1160,Incorrect
1,relearn,17,872,B,63.80881576253415,32.75307484864264,3.1904407881267076,0.5144840966348617,B,433,Correct
1,relearn,17,873,A,44.70757989342541,54.74119485527438,2.2353789946712705,0.859872678030287,A,689,Correct
1,relearn,17,874,B,84.54530040559732,66.09917832886354,4.227265020279866,1.0382834652313968,B,462,Correct
1,relearn,17,875,A,21.03924705006384,39.68176322803619,1.0519623525031918,0.6233196791934403,A,589,Correct
1,relearn,17,876,B,58.65603445378703,40.6712761385575,2.9328017226893515,0.6388629116450705,B,627,Correct
1,relearn,17,877,A,54.316476752122824,74.96796549248826,2.715823837606141,1.1775940482288711,A,636,Correct
1,relearn,17,878,B,47.113738286534904,31.947458264973445,2.355686914326745,0.5018295009305355,B,614,Correct
1,relearn,17,879,A,22.860007125790215,43.12662616495341,1.1430003562895108,0.6774314596696549,A,515,Correct
1,relearn,17,880,A,37.30703150047452,48.348295929412956,1.8653515750237262,0.7594532565271451,B,451,Incorrect
1,relearn,17,881,B,35.383430829481334,23.743953226637878,1.7691715414740667,0.3729691451199261,A,335,Incorrect
1,relearn,17,882,B,52.768869881958054,28.775506383758582,2.6384434940979027,0.45200459729271075,B,415,Correct
1,relearn,17,883,A,28.378096013750884,55.19488495566158,1.4189048006875442,0.8669992254622009,A,813,Correct
1,relearn,17,884,A,47.23065782448643,67.56048522044509,2.3615328912243214,1.0612376202075604,A,562,Correct
1,relearn,17,885,B,33.49353979050447,18.7810236493826,1.6746769895252236,0.2950116296189827,B,648,Correct
1,relearn,17,886,B,49.14618775518606,29.715816118239676,2.4573093877593033,0.4667749480624346,A,625,Incorrect
1,relearn,17,887,B,49.22079015021726,28.082654653212114,2.461039507510863,0.441121307759152,B,481,Correct
1,relearn,17,888,A,19.348026226291857,36.62151383756903,0.967401311314593,0.5752493941772191,A,895,Correct
1,relearn,17,889,B,43.870670612391294,14.818784909887444,2.1935335306195647,0.2327729290401484,A,1441,Incorrect
1,relearn,17,890,B,39.74154313928505,20.66376362037822,1.9870771569642525,0.3245856399264812,B,323,Correct
1,relearn,17,891,B,65.16343545953721,55.55745448933995,3.2581717729768602,0.8726944543792984,B,600,Correct
1,relearn,17,892,A,29.93287582802389,51.9211492675872,1.4966437914011945,0.8155755055249551,B,512,Incorrect
1,relearn,17,893,B,50.44804674346657,21.30668381885147,2.5224023371733284,0.3346846067883215,A,633,Incorrect
1,relearn,17,894,B,87.60137205644276,61.16289489156286,4.380068602822138,0.9607445063180928,B,446,Correct
1,relearn,17,895,A,10.841969796546138,36.421832124702306,0.5420984898273069,0.5721128011662274,A,571,Correct
1,relearn,17,896,A,52.318568619867776,82.1808737932187,2.615928430993389,1.2908941468718291,A,640,Correct
1,relearn,17,897,B,53.21388225000593,44.42572289183335,2.6606941125002965,0.6978376233369977,B,491,Correct
1,relearn,17,898,B,52.15330313783853,36.267472667670006,2.6076651568919265,0.5696881284851035,A,481,Incorrect
