experiment,condition,subject,trial,cat,x,y,xt,yt,resp,rt,fb
2,relearn,45,0,B,55.6126175985718,30.95237104325068,2.78063087992859,0.4861987074033089,A,2027,Incorrect
2,relearn,45,1,A,53.44671371474951,78.60242654109244,2.6723356857374756,1.234684028879137,B,890,Incorrect
2,relearn,45,2,A,35.337173181945346,58.50124268965233,1.7668586590972672,0.9189353712984268,A,579,Correct
2,relearn,45,3,B,67.48788732671281,36.48368439379585,3.37439436633564,0.5730843743371882,A,1102,Incorrect
2,relearn,45,4,A,49.20797430392201,78.47971027617686,2.4603987151961006,1.232756406297463,B,948,Incorrect
2,relearn,45,5,B,32.07700655165458,15.485060133058173,1.6038503275827287,0.2432387557720587,A,1678,Incorrect
2,relearn,45,6,B,58.87707216988022,36.38535680771653,2.943853608494011,0.5715398482268281,A,1909,Incorrect
2,relearn,45,7,B,63.03650735670691,53.86790808620764,3.1518253678353454,0.8461551215394008,A,1197,Incorrect
2,relearn,45,8,B,42.41220309902742,27.7522708556432,2.120610154951371,0.43593165120261396,A,829,Incorrect
2,relearn,45,9,A,12.820627167582018,36.67531128806758,0.6410313583791009,0.5760944425535597,B,683,Incorrect
2,relearn,45,10,B,71.12896654709229,42.41129030438054,3.5564483273546146,0.6661949902475297,A,595,Incorrect
2,relearn,45,11,B,51.573145186292024,36.286936298987165,2.5786572593146015,0.5699938624908945,B,877,Correct
2,relearn,45,12,B,46.64413676042717,27.42511323983813,2.3322068380213583,0.4307926713907182,B,590,Correct
2,relearn,45,13,B,65.65853907622056,46.69213171924011,3.282926953811028,0.7334382899480585,B,736,Correct
2,relearn,45,14,A,43.44838014521449,75.98687956436275,2.1724190072607246,1.1935991130430719,B,923,Incorrect
2,relearn,45,15,B,71.38937395979819,41.3288673726264,3.56946869798991,0.64919233059515,B,619,Correct
2,relearn,45,16,B,65.56131814915076,48.80575738687159,3.2780659074575387,0.7666390442974078,B,556,Correct
2,relearn,45,17,A,43.553675474579606,51.85471368585105,2.1776837737289805,0.8145319378473588,A,721,Correct
2,relearn,45,18,A,45.297995099690354,65.69607436683307,2.264899754984518,1.0319515230026575,B,645,Incorrect
2,relearn,45,19,B,50.591269330831615,39.39881278737562,2.5295634665415805,0.6188751040648942,A,1366,Incorrect
2,relearn,45,20,B,78.17640974287296,61.94041903825587,3.9088204871436485,0.9729578270542899,A,801,Incorrect
2,relearn,45,21,A,63.06573120232608,72.60327791255749,3.153286560116304,1.1404496225831435,B,483,Incorrect
2,relearn,45,22,A,22.844141961482286,47.38730196909776,1.1422070980741141,0.7443579986977933,A,1012,Correct
2,relearn,45,23,A,39.06938645848551,55.37864438424917,1.9534693229242754,0.8698857118165942,B,728,Incorrect
2,relearn,45,24,A,62.961198947714195,76.37277843802485,3.14805994738571,1.1996607983756993,A,758,Correct
2,relearn,45,25,B,82.58471841484806,54.8329337022914,4.129235920742403,0.8613137084694743,A,705,Incorrect
2,relearn,45,26,A,45.91096105903983,62.569025827115816,2.2955480529519914,0.9828319594036854,B,1172,Incorrect
2,relearn,45,27,B,66.90933206003957,35.37868136952003,3.3454666030019786,0.5557270274208912,A,292,Incorrect
2,relearn,45,28,B,63.202202678691194,35.32849541619561,3.16011013393456,0.5549387083095041,B,657,Correct
2,relearn,45,29,B,39.55592774103882,16.65153772828038,1.9777963870519413,0.2615617429906946,A,718,Incorrect
2,relearn,45,30,B,72.94903197029096,57.158329161009554,3.647451598514548,0.8978409349184743,B,346,Correct
2,relearn,45,31,A,41.72973192891427,52.32146458664683,2.0864865964457135,0.821863643852341,A,651,Correct
2,relearn,45,32,A,50.48364859948379,62.25678294659657,2.5241824299741897,0.9779272597058105,B,655,Incorrect
2,relearn,45,33,A,49.65455935862242,64.53943290199054,2.4827279679311207,1.013783041358724,A,1154,Correct
2,relearn,45,34,A,38.16905355383332,51.01287675620061,1.9084526776916662,0.8013083942788068,A,758,Correct
2,relearn,45,35,A,62.60892615623062,86.52364473529254,3.130446307811531,1.3591102333110412,A,633,Correct
2,relearn,45,36,B,68.67877039123017,42.85567797874266,3.4339385195615084,0.6731754155131392,A,507,Incorrect
2,relearn,45,37,B,57.96718297537563,45.92853515040996,2.8983591487687814,0.7214437430933427,B,745,Correct
2,relearn,45,38,B,63.371362463446104,42.75642037301841,3.168568123172305,0.671616280688358,B,662,Correct
2,relearn,45,39,A,53.45743130465185,63.48670785409068,2.672871565232592,0.9972468749750636,B,1168,Incorrect
2,relearn,45,40,B,38.25147989199009,27.36077514365392,1.9125739945995042,0.4297820509391269,A,674,Incorrect
2,relearn,45,41,B,60.347038083263996,39.58750677605733,3.0173519041632,0.6218391023079893,A,835,Incorrect
2,relearn,45,42,B,69.5735673698265,48.819768056273425,3.478678368491325,0.7668591233777311,B,610,Correct
2,relearn,45,43,B,69.41122083583852,50.07374495389609,3.4705610417919264,0.7865565464244446,B,797,Correct
2,relearn,45,44,B,47.48344152104014,31.6258065192584,2.374172076052007,0.49677700712377193,A,610,Incorrect
2,relearn,45,45,B,54.08909957866958,32.99887579792226,2.7044549789334793,0.5183451289173729,B,518,Correct
2,relearn,45,46,A,37.05617925587122,66.76743044361187,1.852808962793561,1.0487803449035928,A,575,Correct
2,relearn,45,47,A,56.709452967716025,74.81666802510986,2.8354726483858013,1.1752174731687577,A,526,Correct
2,relearn,45,48,A,20.278183038826864,34.979784671817995,1.0139091519413432,0.5494611727456814,A,1244,Correct
2,relearn,45,49,B,65.75199273442898,35.203828406201666,3.287599636721449,0.5529804434957941,A,711,Incorrect
2,relearn,45,50,B,63.70293851074113,55.583368594842206,3.1851469255370564,0.8731015121966497,A,654,Incorrect
2,relearn,45,51,B,46.46998358104288,27.94536010687846,2.3234991790521438,0.43896469006845323,B,577,Correct
2,relearn,45,52,B,51.60551554706289,19.95226121870465,2.580275777353145,0.31340938633593524,B,542,Correct
2,relearn,45,53,B,70.96802165242616,57.307358956342654,3.548401082621308,0.9001818894693966,B,830,Correct
2,relearn,45,54,A,18.040535921742013,37.011068073165596,0.9020267960871007,0.581368497800844,A,585,Correct
2,relearn,45,55,B,51.480159138762154,28.748650695515913,2.574007956938108,0.4515827491282594,B,680,Correct
2,relearn,45,56,A,60.386704873338765,82.11404946878122,3.019335243666938,1.2898444728381597,B,603,Incorrect
2,relearn,45,57,B,66.06348823538835,34.419112532143316,3.3031744117694175,0.5406541553703091,A,800,Incorrect
2,relearn,45,58,A,35.07375553952352,54.7289622287563,1.7536877769761758,0.8596805283822704,B,1131,Incorrect
2,relearn,45,59,B,61.125306094268275,45.223654069640745,3.056265304713414,0.7103714969683476,A,381,Incorrect
2,relearn,45,60,A,32.142851560726726,42.20461493360146,1.6071425780363364,0.6629485411149422,B,327,Incorrect
2,relearn,45,61,A,32.25992562977575,42.959330964265334,1.6129962814887875,0.6748035928023425,B,909,Incorrect
2,relearn,45,62,A,65.30825735913035,80.28247730911642,3.2654128679565178,1.2610742046315468,A,860,Correct
2,relearn,45,63,B,83.28498086989553,53.67452083023559,4.1642490434947765,0.8431174016261024,A,430,Incorrect
2,relearn,45,64,A,35.41758468408706,64.9499112216379,1.770879234204353,1.0202308197260344,A,823,Correct
2,relearn,45,65,A,30.863106316601872,59.71549827641972,1.5431553158300937,0.9380088534532707,A,1002,Correct
2,relearn,45,66,B,79.5472147867948,66.12904629559449,3.97736073933974,1.0387526301556949,A,806,Incorrect
2,relearn,45,67,B,57.52514611001992,32.56823605793137,2.876257305500996,0.511580655699877,B,518,Correct
2,relearn,45,68,B,74.36212378305629,61.07357040561223,3.7181061891528144,0.9593414005738519,B,692,Correct
2,relearn,45,69,B,75.3742783658053,43.60403236128423,3.768713918290265,0.6849305386655107,B,605,Correct
2,relearn,45,70,B,69.08204179436754,42.260437477198415,3.4541020897183774,0.6638253995792865,B,1740,Correct
2,relearn,45,71,A,49.898192926324135,64.15624789786291,2.4949096463162066,1.0077639853890588,B,7,Incorrect
2,relearn,45,72,A,69.16470687735499,84.11306854299201,3.4582353438677496,1.3212449910277921,A,344,Correct
2,relearn,45,73,B,59.076833099993124,48.156231863344594,2.953841654999656,0.7564363212322505,B,700,Correct
2,relearn,45,74,B,59.73135126388636,49.322249641592094,2.986567563194318,0.7747520856627377,B,622,Correct
2,relearn,45,75,B,42.00180556208826,24.73126517099145,2.100090278104413,0.3884778048758393,A,875,Incorrect
2,relearn,45,76,A,18.660758846774293,44.260961582341395,0.9330379423387146,0.695249558739519,A,975,Correct
2,relearn,45,77,B,44.770356589563804,34.907570708019406,2.23851782947819,0.5483268384549002,A,538,Incorrect
2,relearn,45,78,B,77.60078749121315,63.20463484681059,3.880039374560658,0.992816082537828,B,727,Correct
2,relearn,45,79,A,54.85932135671811,71.41069582213638,2.742966067835906,1.1217165869127947,B,777,Incorrect
2,relearn,45,80,B,50.603271788894716,41.369887638670136,2.5301635894447356,0.6498366754274064,A,654,Incorrect
2,relearn,45,81,B,82.01013767781417,61.959207042963655,4.100506883890708,0.973252948342118,B,643,Correct
2,relearn,45,82,A,50.9190100547675,79.2568582129322,2.545950502738375,1.2449638175417783,A,1016,Correct
2,relearn,45,83,A,44.553117524160946,52.382712844489866,2.2276558762080474,0.8228257292367652,A,718,Correct
2,relearn,45,84,A,29.41128003266426,54.33417495772781,1.4705640016332129,0.8534792244303009,A,634,Correct
2,relearn,45,85,A,20.318941817450693,50.78026635042153,1.0159470908725345,0.7976545585690862,B,1027,Incorrect
2,relearn,45,86,A,54.6812775971476,67.70933495422447,2.7340638798573798,1.063575746358211,B,818,Incorrect
2,relearn,45,87,A,35.286903353238756,43.27275571219585,1.7643451676619377,0.6797268572301013,A,660,Correct
2,relearn,45,88,A,48.02405021554894,73.2181139205594,2.4012025107774466,1.15010744401265,A,594,Correct
2,relearn,45,89,A,25.685250970195185,44.67561020454734,1.2842625485097592,0.7017628440662357,A,670,Correct
2,relearn,45,90,A,33.39461691913624,48.2313425559617,1.669730845956812,0.7576161572329102,A,461,Correct
2,relearn,45,91,A,56.078898468136586,85.34800387594856,2.803944923406829,1.3406433098761659,B,630,Incorrect
2,relearn,45,92,B,69.20590087825886,55.771721306598614,3.4602950439129425,0.8760601496743378,A,411,Incorrect
2,relearn,45,93,A,62.02932891140375,80.5516851579927,3.1014664455701877,1.2653029116331391,B,802,Incorrect
2,relearn,45,94,A,19.964121535254705,43.33058935012137,0.9982060767627352,0.6806353058902872,A,569,Correct
2,relearn,45,95,B,55.96425928294645,24.173291645937617,2.798212964147323,0.37971317723980563,A,607,Incorrect
2,relearn,45,96,A,46.424993105287804,68.92395915672655,2.32124965526439,1.0826550187154755,B,1180,Incorrect
2,relearn,45,97,B,33.74267545982007,11.298606479426283,1.6871337729910036,0.17747809555783822,A,409,Incorrect
2,relearn,45,98,A,46.1857643079675,70.44627685366802,2.309288215398375,1.1065675291811807,B,411,Incorrect
2,relearn,45,99,A,11.570075242250535,35.28894094767102,0.5785037621125269,0.5543173881708365,A,616,Correct
2,relearn,45,100,A,21.87059953393723,53.799430230109294,1.0935299766968614,0.8450794738911399,A,2102,Correct
2,relearn,45,101,A,43.22943560188159,70.42616405531977,2.1614717800940797,1.1062515980835108,A,1737,Correct
2,relearn,45,102,A,13.746893919079707,35.63605876150052,0.6873446959539854,0.5597699020401211,B,1422,Incorrect
2,relearn,45,103,A,37.06557610821114,65.17913353792802,1.853278805410557,1.0238314354505138,A,691,Correct
2,relearn,45,104,B,36.43419216567765,13.05852726695143,1.8217096082838824,0.20512286664278306,A,633,Incorrect
2,relearn,45,105,B,65.42246725173362,38.234050119105206,3.271123362586681,0.6005790548558244,B,947,Correct
2,relearn,45,106,A,26.68757097651487,51.623928550742626,1.3343785488257436,0.810906773422287,A,479,Correct
2,relearn,45,107,B,82.92993677725428,68.01859044243747,4.146496838862714,1.0684335202074724,A,1884,Incorrect
2,relearn,45,108,A,55.90842852966159,66.9005394762005,2.7954214264830797,1.0508712166981273,B,758,Incorrect
2,relearn,45,109,A,14.398025159190073,31.70484320400929,0.7199012579595037,0.49801851246465934,A,689,Correct
2,relearn,45,110,B,69.9127847078364,53.65501262145768,3.49563923539182,0.8428109673991954,A,560,Incorrect
2,relearn,45,111,A,36.45658167648392,55.496318066251945,1.822829083824196,0.8717341256910981,B,540,Incorrect
2,relearn,45,112,A,24.34224842621498,42.78621405198773,1.217112421310749,0.672084278703225,A,426,Correct
2,relearn,45,113,A,46.32426584005871,59.08963191557724,2.3162132920029355,0.928177767646512,A,492,Correct
2,relearn,45,114,A,62.61398993386336,82.56690700536603,3.130699496693168,1.2969579423884476,A,601,Correct
2,relearn,45,115,B,36.94520210458402,21.455859663646088,1.8472601052292008,0.33702785547882064,A,541,Incorrect
2,relearn,45,116,B,65.88137927258346,38.19293992584687,3.2940689636291727,0.5999332974501842,B,539,Correct
2,relearn,45,117,A,39.53201889764477,51.484942230715696,1.9766009448822386,0.8087235814125566,B,619,Incorrect
2,relearn,45,118,B,35.614344292927285,13.425428706465649,1.7807172146463643,0.21088614097763,A,295,Incorrect
2,relearn,45,119,B,48.408536200099206,24.666817537558803,2.4204268100049604,0.38746546381717295,B,352,Correct
2,relearn,45,120,A,40.36740420704839,57.05150352752761,2.0183702103524195,0.8961629217916646,B,442,Incorrect
2,relearn,45,121,B,34.91494620460594,22.2649411195733,1.745747310230297,0.3497368772693039,A,424,Incorrect
2,relearn,45,122,A,58.22680214749579,68.89285501504291,2.9113401073747895,1.0821664360004277,B,474,Incorrect
2,relearn,45,123,B,38.023770695932996,26.54557915331143,1.9011885347966497,0.4169769822666477,A,327,Incorrect
2,relearn,45,124,B,81.20618444957537,65.23908842554783,4.060309222478769,1.02477320462298,B,696,Correct
2,relearn,45,125,B,71.70294494147622,57.93728196369311,3.5851472470738113,0.9100766969304936,A,611,Incorrect
2,relearn,45,126,B,73.91960643808763,44.66945507656547,3.695980321904381,0.7016661595419869,A,438,Incorrect
2,relearn,45,127,B,40.74213396246252,30.405900479840962,2.0371066981231256,0.4776147678662536,B,299,Correct
2,relearn,45,128,A,47.9030688065777,64.17472461921092,2.395153440328885,1.0080542170493054,B,619,Incorrect
2,relearn,45,129,B,38.70881385284946,15.641067145517066,1.935440692642473,0.24568930819330545,A,390,Incorrect
2,relearn,45,130,A,30.170640850644503,44.49627089057049,1.508532042532225,0.6989457887097881,B,271,Incorrect
2,relearn,45,131,A,65.10360103199007,81.64678651675203,3.2551800515995035,1.2825047235512117,B,367,Incorrect
2,relearn,45,132,B,37.148602937966714,26.630387021447863,1.8574301468983356,0.4183091411441679,A,389,Incorrect
2,relearn,45,133,A,25.114182665363018,39.84033478363119,1.255709133268151,0.6258105153640682,A,342,Correct
2,relearn,45,134,A,52.1427619601473,62.37823534641377,2.607138098007365,0.9798350295409434,A,856,Correct
2,relearn,45,135,B,41.155076118056684,20.64365015876437,2.057753805902834,0.32426969841025954,A,763,Incorrect
2,relearn,45,136,B,85.43955190475322,64.33932758342462,4.271977595237661,1.0106397943649694,A,669,Incorrect
2,relearn,45,137,B,78.6027594253999,52.00397027276219,3.9301379712699944,0.8168764548320584,B,696,Correct
2,relearn,45,138,B,37.60732523888073,26.112921539269756,1.8803662619440364,0.41018081235768267,B,993,Correct
2,relearn,45,139,A,43.18879546732382,60.68104088935324,2.159439773366191,0.9531755613508699,A,1016,Correct
2,relearn,45,140,A,35.51682386107517,55.811119667187285,1.7758411930537585,0.8766790176752821,A,1064,Correct
2,relearn,45,141,A,23.222388030058532,47.24274250243875,1.1611194015029267,0.7420872639054794,A,790,Correct
2,relearn,45,142,B,45.72777231128886,18.876883296138057,2.2863886155644426,0.296517389429096,B,1291,Correct
2,relearn,45,143,A,58.906946632230515,69.42862158357377,2.9453473316115257,1.0905822375791054,A,953,Correct
2,relearn,45,144,A,25.787142028092646,42.12631526820381,1.2893571014046323,0.6617186128469832,B,1723,Incorrect
2,relearn,45,145,A,29.018367120754647,41.98591778977584,1.4509183560377323,0.6595132544129239,A,967,Correct
2,relearn,45,146,B,52.68614017102489,42.86596725061385,2.6343070085512443,0.6733370390177457,A,940,Incorrect
2,relearn,45,147,A,60.24061574980607,82.35196230949036,3.0120307874903034,1.2935815990009922,A,934,Correct
2,relearn,45,148,A,57.23032826767458,83.61517015475356,2.861516413383729,1.3134240214341715,A,601,Correct
2,relearn,45,149,B,51.09730398411057,29.51321209579558,2.5548651992055285,0.46359245151994405,B,668,Correct
2,relearn,45,150,A,46.499004810169104,77.39410792448719,2.3249502405084552,1.2157038044335229,A,691,Correct
2,relearn,45,151,B,33.420208990269465,20.423132537677276,1.6710104495134732,0.32080581571828803,B,594,Correct
2,relearn,45,152,B,72.52147409157087,41.98113655182669,3.6260737045785434,0.6594381509028433,B,1003,Correct
2,relearn,45,153,A,56.90993215072684,74.25410803807989,2.845496607536342,1.166380801556473,A,553,Correct
2,relearn,45,154,B,83.87815250490644,65.93530663815281,4.193907625245322,1.035709374733056,A,674,Incorrect
2,relearn,45,155,A,47.77042895140594,55.020248153481695,2.3885214475702967,0.8642560369883275,B,1091,Incorrect
2,relearn,45,156,A,55.53198590016393,84.75765451660752,2.7765992950081966,1.3313701238243796,A,718,Correct
2,relearn,45,157,B,85.81734637233387,67.96835344483617,4.2908673186166935,1.067644399294459,A,1217,Incorrect
2,relearn,45,158,B,59.33533204076965,36.2599687400252,2.9667666020384824,0.5695702570652935,B,736,Correct
2,relearn,45,159,A,45.91975905642179,60.154573546600375,2.2959879528210894,0.9449058316691332,A,958,Correct
2,relearn,45,160,A,59.52652580536011,73.91899512376317,2.9763262902680054,1.1611168602077706,A,627,Correct
2,relearn,45,161,B,74.0762694551832,60.901055657624816,3.7038134727591596,0.9566315452492861,B,1195,Correct
2,relearn,45,162,B,38.038413101819096,22.085752523118558,1.9019206550909546,0.3469221893781575,B,871,Correct
2,relearn,45,163,B,40.615263166812,21.282696348517852,2.0307631583405996,0.33430781248542996,B,626,Correct
2,relearn,45,164,B,37.478211856099556,15.076126933387272,1.873910592804978,0.2368152480925833,B,896,Correct
2,relearn,45,165,B,60.790637630073846,35.32319067649571,3.039531881503692,0.5548553816531521,B,585,Correct
2,relearn,45,166,B,61.06015528748148,33.20589788788158,3.0530077643740743,0.521597024302108,B,624,Correct
2,relearn,45,167,B,60.03334482600014,45.167284611225654,3.001667241300007,0.7094860475861291,B,881,Correct
2,relearn,45,168,B,80.68253520772107,66.47907603961487,4.034126760386053,1.0442508845174565,A,938,Incorrect
2,relearn,45,169,B,64.93208264720768,41.37566169767921,3.2466041323603836,0.6499273741342281,B,581,Correct
2,relearn,45,170,A,23.4411707012334,34.384098196454104,1.1720585350616701,0.5401041514714513,B,750,Incorrect
2,relearn,45,171,A,52.11622649363948,80.9075245957876,2.605811324681974,1.2708924244513091,A,1062,Correct
2,relearn,45,172,A,12.334041062104934,34.82067757185955,0.6167020531052466,0.5469619242638641,A,1273,Correct
2,relearn,45,173,B,74.54545190473303,63.22363627038644,3.727272595236651,0.9931145562013962,A,1111,Incorrect
2,relearn,45,174,B,45.96323925586662,21.90254350593359,2.298161962793331,0.34404434886585894,A,2073,Incorrect
2,relearn,45,175,B,73.34673603182131,59.71175127841104,3.6673368015910652,0.9379499957461854,B,1475,Correct
2,relearn,45,176,B,65.76286731253958,34.78043572434506,3.288143365626979,0.5463298068012722,B,550,Correct
2,relearn,45,177,A,62.39553013181371,81.39745066942373,3.1197765065906857,1.278588165219996,A,720,Correct
2,relearn,45,178,B,57.41305755542718,35.40834393439188,2.870652877771359,0.5561929659003313,A,2386,Incorrect
2,relearn,45,179,B,48.55351160941317,24.355555454633695,2.4276755804706585,0.3825761704518802,A,659,Incorrect
2,relearn,45,180,A,19.63216308901069,46.592783486758776,0.9816081544505344,0.731877731561506,A,783,Correct
2,relearn,45,181,A,45.901906462041,62.51229914482878,2.29509532310205,0.9819408987620081,A,1331,Correct
2,relearn,45,182,A,20.7930607625397,40.429649482056504,1.0396530381269848,0.6350674490001954,B,901,Incorrect
2,relearn,45,183,B,85.63160077073262,69.7387629707833,4.281580038536631,1.0954539270972636,A,682,Incorrect
2,relearn,45,184,B,54.62311453981316,37.78058395047503,2.731155726990658,0.5934560249357239,B,710,Correct
2,relearn,45,185,A,48.17854431667214,61.298582552947416,2.408927215833607,0.9628758831190354,A,1104,Correct
2,relearn,45,186,B,75.0253285514714,53.0568250782009,3.75126642757357,0.8334146594423731,A,801,Incorrect
2,relearn,45,187,A,34.13975836800193,49.377340436003664,1.7069879184000964,0.7756174498377566,A,727,Correct
2,relearn,45,188,B,55.54891218810832,47.52134076122948,2.777445609405416,0.7464634751210787,A,1254,Incorrect
2,relearn,45,189,A,45.37541501778973,60.68080940132132,2.268770750889486,0.9531719251453676,A,999,Correct
2,relearn,45,190,A,67.90646718851133,83.11606016537526,3.3953233594255665,1.3055840200543507,A,1067,Correct
2,relearn,45,191,B,56.783401716320355,26.088208001764343,2.8391700858160176,0.40979261301832665,B,809,Correct
2,relearn,45,192,B,71.87613738197643,49.53299887187752,3.5938068690988216,0.7780625268308097,A,799,Incorrect
2,relearn,45,193,B,79.20639800691848,65.4710316420782,3.9603199003459237,1.028416560148489,B,673,Correct
2,relearn,45,194,B,34.906826760167604,12.374826678210912,1.7453413380083802,0.1943833229085719,A,704,Incorrect
2,relearn,45,195,A,24.357724355537755,52.07698620143521,1.2178862177768877,0.8180233863576295,B,1097,Incorrect
2,relearn,45,196,A,24.931720612025693,43.18571858354275,1.2465860306012846,0.6783596812102706,A,688,Correct
2,relearn,45,197,B,68.67733758498261,42.21898207334031,3.433866879249131,0.6631742196182254,A,757,Incorrect
2,relearn,45,198,B,65.92134421791667,45.577506831178404,3.2960672108958335,0.7159298031488432,A,937,Incorrect
2,relearn,45,199,A,50.58364808768968,68.97384501205096,2.529182404384484,1.0834386238985014,A,867,Correct
2,relearn,45,200,A,63.77978017065249,85.71287091467167,3.1889890085326242,1.3463746279181137,A,899,Correct
2,relearn,45,201,A,43.7802974969499,71.03497558759382,2.189014874847495,1.1158147872695752,A,734,Correct
2,relearn,45,202,A,52.62551103882265,62.54331770815665,2.6312755519411324,0.9824281372153867,A,700,Correct
2,relearn,45,203,B,81.80875312180356,54.13218786277082,4.090437656090177,0.8503064185621169,A,756,Incorrect
2,relearn,45,204,A,19.270324021504113,35.246285736044555,0.9635162010752056,0.5536473616734214,B,1230,Incorrect
2,relearn,45,205,B,73.83375538862958,59.696028491433154,3.6916877694314794,0.9377030227858668,A,161,Incorrect
2,relearn,45,206,B,70.93771165470201,41.35502648892394,3.5468855827351007,0.6496032370330738,A,554,Incorrect
2,relearn,45,207,A,29.61917298261301,59.601261814308145,1.4809586491306503,0.9362144313025615,A,1429,Correct
2,relearn,45,208,B,66.15642189235035,37.21459144047595,3.3078210946175175,0.5845654353787241,B,728,Correct
2,relearn,45,209,B,52.97673147687715,34.57989378790429,2.6488365738438575,0.5431797014299772,A,820,Incorrect
2,relearn,45,210,B,74.94781946908763,57.86195375254526,3.7473909734543813,0.9088934441567427,B,2431,Correct
2,relearn,45,211,A,18.29298646840543,48.544913971806665,0.9146493234202715,0.7625417255148816,B,901,Incorrect
2,relearn,45,212,B,39.35328180928228,21.765550490452867,1.967664090464114,0.34189246761072223,A,624,Incorrect
2,relearn,45,213,B,71.62168026825405,59.8409686808845,3.5810840134127027,0.9399797379578183,B,487,Correct
2,relearn,45,214,A,39.86725108915316,47.47933617656276,1.993362554457658,0.7458036686480483,B,585,Incorrect
2,relearn,45,215,B,41.67538856367173,26.584688604944006,2.0837694281835866,0.41759131209632183,A,553,Incorrect
2,relearn,45,216,A,25.410385020585956,36.950445458154725,1.2705192510292977,0.580416239991046,B,769,Incorrect
2,relearn,45,217,B,59.111773407158374,33.6161647377039,2.9555886703579186,0.5280414809091741,A,490,Incorrect
2,relearn,45,218,A,47.16328283271084,58.74053163012869,2.3581641416355423,0.9226941131858557,B,462,Incorrect
2,relearn,45,219,A,50.4956397911017,73.44626525161914,2.524781989555085,1.15369123674047,A,364,Correct
2,relearn,45,220,B,46.43071625420213,37.60092359497498,2.3215358127101067,0.5906339266708225,A,435,Incorrect
2,relearn,45,221,B,45.48203482501687,25.040083949104982,2.2741017412508433,0.39332871889889953,B,619,Correct
2,relearn,45,222,B,43.89058460658772,23.967483239159794,2.194529230329386,0.3764803463459045,B,499,Correct
2,relearn,45,223,A,48.332616451341174,59.1676517100823,2.416630822567059,0.9294032997127706,A,911,Correct
2,relearn,45,224,B,32.325398718313004,17.857371794122784,1.6162699359156503,0.2805029402041886,A,1203,Incorrect
2,relearn,45,225,A,43.277961069090786,61.806584321287744,2.1638980534545396,0.9708555562361784,A,810,Correct
2,relearn,45,226,A,24.131579513473703,54.679676079896275,1.206578975673685,0.8589063433663584,A,860,Correct
2,relearn,45,227,A,57.291689899312075,65.59340342044383,2.864584494965604,1.0303387715480898,A,707,Correct
2,relearn,45,228,A,14.104420763257462,37.344638443965295,0.7052210381628732,0.5866082089326417,A,1047,Correct
2,relearn,45,229,B,60.772961934676076,51.84114259378078,3.0386480967338034,0.8143187636316132,A,957,Incorrect
2,relearn,45,230,B,87.88166723861495,62.8189444851087,4.394083361930748,0.9867576725034128,A,800,Incorrect
2,relearn,45,231,B,61.1344815073191,32.42804426394234,3.0567240753659553,0.5093785281494294,B,588,Correct
2,relearn,45,232,B,65.32413288721693,42.827011959971436,3.266206644360847,0.6727251307432424,A,1667,Incorrect
2,relearn,45,233,A,25.577119452469553,41.63281750167446,1.2788559726234778,0.6539667680575253,B,877,Incorrect
2,relearn,45,234,A,58.08214351661461,70.46258653032564,2.9041071758307306,1.1068237209830307,A,749,Correct
2,relearn,45,235,A,42.0989136616268,49.861313754607366,2.1049456830813402,0.783219684949051,A,1524,Correct
2,relearn,45,236,B,70.50789652553877,45.72687692243635,3.5253948262769383,0.7182761030556535,A,775,Incorrect
2,relearn,45,237,B,44.20125839716519,36.49775735742114,2.2100629198582595,0.5733054319328854,B,822,Correct
2,relearn,45,238,A,45.84377965186379,67.62129278700935,2.29218898259319,1.0621927832295652,A,719,Correct
2,relearn,45,239,A,39.221919735433126,52.66403670678139,1.9610959867716562,0.8272447541320381,A,520,Correct
2,relearn,45,240,A,28.85860988571246,56.964631808733884,1.4429304942856231,0.8947983440238291,A,1164,Correct
2,relearn,45,241,A,36.61406489379216,52.27509972660777,1.8307032446896079,0.8211353463339239,A,623,Correct
2,relearn,45,242,B,58.188807052794964,45.32554727091294,2.909440352639748,0.7119720316311849,A,729,Incorrect
2,relearn,45,243,A,31.426037972430407,46.558027941375464,1.5713018986215204,0.7313317927312674,B,488,Incorrect
2,relearn,45,244,B,72.39170572087616,56.974597155761145,3.6195852860438085,0.8949548793288858,A,617,Incorrect
2,relearn,45,245,B,56.212751215076985,41.13863373919377,2.810637560753849,0.6462041476688617,A,609,Incorrect
2,relearn,45,246,A,54.01747317677605,66.08077099710192,2.7008736588388023,1.0379943235402243,B,846,Incorrect
2,relearn,45,247,B,37.14252003193609,24.623214732579473,1.8571260015968045,0.38678055255817817,A,357,Incorrect
2,relearn,45,248,A,13.237824314622113,35.83147347031374,0.6618912157311057,0.562839469108176,B,761,Incorrect
2,relearn,45,249,A,58.64474946171812,66.76494398188278,2.9322374730859058,1.048741287654085,A,485,Correct
2,relearn,45,250,B,66.78413679512855,54.48664823550866,3.3392068397564274,0.8558742690770264,A,547,Incorrect
2,relearn,45,251,B,69.28061086899872,43.68494732213219,3.4640305434499363,0.6862015478983381,A,1045,Incorrect
2,relearn,45,252,B,59.12664653802651,43.29040642260415,2.9563323269013257,0.6800041139408479,A,1151,Incorrect
2,relearn,45,253,B,41.52978639116341,28.445469212762404,2.0764893195581706,0.446820385533645,B,677,Correct
2,relearn,45,254,A,26.951714061938922,37.47675131057609,1.3475857030969463,0.5886834329885876,B,511,Incorrect
2,relearn,45,255,B,64.84571598713742,40.03971393722336,3.242285799356871,0.6289423557850887,A,628,Incorrect
2,relearn,45,256,A,47.35511226648767,72.23756286333425,2.3677556133243836,1.1347049840234087,B,679,Incorrect
2,relearn,45,257,B,56.145470206464594,31.043752224642915,2.80727351032323,0.487634119644,A,555,Incorrect
2,relearn,45,258,A,42.4242016385247,54.910197279339705,2.1212100819262347,0.8625273618996994,B,1011,Incorrect
2,relearn,45,259,B,72.16531521210713,57.12484036952172,3.6082657606053568,0.8973148942118955,A,377,Incorrect
2,relearn,45,260,A,28.666309451554213,53.66404826196593,1.4333154725777106,0.8429528989084015,A,1178,Correct
2,relearn,45,261,B,38.980404249128455,14.925963030744192,1.9490202124564229,0.234456479025694,A,542,Incorrect
2,relearn,45,262,B,89.7847083435595,65.96710119210243,4.489235417177975,1.0362088024186173,B,713,Correct
2,relearn,45,263,A,67.09631875214313,82.44517591159367,3.3548159376071567,1.2950457948389043,B,831,Incorrect
2,relearn,45,264,B,61.73357953548429,46.56113189403525,3.0866789767742144,0.7313805495056327,A,867,Incorrect
2,relearn,45,265,A,22.070335314150373,54.16854526234647,1.1035167657075187,0.8508775192591694,A,690,Correct
2,relearn,45,266,B,79.00608880088564,52.44171561172029,3.950304440044282,0.823752542537128,A,517,Incorrect
2,relearn,45,267,A,31.5538466386973,57.32745976419075,1.5776923319348652,0.9004976322207304,B,706,Incorrect
2,relearn,45,268,A,29.675737592539154,43.880656064861654,1.4837868796269578,0.6892757336403489,A,289,Correct
2,relearn,45,269,A,43.50244762297227,54.82524263154764,2.1751223811486136,0.86119289741274,A,534,Correct
2,relearn,45,270,A,63.67950840234335,78.18509712073427,3.183975420117168,1.2281286336735164,A,739,Correct
2,relearn,45,271,B,58.59040801053632,30.99681974226449,2.929520400526816,0.48689690593472584,B,901,Correct
2,relearn,45,272,A,23.449161520504063,53.30500054053672,1.1724580760252032,0.8373129904887504,A,741,Correct
2,relearn,45,273,B,55.774075913814656,41.637405378718896,2.788703795690733,0.6540388342616171,A,780,Incorrect
2,relearn,45,274,B,74.2320395986134,56.804603239961956,3.7116019799306694,0.8922846211437371,B,624,Correct
2,relearn,45,275,B,42.20516969519136,32.56541506297469,2.110258484759568,0.5115363436147183,A,563,Incorrect
2,relearn,45,276,B,72.97258258882712,47.67286425079518,3.648629129441356,0.7488436005294081,B,746,Correct
2,relearn,45,277,A,43.90964002551099,56.486153228533176,2.195482001275549,0.8872824200615358,B,630,Incorrect
2,relearn,45,278,B,63.373035987290066,34.447548425496876,3.168651799364503,0.5411008253385982,A,634,Incorrect
2,relearn,45,279,B,84.54921282470562,59.11021979430549,4.227460641235281,0.9285011612893406,B,612,Correct
2,relearn,45,280,B,42.368921484600165,23.86161200178875,2.118446074230008,0.37481732483814784,A,901,Incorrect
2,relearn,45,281,A,39.421415670119146,58.17823603415631,1.971070783505957,0.9138615946185922,A,669,Correct
2,relearn,45,282,B,88.00280285901462,68.18009318364042,4.400140142950732,1.0709703993339614,A,677,Incorrect
2,relearn,45,283,A,45.772610364222736,60.705764084840474,2.288630518211137,0.9535639123974498,B,577,Incorrect
2,relearn,45,284,A,61.69437311549031,71.84441153256634,3.084718655774515,1.1285293773609613,A,347,Correct
2,relearn,45,285,B,66.08896836301454,33.16163642966552,3.304448418150727,0.5209017669422643,A,524,Incorrect
2,relearn,45,286,B,49.11937807513009,23.665378775846282,2.4559689037565047,0.37173490053309244,B,605,Correct
2,relearn,45,287,A,47.007860279892014,65.37538519251142,2.3503930139946005,1.026914149231984,B,609,Incorrect
2,relearn,45,288,A,40.1595924935791,48.0113347934606,2.007979624678955,0.754160283380879,A,427,Correct
2,relearn,45,289,A,59.49562051175751,81.0729459145507,2.9747810255878755,1.2734908564501757,A,619,Correct
2,relearn,45,290,A,64.3959703435377,84.71780645449356,3.219798517176885,1.3307441919283947,A,507,Correct
2,relearn,45,291,A,24.350229367785087,44.931325246317854,1.2175114683892543,0.705779606549429,A,455,Correct
2,relearn,45,292,B,62.09552626456316,47.58866937380335,3.104776313228158,0.747521070494271,A,522,Incorrect
2,relearn,45,293,A,24.38970329965324,53.0668264862953,1.219485164982662,0.8335717611933476,B,520,Incorrect
2,relearn,45,294,A,17.093027293726042,39.47466312192029,0.8546513646863021,0.6200665583337835,A,415,Correct
2,relearn,45,295,A,67.70577372155209,85.2614533455902,3.3852886860776046,1.3392837773244752,A,580,Correct
2,relearn,45,296,B,35.664213959729295,24.369914771325362,1.7832106979864648,0.38280172607102564,B,1042,Correct
2,relearn,45,297,A,21.31946416373304,42.13207858246059,1.0659732081866522,0.6618091427756303,A,564,Correct
2,relearn,45,298,A,41.29343933987358,62.05596494833865,2.064671966993679,0.9747728179656319,A,916,Correct
2,relearn,45,299,A,49.75355162736357,72.6167153241193,2.4876775813681786,1.140660696950373,A,517,Correct
2,relearn,45,300,B,55.59381999994338,24.234050365918474,2.779690999997169,0.3806675729814726,B,663,Correct
2,relearn,45,301,B,43.97765818845542,24.66780362961406,2.198882909422771,0.38748095331495586,B,648,Correct
2,relearn,45,302,B,71.0319706773715,43.88005328410352,3.5515985338685754,0.6892662651823415,A,1011,Incorrect
2,relearn,45,303,B,79.48849313332789,63.728423049795,3.9744246566663946,1.001043728390492,A,664,Correct
2,relearn,45,304,A,55.167531529137264,70.35594313476412,2.758376576456863,1.105148570442781,A,788,Correct
2,relearn,45,305,B,51.108947711170515,41.40026996287125,2.5554473855585256,0.6503139198599525,B,695,Incorrect
2,relearn,45,306,A,48.73079200495309,70.6245154195189,2.4365396002476545,1.1093672940264983,A,701,Correct
2,relearn,45,307,B,80.68240529712858,61.7524663983135,4.034120264856429,0.9700054738899613,A,1257,Correct
2,relearn,45,308,A,36.88722303869429,50.59323353794656,1.8443611519347143,0.7947166540208281,B,1294,Incorrect
2,relearn,45,309,B,55.25246683546009,47.67424738420846,2.762623341773004,0.7488653267382586,A,892,Incorrect
2,relearn,45,310,A,38.19243331209731,59.510171001189605,1.9096216656048655,0.9347835801560478,A,568,Correct
2,relearn,45,311,A,30.44727818127577,56.354908694597476,1.5223639090637886,0.885220835743355,A,882,Incorrect
2,relearn,45,312,B,84.08273977771276,65.39250055209983,4.2041369888856375,1.0271829966717168,B,705,Correct
2,relearn,45,313,B,43.86799926411803,34.995723090894145,2.1933999632059016,0.5497115328470786,A,726,Correct
2,relearn,45,314,B,64.0398230518742,53.43893374512428,3.2019911525937097,0.8394168083467706,A,741,Correct
2,relearn,45,315,A,28.529895618472032,41.189519210404015,1.4264947809236017,0.6470034547815045,A,624,Correct
2,relearn,45,316,A,16.68863405505729,44.212421538874736,0.8344317027528645,0.6944870935197199,A,931,Correct
2,relearn,45,317,A,18.452952325129225,39.62936287949572,0.9226476162564612,0.6224965764433391,A,694,Correct
2,relearn,45,318,A,48.91128399824274,56.543981157055946,2.4455641999121367,0.8881907790386333,A,886,Correct
2,relearn,45,319,B,38.279279833191886,27.113131436177277,1.9139639916595943,0.42589207267854506,B,765,Incorrect
2,relearn,45,320,B,58.364721079203,34.625572840839354,2.91823605396015,0.5438972263155959,A,409,Incorrect
2,relearn,45,321,B,76.88731618542623,47.18629500182532,3.8443658092713116,0.741200588639276,B,506,Incorrect
2,relearn,45,322,A,52.75596772495274,76.45833712375938,2.6377983862476366,1.2010047510684712,A,576,Incorrect
2,relearn,45,323,A,59.12422318269057,76.00511304679041,2.9562111591345284,1.1938855239152923,B,535,Correct
2,relearn,45,324,B,63.736234535146664,54.743337565015736,3.186811726757333,0.8599063356361979,B,443,Correct
2,relearn,45,325,B,72.32988554728779,57.8534938265005,3.6164942773643896,0.9087605559491821,B,617,Correct
2,relearn,45,326,B,58.77017829377574,40.742328103570365,2.9385089146887875,0.6399789933016081,A,719,Correct
2,relearn,45,327,A,44.10530506556662,67.5240291295988,2.205265253278331,1.0606649692716539,B,685,Correct
2,relearn,45,328,B,39.31413298637813,14.295434900860432,1.9657066493189064,0.2245521663220713,A,954,Incorrect
2,relearn,45,329,A,31.011583192731493,63.21212925190373,1.5505791596365748,0.9929338043777461,B,630,Correct
2,relearn,45,330,A,39.836546494542624,65.88089435855254,1.9918273247271312,1.0348546686437696,B,763,Correct
2,relearn,45,331,B,60.78279911046363,34.96043906342753,3.0391399555231815,0.5491572926396878,A,649,Incorrect
2,relearn,45,332,B,64.36804460119356,43.21495689787426,3.218402230059678,0.6788189555778067,B,673,Correct
2,relearn,45,333,A,33.82928565805459,66.03973922665075,1.6914642829027293,1.0373497979971587,A,852,Correct
2,relearn,45,334,A,66.70708932574274,82.2563010417042,3.335354466287137,1.292078955320442,A,550,Correct
2,relearn,45,335,B,52.03094721797661,43.61159491520521,2.6015473608988304,0.6850493309847133,B,834,Incorrect
2,relearn,45,336,A,44.94186979937618,59.763902286904454,2.247093489968809,0.9387691818719863,A,440,Correct
2,relearn,45,337,A,66.08275097932302,81.21533478988059,3.304137548966151,1.275727495673622,A,473,Incorrect
2,relearn,45,338,A,49.33647317294657,75.3412986944489,2.4668236586473284,1.1834583524519746,B,712,Incorrect
2,relearn,45,339,A,10.706406849806921,34.45272154976526,0.5353203424903461,0.5411820845845864,B,726,Correct
2,relearn,45,340,B,76.19717517040462,48.737036076353604,3.8098587585202313,0.765559572476066,A,684,Correct
2,relearn,45,341,B,62.32997102455668,33.07412467769182,3.1164985512278336,0.5195271355567476,A,767,Correct
2,relearn,45,342,B,35.73146959682229,12.350706291045178,1.7865734798411148,0.19400444075296386,B,647,Incorrect
2,relearn,45,343,A,52.920782352799904,69.88204617204286,2.646039117639995,1.097704614359563,A,413,Correct
2,relearn,45,344,A,53.283328444696224,69.30556602462478,2.6641664222348114,1.0886492853792178,A,521,Correct
2,relearn,45,345,B,39.733463438066586,22.216663593045475,1.9866731719033295,0.34897853565593745,A,878,Incorrect
2,relearn,45,346,B,42.306859754664174,19.939911030759802,2.1153429877332086,0.3132153900373454,B,665,Incorrect
2,relearn,45,347,A,53.02672413355794,64.40158713069722,2.651336206677897,1.0116177650466067,A,664,Incorrect
2,relearn,45,348,B,53.39443687212476,25.18490408973451,2.6697218436062378,0.39560354834836736,A,1575,Incorrect
2,relearn,45,349,A,40.31381294402606,56.46200337121547,2.015690647201303,0.8869030749898633,B,587,Correct
2,relearn,45,350,A,51.5431937689073,67.8368727617234,2.577159688445365,1.0655791055536787,A,893,Correct
2,relearn,45,351,B,73.27667669687702,63.26240254154033,3.663833834843851,0.9937234953647168,A,843,Incorrect
2,relearn,45,352,A,15.404113259915167,30.609921117664808,0.7702056629957583,0.4808195165510941,B,880,Incorrect
2,relearn,45,353,A,13.744505328466683,34.287102047649185,0.6872252664233343,0.5385805395288912,A,628,Correct
2,relearn,45,354,B,52.95835608790025,31.452587375380066,2.6479178043950125,0.4940560871744255,A,734,Incorrect
2,relearn,45,355,A,24.93455383459207,38.453809143131735,1.2467276917296035,0.6040310215330333,B,612,Correct
2,relearn,45,356,A,17.54270045842688,36.67868062514896,0.8771350229213439,0.5761473679766712,B,621,Incorrect
2,relearn,45,357,A,60.94633592664446,74.70857620610593,3.047316796332223,1.173519570846278,A,407,Correct
2,relearn,45,358,A,11.51741495604097,31.573581521310043,0.5758707478020484,0.4959566587743304,A,531,Incorrect
2,relearn,45,359,B,46.55535467845093,38.33657049464875,2.3277677339225464,0.6021894411490786,B,1140,Correct
2,relearn,45,360,B,80.84088087276012,66.3197746318213,4.042044043638006,1.0417485838553027,A,537,Incorrect
2,relearn,45,361,B,80.8321005846593,51.490697854064386,4.041605029232965,0.808813990532702,B,737,Incorrect
2,relearn,45,362,A,38.6829969591435,61.18803895014404,1.9341498479571753,0.9611394682666933,A,781,Incorrect
2,relearn,45,363,A,59.12807086688504,67.82028537484346,2.9564035433442517,1.0653185514898575,A,428,Incorrect
2,relearn,45,364,A,37.093908316685535,65.80487653350353,1.8546954158342768,1.0336605834401902,B,5252,Correct
2,relearn,45,365,B,69.27058830135336,40.11491651307561,3.463529415067668,0.6301236350842312,A,608,Correct
2,relearn,45,366,A,42.10285032356478,72.629433700914,2.105142516178239,1.140860476745892,A,454,Correct
2,relearn,45,367,A,17.4134412718024,40.026764797590005,0.8706720635901201,0.6287389511753766,A,451,Correct
2,relearn,45,368,A,49.725177189221114,79.75160682111239,2.4862588594610555,1.2527353105059416,A,590,Correct
2,relearn,45,369,B,64.775172511331,53.628219996243374,3.2387586255665495,0.8423901098264772,A,463,Incorrect
2,relearn,45,370,A,27.885622864459393,46.78986388837376,1.3942811432229696,0.7349734632709066,A,455,Correct
2,relearn,45,371,A,47.7309702698624,63.45107682847361,2.3865485134931195,0.9966871841334711,A,490,Incorrect
2,relearn,45,372,A,40.571463890605614,53.62967284070764,2.028573194530281,0.8424129310539559,A,425,Correct
2,relearn,45,373,B,43.35205127908827,17.923732629297252,2.1676025639544134,0.2815453337655396,B,568,Incorrect
2,relearn,45,374,A,14.901263211634912,32.77381480565174,0.7450631605817456,0.5148098791177395,A,538,Correct
2,relearn,45,375,B,85.95499116838499,64.09703803761195,4.29774955841925,1.0068339190791362,A,629,Incorrect
2,relearn,45,376,B,72.90541373620007,46.88044699452729,3.645270686810004,0.7363963393750633,B,962,Incorrect
2,relearn,45,377,B,45.94267173601998,23.05768664236228,2.297133586800999,0.36218929482210427,A,500,Incorrect
2,relearn,45,378,A,50.098017438509224,75.74850353166798,2.5049008719254613,1.189854711077543,A,457,Incorrect
2,relearn,45,379,A,21.335495050569456,45.51241298415216,1.0667747525284728,0.7149073113907858,B,670,Correct
2,relearn,45,380,B,42.853501403122706,17.706080900857458,2.1426750701561357,0.27812646841000166,B,508,Incorrect
2,relearn,45,381,B,81.43102432382751,67.34422249265896,4.071551216191375,1.0578405732232696,A,853,Correct
2,relearn,45,382,B,65.75007739524246,34.25199332675044,3.287503869762123,0.5380290530306289,A,361,Incorrect
2,relearn,45,383,B,67.94394700561575,53.087822163886536,3.3971973502807877,0.8339015605257367,A,582,Incorrect
2,relearn,45,384,A,35.47321241122206,60.08261297515682,1.7736606205611027,0.9437754776561571,A,530,Correct
2,relearn,45,385,B,63.90583929131508,51.87335452390784,3.195291964565754,0.8148247474468386,A,854,Incorrect
2,relearn,45,386,A,38.35423928359519,50.16774246248858,1.9177119641797595,0.7880330558366941,B,898,Correct
2,relearn,45,387,B,38.2046395108228,25.10499734555853,1.91023197554114,0.3943483761459896,B,735,Correct
2,relearn,45,388,A,42.12348478217093,51.256053621191725,2.106174239108546,0.8051282075417022,B,1092,Incorrect
2,relearn,45,389,A,39.38303485304116,58.088323381684106,1.969151742652058,0.912449249976235,A,535,Correct
2,relearn,45,390,B,40.16856133893638,17.119563402548003,2.0084280669468186,0.2689134730905474,A,509,Correct
2,relearn,45,391,B,64.616501179806,53.216622783845246,3.2308250589902996,0.8359247559329372,A,542,Incorrect
2,relearn,45,392,A,45.02595666437592,58.27149992495918,2.251297833218796,0.9153265803895498,A,596,Incorrect
2,relearn,45,393,A,36.17091636172206,49.85182060144469,1.8085458180861027,0.7830705668478747,A,622,Incorrect
2,relearn,45,394,B,40.42862562817437,16.41355173864608,2.0214312814087183,0.2578234678072325,A,371,Incorrect
2,relearn,45,395,A,25.815375925951145,51.09013321340989,1.2907687962975571,0.8025219358708621,A,615,Correct
2,relearn,45,396,B,49.34991926848088,29.246268268280524,2.467495963424044,0.45939930768273185,B,857,Incorrect
2,relearn,45,397,A,46.633864395047596,57.16578782965471,2.33169321975238,0.8979580954115802,A,413,Incorrect
2,relearn,45,398,A,12.056027909326183,35.74998514168807,0.6028013954663092,0.5615594534353575,A,3645,Incorrect
2,relearn,45,399,B,48.10330365177799,27.57230302887235,2.4051651825888998,0.4331047231902849,A,303,Incorrect
2,relearn,45,400,A,67.47487450399427,82.95855584999313,3.3737437251997138,1.3031099480537849,A,462,Correct
2,relearn,45,401,B,86.6061705748219,67.05006081428918,4.330308528741096,1.0532198923845988,A,476,Incorrect
2,relearn,45,402,A,45.9481417073843,58.555912056069076,2.297407085369215,0.9197941156979831,B,3867,Incorrect
2,relearn,45,403,A,36.53202491820846,65.19936819801597,1.8266012459104228,1.0241492807479147,A,409,Incorrect
2,relearn,45,404,B,66.8153014528311,51.15371178074039,3.3407650726415543,0.8035206256711184,A,413,Correct
2,relearn,45,405,A,53.23032230353827,74.79963616425022,2.661516115176914,1.1749499373239896,A,568,Correct
2,relearn,45,406,A,41.448898703558335,60.04099663599908,2.072444935177917,0.9431217697293209,A,437,Correct
2,relearn,45,407,B,78.51116775796575,54.77146789523533,3.9255583878982874,0.8603482058300026,A,491,Incorrect
2,relearn,45,408,A,49.671688286747155,74.92385677843266,2.4835844143373578,1.1769011901686892,A,484,Correct
2,relearn,45,409,A,17.92881368835349,43.19963140877245,0.8964406844176744,0.6785782233579322,A,823,Correct
2,relearn,45,410,B,61.974899969962415,53.21344449617335,3.098744998498121,0.835874831506932,A,566,Correct
2,relearn,45,411,A,68.002087367594,81.27749173310902,3.4001043683797003,1.276703854654702,A,453,Incorrect
2,relearn,45,412,B,49.22447550739531,30.167711062210657,2.4612237753697657,0.47387329724330274,A,415,Incorrect
2,relearn,45,413,A,22.645237719550213,44.826586827873385,1.1322618859775107,0.7041343793197601,B,528,Incorrect
2,relearn,45,414,A,31.526726438979242,46.4338457140732,1.5763363219489621,0.7293811428662713,A,529,Correct
2,relearn,45,415,A,41.518398349650774,54.642044559260874,2.0759199174825387,0.8583152288225003,A,666,Correct
2,relearn,45,416,A,63.893929519484956,87.01155275323765,3.194696475974248,1.3667742745350606,A,612,Correct
2,relearn,45,417,A,46.49828059914126,65.8222423062682,2.3249140299570628,1.0339333643608972,A,584,Incorrect
2,relearn,45,418,A,28.083847850474555,48.55045883843517,1.4041923925237279,0.7626288240762079,A,472,Incorrect
2,relearn,45,419,B,56.09386114246893,44.74644452843646,2.8046930571234463,0.702875507023996,B,598,Correct
2,relearn,45,420,B,68.28930217431,43.449582882697804,3.4144651087155,0.6825044519291212,B,607,Correct
2,relearn,45,421,A,42.10932311870497,57.94809650598044,2.1054661559352486,0.9102465713635024,B,473,Incorrect
2,relearn,45,422,B,44.19327625468891,27.65059694610557,2.2096638127344455,0.43433456116628816,A,462,Incorrect
2,relearn,45,423,A,28.76044146078671,38.49498977287261,1.4380220730393354,0.604677885352354,B,866,Incorrect
2,relearn,45,424,B,74.32617553730535,58.29048724817791,3.7163087768652674,0.9156248325652263,A,704,Incorrect
2,relearn,45,425,B,59.78993829401045,50.27325438188127,2.9894969147005224,0.7896904331908454,B,469,Incorrect
2,relearn,45,426,A,36.45281901537215,58.527669489089114,1.8226409507686074,0.9193504824932691,A,942,Correct
2,relearn,45,427,B,64.15413021181625,36.33979517480033,3.2077065105908127,0.5708241677705526,A,621,Correct
2,relearn,45,428,B,69.94821315963112,42.82335217781604,3.497410657981556,0.6726676430195766,A,534,Incorrect
2,relearn,45,429,B,63.9691743902479,43.84638281635903,3.1984587195123946,0.6887373707117964,B,533,Correct
2,relearn,45,430,A,23.302123672319365,37.57338353536534,1.1651061836159682,0.5902013284260772,B,418,Incorrect
2,relearn,45,431,B,45.21507569524674,20.30247088453987,2.260753784762337,0.3189104669029556,A,704,Incorrect
2,relearn,45,432,A,29.617461952988897,61.426848397359706,1.4808730976494449,0.9648906782915961,B,445,Correct
2,relearn,45,433,B,47.17024823695004,25.173793344375234,2.358512411847502,0.39542902116838435,B,378,Incorrect
2,relearn,45,434,B,31.404253843966657,16.721843958548725,1.570212692198333,0.2626661106732577,A,431,Correct
2,relearn,45,435,B,38.08847537326368,14.964597359833963,1.904423768663184,0.23506334564791795,A,489,Incorrect
2,relearn,45,436,A,18.60065848624768,45.30529474567804,0.930032924312384,0.7116539057087119,B,399,Incorrect
2,relearn,45,437,B,62.802381276328106,41.72534039314489,3.1401190638164054,0.6554201142381871,A,377,Incorrect
2,relearn,45,438,A,44.756778072370246,65.00645381828069,2.2378389036185125,1.0211189887571737,A,923,Incorrect
2,relearn,45,439,A,23.931829663690852,54.27146571218088,1.1965914831845426,0.852494189904689,B,568,Correct
2,relearn,45,440,B,68.18298850436094,47.1559657102748,3.4091494252180468,0.7407241772416575,B,458,Correct
2,relearn,45,441,B,67.44832527437711,37.543379963078735,3.3724162637188555,0.589730033414692,B,607,Correct
2,relearn,45,442,B,68.98376967553835,37.80745694470944,3.449188483776918,0.5938781449420579,B,542,Correct
2,relearn,45,443,A,57.09770290978714,84.97692614226817,2.854885145489357,1.3348144344659605,A,721,Incorrect
2,relearn,45,444,A,51.85771682090549,62.45986485065816,2.5928858410452746,0.9811172627951951,B,651,Correct
2,relearn,45,445,B,41.28509434799217,16.063389725180794,2.0642547173996086,0.25232313576188875,B,732,Incorrect
2,relearn,45,446,A,29.805786663637278,44.09069411421701,1.4902893331818639,0.6925750036044944,A,531,Correct
2,relearn,45,447,A,14.294067898471216,30.230506658440103,0.7147033949235607,0.47485968816226376,A,809,Correct
2,relearn,45,448,B,76.5226066114599,45.77000623288171,3.8261303305729952,0.7189535766799011,A,641,Incorrect
2,relearn,45,449,A,15.804357916651565,45.61277664702776,0.7902178958325783,0.7164838201206725,A,1451,Correct
2,relearn,45,450,A,26.054589430364537,45.628078873875445,1.3027294715182267,0.7167241869379137,A,1044,Incorrect
2,relearn,45,451,A,46.51201191283553,64.11640155664918,2.3256005956417765,1.0071380805249113,B,789,Incorrect
2,relearn,45,452,A,31.38200106039485,61.166235489200396,1.5691000530197425,0.9607969803030764,A,916,Correct
2,relearn,45,453,B,75.24659763374632,56.605317680050334,3.762329881687316,0.8891542508888127,B,1032,Incorrect
2,relearn,45,454,A,43.04638053934886,60.479612189892805,2.152319026967443,0.9500115267386345,A,864,Correct
2,relearn,45,455,A,17.018771909733594,36.47662537086471,0.8509385954866798,0.5729734914642781,B,678,Incorrect
2,relearn,45,456,A,47.48289567329707,74.49377483034417,2.3741447836648537,1.1701454787259076,A,957,Correct
2,relearn,45,457,A,31.350331343491476,49.76525973142632,1.5675165671745737,0.7817108718811844,A,470,Correct
2,relearn,45,458,A,41.23680248564071,60.02460114790677,2.0618401242820354,0.942864230004607,A,460,Incorrect
2,relearn,45,459,A,57.392849054181355,72.94118950079667,2.8696424527090674,1.1457575253990189,A,1036,Correct
2,relearn,45,460,B,59.06987357920876,33.057426586132266,2.953493678960438,0.5192648425478852,B,1031,Incorrect
2,relearn,45,461,B,71.55302251941097,55.11023796809538,3.577651125970549,0.8656695936907688,A,391,Correct
2,relearn,45,462,A,35.96221551765325,55.634200834486826,1.7981107758826624,0.8738999831498147,A,589,Incorrect
2,relearn,45,463,A,49.66894315683053,73.88685458235035,2.4834471578415265,1.1606119977638463,A,1214,Correct
2,relearn,45,464,B,63.49483922437558,55.98204068579115,3.1747419612187793,0.879363838757232,A,720,Incorrect
2,relearn,45,465,A,36.27134485543044,69.03495417476472,1.8135672427715221,1.0843985243817442,B,1159,Incorrect
2,relearn,45,466,A,18.521071326477095,40.3873016955546,0.9260535663238548,0.6344022515253446,B,388,Incorrect
2,relearn,45,467,B,80.86258156181702,62.30952992137609,4.0431290780908515,0.9787558072481427,B,458,Correct
2,relearn,45,468,B,69.61358249642865,48.885063687794265,3.4806791248214326,0.7678847847592182,B,376,Correct
2,relearn,45,469,A,60.55971719756606,79.23984003179895,3.027985859878303,1.24469649657765,B,1050,Correct
2,relearn,45,470,B,36.111877119932736,18.223128007574275,1.8055938559966367,0.28624822537010874,B,845,Correct
2,relearn,45,471,A,31.461060729618524,45.620822035573696,1.573053036480926,0.7166101967884284,B,1139,Incorrect
2,relearn,45,472,A,46.23240869956578,68.14767225952205,2.311620434978289,1.0704611326487972,B,1495,Incorrect
2,relearn,45,473,B,36.87951435578688,20.802566091602806,1.843975717789344,0.3267659440459776,A,684,Incorrect
2,relearn,45,474,B,78.00752720748127,48.75539265493932,3.900376360374064,0.7658479169382156,B,670,Correct
2,relearn,45,475,B,57.76137468270317,46.38736509698421,2.8880687341351585,0.7286510270403659,A,943,Correct
2,relearn,45,476,B,59.266818231647626,41.26547198129046,2.9633409115823817,0.6481965181166878,A,736,Correct
2,relearn,45,477,A,32.30407895014993,42.99906287748884,1.6152039475074964,0.6754277002358227,A,805,Correct
2,relearn,45,478,B,54.456070616517074,24.78433643757227,2.7228035308258534,0.38931144638187437,A,926,Correct
2,relearn,45,479,B,88.9886283278863,63.492715537952336,4.449431416394315,0.9973412434524878,A,6442,Incorrect
2,relearn,45,480,B,72.30576929325396,52.51181836960255,3.6152884646626977,0.8248537140829245,A,422,Incorrect
2,relearn,45,481,B,71.12946660644339,50.66367762414921,3.556473330322169,0.7958231871393435,B,490,Incorrect
2,relearn,45,482,A,33.685448329964174,61.283304434137094,1.6842724164982088,0.9626358949899594,A,448,Correct
2,relearn,45,483,B,55.916458223416235,48.74257143698603,2.795822911170812,0.7656465217175551,A,372,Correct
2,relearn,45,484,B,69.42897608745713,38.54079332788043,3.471448804372857,0.6053973659119584,A,344,Correct
2,relearn,45,485,A,50.4395298742311,69.31315465582557,2.5219764937115547,1.0887684873193741,A,538,Correct
2,relearn,45,486,A,12.437989202940521,37.69335444226751,0.621899460147026,0.592085827024919,B,1022,Correct
2,relearn,45,487,A,31.498764440974192,46.814325946437265,1.5749382220487096,0.7353577123804267,A,376,Correct
2,relearn,45,488,A,40.17521828459495,68.72794348994837,2.0087609142297476,1.0795760118217812,B,1870,Incorrect
2,relearn,45,489,B,80.93915935061474,56.20849467827316,4.046957967530737,0.8829209697530197,A,3011,Incorrect
2,relearn,45,490,B,62.93520127419841,45.84589844238384,3.146760063709921,0.7201456887190842,B,513,Correct
2,relearn,45,491,A,28.674019713331766,49.75899450912705,1.4337009856665883,0.7816124579994421,B,969,Correct
2,relearn,45,492,B,41.82327175325542,13.444140252475144,2.091163587662771,0.21118006125503366,B,1834,Incorrect
2,relearn,45,493,B,53.38357243648328,28.736113747996157,2.669178621824164,0.45138581921712684,A,3248,Incorrect
2,relearn,45,494,B,63.782857655456546,46.663011684902465,3.189142882772827,0.7329808735183213,A,5535,Incorrect
2,relearn,45,495,A,55.1747396650758,69.93604797362443,2.75873698325379,1.0985528726752092,B,4788,Incorrect
2,relearn,45,496,B,36.76561902676458,16.75280962558521,1.838280951338229,0.2631525182336344,A,479,Incorrect
2,relearn,45,497,A,58.18963600346868,66.38574267500839,2.9094818001734337,1.0427848074545438,B,636,Correct
2,relearn,45,498,B,43.522089374195104,14.645203788823157,2.176104468709755,0.23004632316646118,B,5258,Correct
2,relearn,45,499,B,79.29914025593892,56.02298530786054,3.9649570127969462,0.8800069953767178,B,387,Correct
2,relearn,45,500,B,72.8457689871044,54.53832927395749,3.6422884493552203,0.8566860729306299,B,1073,Correct
2,relearn,45,501,B,60.619374793569705,47.56685047081106,3.0309687396784852,0.7471783399675211,B,1177,Incorrect
2,relearn,45,502,A,41.504299558867224,54.258691216743344,2.0752149779433613,0.8522935285995896,A,1359,Correct
2,relearn,45,503,B,54.367394211797176,37.22629554673741,2.718369710589859,0.5847492830499635,A,3918,Incorrect
2,relearn,45,504,A,55.68694565338329,79.95756233567708,2.784347282669165,1.2559704521635555,B,358,Incorrect
2,relearn,45,505,B,57.36050328343276,38.35197659353839,2.8680251641716383,0.6024314395845395,A,462,Incorrect
2,relearn,45,506,A,56.51270712739971,65.71025200642244,2.8256353563699856,1.0321742248445533,B,6229,Correct
2,relearn,45,507,A,33.12319533952149,51.198575923739746,1.6561597669760744,0.8042253499814002,A,504,Correct
2,relearn,45,508,B,53.35912624505303,43.50686213175566,2.6679563122526515,0.6834041922693377,A,457,Incorrect
2,relearn,45,509,A,32.000067062702826,45.29021800365428,1.6000033531351414,0.7114170807988024,A,3133,Correct
2,relearn,45,510,A,17.29618863506522,34.82354299397868,0.8648094317532611,0.5470069342092587,A,5260,Correct
2,relearn,45,511,B,53.30586176945471,24.03078571415864,2.6652930884727355,0.37747469929795663,A,369,Correct
2,relearn,45,512,A,17.930750669641803,32.75135696133583,0.8965375334820902,0.5144571121241479,A,424,Correct
2,relearn,45,513,B,45.691127493813546,19.546347703060015,2.2845563746906774,0.30703331174222537,A,441,Correct
2,relearn,45,514,A,35.47823068415951,55.05756106162266,1.7739115342079756,0.864842146778826,B,5450,Incorrect
2,relearn,45,515,B,51.430510275669405,21.77492062385336,2.5715255137834703,0.342039653321993,A,662,Correct
2,relearn,45,516,A,16.652603179271402,40.75506023902229,0.8326301589635702,0.6401789892176096,A,656,Correct
2,relearn,45,517,B,83.70213601373946,54.85522813377874,4.185106800686973,0.861663908580357,A,944,Correct
2,relearn,45,518,B,32.597799372490186,13.77198755140757,1.6298899686245094,0.2163298745841605,A,577,Incorrect
2,relearn,45,519,B,60.46531246520886,52.68253866228965,3.023265623260443,0.827535382169547,A,6648,Correct
2,relearn,45,520,A,67.02128643737124,89.00644880000094,3.3510643218685625,1.3981100283609948,A,366,Incorrect
2,relearn,45,521,B,70.17442967914094,52.626934360556916,3.508721483957047,0.8266619518403894,B,544,Correct
2,relearn,45,522,A,48.586170292527285,63.367958188160145,2.4293085146263644,0.9953815595845453,A,655,Correct
2,relearn,45,523,A,36.939765660187106,47.73682619772944,1.8469882830093554,0.7498483124423979,A,1030,Incorrect
2,relearn,45,524,A,66.41425832233028,78.10475969727216,3.320712916116514,1.2268666963767318,B,883,Correct
2,relearn,45,525,A,67.8006991184103,89.92715370785852,3.3900349559205147,1.4125724272342421,A,2245,Correct
2,relearn,45,526,A,43.36847039011372,52.14435475133519,2.168423519505686,0.8190816090648734,A,388,Correct
2,relearn,45,527,A,38.327118336056685,61.54244060496602,1.9163559168028343,0.9667063964427373,A,370,Incorrect
2,relearn,45,528,A,59.11431221810746,67.50355282481732,2.9557156109053726,1.060343328228283,B,625,Correct
2,relearn,45,529,A,55.86693012844009,80.19119298702759,2.793346506422005,1.259640313853236,A,2655,Incorrect
2,relearn,45,530,B,56.57538727751384,45.746100561383976,2.828769363875692,0.718578067270119,A,341,Correct
2,relearn,45,531,B,64.74646937029952,40.677058779674354,3.237323468514976,0.6389537451593258,A,414,Correct
2,relearn,45,532,A,55.68307147091354,82.63948289994777,2.7841535735456766,1.2980979618746764,A,323,Correct
2,relearn,45,533,B,85.07639210264423,61.48018965923477,4.253819605132212,0.9657285608737955,B,7291,Incorrect
2,relearn,45,534,A,47.250494566972336,53.85855376679427,2.362524728348617,0.8460081842336589,A,237,Incorrect
2,relearn,45,535,B,83.41484528463975,54.03124137328396,4.170742264231987,0.848720754813229,A,508,Incorrect
2,relearn,45,536,A,34.37241018295869,44.575754134661786,1.7186205091479343,0.7001943085883917,A,444,Incorrect
2,relearn,45,537,A,42.27823975901784,52.148887915765584,2.113911987950892,0.8191528158452335,B,37,Incorrect
2,relearn,45,538,A,24.003996756754233,35.35324178331274,1.2001998378377117,0.5553274233351951,A,437,Correct
2,relearn,45,539,B,41.61849128057303,32.84532964804119,2.080924564028652,0.5159332316351061,A,303,Correct
2,relearn,45,540,B,69.12689420528095,45.97878511158719,3.4563447102640477,0.7222330676377303,A,458,Correct
2,relearn,45,541,B,80.89928144327746,54.59741791972942,4.044964072163873,0.8576142352079684,A,354,Incorrect
2,relearn,45,542,B,58.52038441707656,29.929547682691343,2.926019220853828,0.47013223562604267,A,320,Correct
2,relearn,45,543,A,37.17445798375813,46.83594655968134,1.8587228991879068,0.7356973281790952,A,311,Correct
2,relearn,45,544,A,49.32180456009216,60.59065699824727,2.4660902280046084,0.9517558145093631,A,333,Incorrect
2,relearn,45,545,B,73.4385950757129,45.00606599902309,3.671929753785645,0.7069536315475415,100,750,Incorrect
2,relearn,45,546,B,60.27422498876507,31.897934076431465,3.0137112494382534,0.5010515767960431,B,336,Incorrect
2,relearn,45,547,B,57.72392344313967,25.946590478636672,2.8861961721569833,0.4075680901669393,A,367,Correct
2,relearn,45,548,B,47.14178993194069,19.63585782857216,2.357089496597035,0.3084393335058796,A,420,Incorrect
2,relearn,45,549,B,75.09773540346427,62.117082088122245,3.7548867701732136,0.9757328437523948,A,371,Correct
2,relearn,45,550,A,43.68873089896513,72.03159590265568,2.1844365449482566,1.1314696625706586,A,318,Correct
2,relearn,45,551,A,34.26432944610451,54.52064985547452,1.7132164723052257,0.8564083652745007,A,383,Correct
2,relearn,45,552,A,40.2030206163529,52.791396893762304,2.010151030817645,0.8292453232709333,A,445,Correct
2,relearn,45,553,B,41.6043467652064,31.421106756419938,2.08021733826032,0.49356159076814743,A,397,Incorrect
2,relearn,45,554,B,54.01120652891605,39.063036474808264,2.7005603264458022,0.6136007420808388,A,418,Correct
2,relearn,45,555,B,64.43853097932201,39.96520846888275,3.221926548966101,0.6277720266251332,A,355,Incorrect
2,relearn,45,556,A,13.535733988871257,33.32462568428801,0.6767866994435628,0.5234619961669447,B,353,Incorrect
2,relearn,45,557,A,31.791181125024078,58.97513415268392,1.5895590562512039,0.9263792409927215,A,894,Incorrect
2,relearn,45,558,B,77.79646472499508,49.741161597281305,3.889823236249754,0.7813323392752085,A,529,Incorrect
2,relearn,45,559,B,76.30287834110923,43.923876870963554,3.8151439170554617,0.6899546444750085,B,1854,Incorrect
2,relearn,45,560,B,81.42812992211242,56.58565402490563,4.071406496105621,0.8888453749160863,A,369,Correct
2,relearn,45,561,B,74.82637861822771,43.12613286990873,3.741318930911385,0.6774237110092128,A,483,Correct
2,relearn,45,562,A,17.920611314335023,47.84759170097812,0.8960305657167511,0.7515882128987841,A,474,Correct
2,relearn,45,563,B,67.33659481907402,38.909425824481524,3.366829740953701,0.6111878316279407,A,436,Incorrect
2,relearn,45,564,A,46.419164783045645,57.357444098265944,2.320958239152282,0.9009686250389976,B,445,Incorrect
2,relearn,45,565,B,64.9445806404225,44.0503498968797,3.247229032021125,0.6919412781204859,A,433,Incorrect
2,relearn,45,566,B,40.47537422908888,30.96623845521249,2.023768711454444,0.48641653620102654,B,941,Incorrect
2,relearn,45,567,A,32.98548377752039,50.61705532564154,1.6492741888760196,0.7950908457869179,A,355,Correct
2,relearn,45,568,A,52.54988497141511,62.94552381030172,2.6274942485707555,0.9887459758940266,A,511,Incorrect
2,relearn,45,569,B,58.62478904033481,43.72785308827011,2.9312394520167406,0.6868755100968156,A,515,Correct
2,relearn,45,570,A,45.92292206482897,65.18080259163483,2.2961461032414485,1.0238576528848327,A,367,Incorrect
2,relearn,45,571,B,79.47332290957893,60.81680717412324,3.9736661454789464,0.955308173165063,A,642,Incorrect
2,relearn,45,572,A,53.01856868234832,80.71462855150894,2.6509284341174157,1.2678624204732472,B,698,Correct
2,relearn,45,573,A,68.941387277738,86.7887251659948,3.4470693638869,1.3632741069795644,B,454,Correct
2,relearn,45,574,A,42.364711851695155,68.32651833091882,2.1182355925847576,1.0732704401689144,B,449,Correct
2,relearn,45,575,B,55.203291715917906,36.904895380110766,2.7601645857958954,0.5797007410382794,B,373,Correct
2,relearn,45,576,A,56.741640390299274,84.90792512462886,2.837082019514964,1.3337305690154313,B,620,Correct
2,relearn,45,577,B,45.259966378212034,31.947400030736137,2.2629983189106015,0.5018285861892748,A,624,Incorrect
2,relearn,45,578,A,33.92256983907623,54.34251442814277,1.6961284919538115,0.8536102205252533,B,722,Incorrect
2,relearn,45,579,A,44.04091540395357,59.27059603374936,2.2020457701976786,0.9310203453675767,A,584,Correct
2,relearn,45,580,A,56.572287541055005,84.23394654251682,2.8286143770527503,1.323143738204231,A,1097,Correct
2,relearn,45,581,A,23.07413138579542,36.24852177143306,1.153706569289771,0.5693904485031188,A,1085,Correct
2,relearn,45,582,A,20.949748042887,35.5484466002592,1.0474874021443499,0.5583936934295168,B,705,Incorrect
2,relearn,45,583,B,48.545219897348424,19.926968637539098,2.4272609948674213,0.3130120914000352,A,744,Correct
2,relearn,45,584,B,39.75205055089826,23.504079644201568,1.9876025275449132,0.3692012196980652,A,677,Incorrect
2,relearn,45,585,B,70.42087095272815,58.6682429901733,3.5210435476364075,0.9215586058847466,B,708,Correct
2,relearn,45,586,A,11.481794982407791,33.64532588507475,0.5740897491203896,0.5284995431409266,A,527,Correct
2,relearn,45,587,A,23.237162823215943,40.343281874181486,1.161858141160797,0.6337107897881541,B,1042,Incorrect
2,relearn,45,588,B,63.97649968750874,48.26661292173476,3.198824984375437,0.7581701828429205,A,536,Correct
2,relearn,45,589,B,48.84443773912841,25.250035948976766,2.4422218869564203,0.3966266372009179,A,2437,Incorrect
2,relearn,45,590,A,55.92077537611819,84.95597440301039,2.79603876880591,1.3344853253152997,B,407,Correct
2,relearn,45,591,B,50.328757925323686,21.262690526632852,2.516437896266184,0.3339935617701153,A,475,Incorrect
2,relearn,45,592,B,73.29424924517781,54.558044376851285,3.6647124622588905,0.8569957570427096,B,1487,Incorrect
2,relearn,45,593,A,48.0781624403265,69.67802234521398,2.403908122016325,1.0944998155819485,A,435,Correct
2,relearn,45,594,B,64.40436845362366,42.14135118946645,3.220218422681183,0.6619547965458764,A,576,Incorrect
2,relearn,45,595,A,59.68667156674214,84.59865356362897,2.984333578337107,1.3288725426954238,B,442,Correct
2,relearn,45,596,B,81.31790717639802,60.30379605325451,4.065895358819901,0.9472498133224075,B,560,Correct
2,relearn,45,597,A,41.66571390425527,63.28991116932822,2.0832856952127634,0.9941555998795606,B,618,Incorrect
2,relearn,45,598,B,80.2379898095444,64.4787630556794,4.01189949047722,1.0128300416413967,A,435,Correct
2,relearn,45,599,A,30.722207168256382,43.50961801750381,1.536110358412819,0.6834474816214404,A,545,Incorrect
2,relearn,45,600,A,18.22686181693714,46.910581748321135,0.9113430908468572,0.7368696949807456,A,657,Correct
2,relearn,45,601,B,38.52726860580681,12.175047785173174,1.9263634302903403,0.19124520339502363,A,1167,Incorrect
2,relearn,45,602,A,30.339436979019872,50.421134786087244,1.5169718489509936,0.7920133331481622,B,1115,Incorrect
2,relearn,45,603,B,40.036382124448934,17.92217827956321,2.001819106222447,0.2815209180970117,B,821,Correct
2,relearn,45,604,A,52.3648441009977,67.59671770855832,2.618242205049885,1.0618067587999493,A,680,Correct
2,relearn,45,605,B,64.77210416043582,56.853546766612595,3.2386052080217906,0.8930534242625693,B,1141,Correct
2,relearn,45,606,B,83.68022871812883,59.20339174055328,4.1840114359064415,0.9299647027986042,B,1059,Correct
2,relearn,45,607,A,14.790263230374766,36.20644610237427,0.7395131615187382,0.5687295254390691,A,891,Correct
2,relearn,45,608,A,55.530433522549096,76.36998545361848,2.7765216761274547,1.199616926279236,A,1027,Correct
2,relearn,45,609,A,47.14768504164546,68.15900572070775,2.357384252082273,1.0706391582408008,A,687,Correct
2,relearn,45,610,A,34.47135731707928,47.393120861183895,1.7235678658539642,0.7444494016409425,A,689,Correct
2,relearn,45,611,B,42.11523797697687,32.34203878462412,2.1057618988488436,0.5080275572394566,A,577,Incorrect
2,relearn,45,612,A,57.94859115492444,83.46612897818702,2.897429557746222,1.3110828881072523,A,584,Correct
2,relearn,45,613,B,80.70505853351663,61.342218440172964,4.035252926675832,0.9635613140327387,B,1406,Correct
2,relearn,45,614,B,69.94768476910286,41.32884336593701,3.497384238455143,0.6491919534989549,B,808,Correct
2,relearn,45,615,A,29.40032438998028,39.825769048151344,1.4700162194990138,0.6255817173261802,B,917,Incorrect
2,relearn,45,616,B,45.56482975883624,19.20044183705054,2.2782414879418122,0.3015998351047805,B,1427,Correct
2,relearn,45,617,A,23.92508786959285,55.99140199241036,1.1962543934796426,0.8795108858177465,A,660,Correct
2,relearn,45,618,B,65.28556693765108,34.10545297112377,3.2642783468825542,0.5357272025071731,A,629,Incorrect
2,relearn,45,619,B,42.67234732516952,16.560710562206673,2.1336173662584756,0.2601350332022769,B,1141,Correct
2,relearn,45,620,A,55.68720470222198,84.49160290000208,2.784360235111099,1.327190994803363,A,701,Correct
2,relearn,45,621,A,64.70305102000303,89.48119702948233,3.2351525510001515,1.4055673561112125,A,1200,Correct
2,relearn,45,622,A,68.61537681616812,86.69545921783529,3.430768840808406,1.3618090888917245,A,598,Correct
2,relearn,45,623,A,32.631253907276395,48.06361842297222,1.6315626953638198,0.7549815527127627,A,1111,Correct
2,relearn,45,624,A,47.34396894265329,67.19590202028039,2.367198447132665,1.055510760691262,A,1382,Correct
2,relearn,45,625,B,66.49982539925107,57.03297503370643,3.324991269962553,0.895871876891311,A,1013,Incorrect
2,relearn,45,626,A,17.63982550782316,48.43855224984774,0.8819912753911581,0.760870999493235,A,587,Correct
2,relearn,45,627,A,49.26115998501961,62.61506614959627,2.4630579992509807,0.9835551590980529,A,602,Correct
2,relearn,45,628,A,20.924330539302428,47.23469787276149,1.0462165269651214,0.7419608991580046,B,625,Incorrect
2,relearn,45,629,B,51.371749694307375,44.44246692228856,2.568587484715369,0.6981006379523457,A,883,Incorrect
2,relearn,45,630,A,42.80719933858739,69.94099851538904,2.1403599669293696,1.0986306356034041,A,484,Correct
2,relearn,45,631,B,78.64857964510838,58.55545823341091,3.932428982255419,0.9197869870683385,A,519,Incorrect
2,relearn,45,632,B,83.69309954509441,57.66978874617851,4.184654977254721,0.9058749232953487,B,518,Correct
2,relearn,45,633,A,63.15944857857296,84.32344764894037,3.157972428928648,1.3245496182963732,A,757,Correct
2,relearn,45,634,A,65.26559103935223,88.3297574735976,3.2632795519676114,1.3874805858621115,A,478,Correct
2,relearn,45,635,B,76.8537632604172,52.86880348365636,3.8426881630208594,0.8304612231416862,A,519,Incorrect
2,relearn,45,636,A,58.70467582786339,77.39129460580408,2.9352337913931694,1.2156596129269874,A,457,Correct
2,relearn,45,637,A,45.80317686882091,59.60362184363334,2.290158843441046,0.9362515025565132,A,472,Correct
2,relearn,45,638,A,48.36555102449759,62.704387837678354,2.4182775512248798,0.9849582208934774,A,539,Correct
2,relearn,45,639,B,61.64475832929672,42.67143705512783,3.082237916464836,0.6702813658525445,A,861,Incorrect
2,relearn,45,640,B,63.66160699424534,41.76536953910835,3.1830803497122666,0.6560488905926286,A,492,Incorrect
2,relearn,45,641,A,30.70916897031823,56.25674042252586,1.5354584485159115,0.8836788121315758,A,927,Correct
2,relearn,45,642,A,48.86263477307116,72.99550285927086,2.443131738653558,1.1466106776388905,A,591,Correct
2,relearn,45,643,B,51.322779969696924,27.070262273128304,2.566138998484846,0.42521868544004404,A,548,Incorrect
2,relearn,45,644,A,58.84812804073243,72.59225400784923,2.942406402036622,1.140276459492917,B,568,Incorrect
2,relearn,45,645,B,86.60415390388103,63.18988501303254,4.330207695194051,0.9925843926906339,A,945,Incorrect
2,relearn,45,646,A,47.05896774823178,54.16941293717961,2.352948387411589,0.8508911486635767,A,435,Correct
2,relearn,45,647,A,38.641829494025,50.213401900049945,1.9320914747012496,0.7887502726047434,A,531,Correct
2,relearn,45,648,B,61.76605575099624,36.828609648290154,3.0883027875498117,0.5785024475649726,A,412,Incorrect
2,relearn,45,649,A,21.005764837078853,44.1849303340815,1.0502882418539428,0.6940552626846362,A,430,Correct
2,relearn,45,650,A,31.66229721440495,46.99158787531488,1.5831148607202477,0.7381421362480423,A,395,Correct
2,relearn,45,651,B,75.92523766814202,49.49251801775398,3.7962618834071007,0.7774266550611819,A,510,Incorrect
2,relearn,45,652,B,45.509468086605395,22.821507757923683,2.27547340433027,0.35847940558067753,A,423,Incorrect
2,relearn,45,653,A,49.65688020760944,73.84339571292003,2.482844010380472,1.159929347439168,B,339,Incorrect
2,relearn,45,654,A,43.62591398140641,56.27563710883008,2.1812956990703207,0.8839756405859286,A,467,Correct
2,relearn,45,655,B,72.86816060577512,55.284488004911594,3.643408030288756,0.8684067068685165,A,390,Incorrect
2,relearn,45,656,A,21.980440100899372,51.77430264442742,1.0990220050449686,0.813268844162339,A,347,Correct
2,relearn,45,657,A,13.850804312296667,32.494352833070884,0.6925402156148334,0.5104201007176509,A,534,Correct
2,relearn,45,658,B,57.50551955048791,47.207196280544245,2.8752759775243955,0.741528905157646,A,736,Incorrect
2,relearn,45,659,B,74.87149955757711,47.85834570033321,3.743574977878856,0.7517571363256373,A,587,Incorrect
2,relearn,45,660,A,56.560072480927104,71.314263454679,2.828003624046355,1.1202018308269328,B,385,Incorrect
2,relearn,45,661,B,59.88618232560922,39.30545556457734,2.9943091162804607,0.6174086522383812,A,520,Incorrect
2,relearn,45,662,B,77.34087505908248,61.63316993537211,3.8670437529541237,0.9681315694320816,A,606,Incorrect
2,relearn,45,663,B,63.47731601477868,39.147326009483294,3.173865800738934,0.6149247589953867,A,537,Incorrect
2,relearn,45,664,B,81.82650619206515,61.64309067934391,4.091325309603258,0.9682874041139815,B,409,Correct
2,relearn,45,665,A,39.046091957837255,51.90143218334026,1.952304597891863,0.815265790289853,B,413,Incorrect
2,relearn,45,666,A,30.319655738327683,52.02201204768063,1.5159827869163842,0.8171598543697658,A,568,Correct
2,relearn,45,667,A,58.951543560348696,85.45357375087085,2.9475771780174345,1.342301597593647,A,466,Correct
2,relearn,45,668,A,22.97191729481088,50.682695305710006,1.1485958647405439,0.7961219161827422,A,409,Correct
2,relearn,45,669,B,59.01545597297808,33.14593560051757,2.950772798648904,0.5206551388947319,A,456,Incorrect
2,relearn,45,670,B,44.80024457095379,23.780391844822372,2.2400122285476893,0.373541521595903,B,732,Correct
2,relearn,45,671,A,54.204265197748796,76.34180342834836,2.7102132598874396,1.1991742440614763,B,608,Incorrect
2,relearn,45,672,B,39.88541047872104,16.110351071470536,1.994270523936052,0.25306080286442145,A,353,Incorrect
2,relearn,45,673,B,47.709490075617325,24.350971666088157,2.3854745037808662,0.3825041684697788,A,585,Incorrect
2,relearn,45,674,A,42.82713487134138,58.62041998804126,2.141356743567069,0.9208074039238934,A,414,Correct
2,relearn,45,675,B,64.79246052480514,50.79358976970519,3.239623026240257,0.7978638423497973,A,392,Incorrect
2,relearn,45,676,A,52.63618590644566,66.59103844440682,2.631809295322283,1.0460095858593197,A,267,Correct
2,relearn,45,677,B,45.522409019209015,25.199684596850844,2.276120450960451,0.39583572001123235,A,433,Incorrect
2,relearn,45,678,B,82.51502280561209,65.48275323376227,4.125751140280604,1.0286006824801042,B,1603,Correct
2,relearn,45,679,A,17.83885027316913,47.31686215552792,0.8919425136584564,0.7432515326936371,A,543,Correct
2,relearn,45,680,B,41.2159874220806,13.864331046723244,2.0607993711040304,0.21778040281661315,A,391,Incorrect
2,relearn,45,681,A,30.20320451489271,39.35969529039407,1.5101602257446356,0.6182606478591739,B,571,Incorrect
2,relearn,45,682,B,67.45720291225044,58.06641766739885,3.372860145612522,0.9121051558208841,A,412,Incorrect
2,relearn,45,683,A,46.0484240675622,64.20910811520694,2.30242120337811,1.0085943117414344,A,872,Correct
2,relearn,45,684,B,73.73644871197614,63.59270256302335,3.686822435598807,0.9989118359695749,A,438,Incorrect
2,relearn,45,685,B,89.49036515343059,68.51894763845354,4.47451825767153,1.0762931126633468,A,137,Incorrect
2,relearn,45,686,A,41.2181371686284,70.93192340519171,2.0609068584314203,1.114196047373721,A,296,Correct
2,relearn,45,687,A,45.05794441261771,72.02538230647177,2.2528972206308855,1.1313720596300398,A,397,Correct
2,relearn,45,688,B,37.8726100827317,17.755535316712518,1.8936305041365846,0.27890329655769086,B,441,Correct
2,relearn,45,689,B,65.70524261413505,48.95900945807063,3.2852621307067524,0.7690463222025395,A,654,Incorrect
2,relearn,45,690,A,56.01594163489081,80.06152845908052,2.8007970817445402,1.2576035482110874,A,561,Correct
2,relearn,45,691,A,32.75943245945429,44.17853201503006,1.6379716229727144,0.6939547581239995,B,761,Incorrect
2,relearn,45,692,B,53.28246772672401,21.36558207812866,2.6641233863362004,0.33560977848159373,100,454,Incorrect
2,relearn,45,693,A,19.31023973032235,50.19028977744293,0.9655119865161176,0.788387228231788,B,507,Incorrect
2,relearn,45,694,B,69.58912753504096,47.74755174818084,3.479456376752048,0.7500167889949171,A,490,Incorrect
2,relearn,45,695,B,85.89264470419388,60.97431446055792,4.294632235209694,0.9577822918348133,A,3374,Incorrect
2,relearn,45,696,A,64.00377167993662,82.1011732945162,3.200188583996831,1.289642214365773,B,702,Incorrect
2,relearn,45,697,A,60.58790627202821,70.84686096690459,3.0293953136014107,1.1128598897176247,A,413,Correct
2,relearn,45,698,B,50.66420794885095,41.42040329538452,2.5332103974425477,0.6506301735075323,A,361,Incorrect
2,relearn,45,699,B,84.66839427841808,59.771622475909425,4.233419713920904,0.9388904503172981,B,450,Correct
2,relearn,45,700,B,80.76734968529341,49.97634345849274,4.038367484264671,0.7850265673124055,B,552,Correct
2,relearn,45,701,A,35.80394434633855,46.18025576290019,1.7901972173169272,0.7253977612281247,B,398,Incorrect
2,relearn,45,702,B,42.004290737466704,15.589330384870106,2.1002145368733354,0.24487662905746035,A,486,Incorrect
2,relearn,45,703,B,68.60699816534853,59.675568356312084,3.4303499082674263,0.9373816357349279,A,381,Incorrect
2,relearn,45,704,A,69.73708001412302,86.02306658946452,3.4868540007061513,1.3512471701836368,B,553,Incorrect
2,relearn,45,705,B,78.96613563904268,56.21325934739005,3.9483067819521342,0.8829958130004918,A,552,Incorrect
2,relearn,45,706,B,63.92773600969173,52.08296154915313,3.1963868004845866,0.8181172469000957,A,572,Incorrect
2,relearn,45,707,A,28.69199136795237,42.28426340416962,1.4345995683976185,0.6641996563649751,B,518,Incorrect
2,relearn,45,708,B,50.46671041151373,29.68307976554025,2.5233355205756864,0.4662607266367054,A,338,Incorrect
2,relearn,45,709,A,18.673412040852437,34.92070030167679,0.9336706020426219,0.5485330776297934,B,521,Incorrect
2,relearn,45,710,A,64.31361286532267,75.201626373709,3.2156806432661336,1.1812643847682431,A,464,Correct
2,relearn,45,711,B,48.38173225511908,23.85390333733023,2.419086612755954,0.3746962374199886,A,529,Incorrect
2,relearn,45,712,B,80.1591948686316,62.67397520627284,4.007959743431581,0.9844805003964779,B,883,Correct
2,relearn,45,713,B,65.60848123404669,54.664630934775275,3.2804240617023344,0.8586700147794366,B,777,Correct
2,relearn,45,714,B,43.5994441854347,16.414646717521542,2.179972209271735,0.25784066769518743,B,520,Correct
2,relearn,45,715,B,38.02752750684052,19.48558735016347,1.901376375342026,0.3060788903507788,B,400,Correct
2,relearn,45,716,A,57.3547691430703,78.4752983726384,2.867738457153515,1.232687104278739,A,900,Correct
2,relearn,45,717,A,52.0271931389299,73.42308543916523,2.601359656946495,1.153327129097886,A,662,Correct
2,relearn,45,718,B,74.79659572696399,46.029849313467324,3.7398297863481993,0.7230351822451706,A,518,Incorrect
2,relearn,45,719,A,65.6710360680346,87.41922671519421,3.2835518034017297,1.3731780021547737,B,346,Incorrect
2,relearn,45,720,B,71.84537922571175,40.4137337282368,3.592268961285588,0.6348174449238139,A,351,Incorrect
2,relearn,45,721,B,80.07988176559473,65.78539812367437,4.003994088279737,1.0333546172940757,A,631,Incorrect
2,relearn,45,722,B,54.12373216339491,36.40212875428547,2.706186608169746,0.571803301347465,A,525,Incorrect
2,relearn,45,723,A,33.26810838346588,58.513918054986235,1.663405419173294,0.9191344754714996,B,1279,Incorrect
2,relearn,45,724,B,48.885711944330524,40.846306724425865,2.4442855972165263,0.6416122856586584,A,493,Incorrect
2,relearn,45,725,A,56.75453308054857,68.68116187043015,2.8377266540274286,1.0788411678607737,B,693,Incorrect
2,relearn,45,726,B,46.34929053227961,29.7386438082603,2.3174645266139806,0.4671335245787708,A,682,Incorrect
2,relearn,45,727,B,41.59194630635055,13.997159370914435,2.079597315317528,0.2198668652539516,A,600,Incorrect
2,relearn,45,728,B,39.443774406264126,28.87671833185541,1.9721887203132065,0.4535944308556933,A,476,Incorrect
2,relearn,45,729,A,41.28659507684747,60.68334128441399,2.0643297538423737,0.9532116958719861,A,1339,Correct
2,relearn,45,730,A,20.03212049557349,46.93538639130361,1.0016060247786747,0.7372593254015889,A,554,Correct
2,relearn,45,731,A,61.800393902753896,81.75801872198858,3.090019695137695,1.2842519549452804,A,735,Correct
2,relearn,45,732,B,61.50664226688045,52.53433751136632,3.0753321133440226,0.8252074439345756,A,615,Incorrect
2,relearn,45,733,B,47.76300639893289,17.282024198077956,2.3881503199466443,0.2714654012992137,A,411,Incorrect
2,relearn,45,734,B,51.58005531739441,26.596773240930972,2.5790027658697205,0.4177811371145117,A,467,Incorrect
2,relearn,45,735,B,54.91540083679291,23.98949715664376,2.745770041839646,0.3768261401531264,B,480,Correct
2,relearn,45,736,A,19.57899007920783,47.091572513012935,0.9789495039603915,0.7397126912643623,B,355,Incorrect
2,relearn,45,737,B,48.452768620388696,18.46985929038513,2.422638431019435,0.29012387129755557,A,2087,Incorrect
2,relearn,45,738,B,82.53875835067346,63.87851481324493,4.126937917533673,1.0034013642975852,B,536,Correct
2,relearn,45,739,B,48.18403700968166,40.083982901406735,2.409201850484083,0.6296377310483915,B,1164,Correct
2,relearn,45,740,A,15.11048380416538,34.074050983750055,0.755524190208269,0.5352339412429662,A,690,Correct
2,relearn,45,741,B,57.52272084757571,44.35611222370058,2.8761360423787856,0.6967441815189108,A,585,Incorrect
2,relearn,45,742,A,24.196150843744093,38.5831301510572,1.2098075421872045,0.6060623911753008,B,465,Incorrect
2,relearn,45,743,B,67.88009292760799,54.719327892040454,3.3940046463803992,0.8595291925750268,A,581,Incorrect
2,relearn,45,744,B,31.820946858160678,11.304330585967403,1.5910473429080338,0.177568009613128,B,353,Correct
2,relearn,45,745,A,45.078496206413185,66.43222310319297,2.253924810320659,1.0435149203131455,B,456,Incorrect
2,relearn,45,746,A,39.5251130954989,65.88339788751031,1.9762556547749452,1.0348939939846784,A,300,Correct
2,relearn,45,747,A,64.0255867094746,88.14758055928425,3.20127933547373,1.3846189575838095,A,341,Correct
2,relearn,45,748,B,48.15872224595616,20.344601205332875,2.4079361122978082,0.3195722484344391,A,477,Incorrect
2,relearn,45,749,A,15.700719284777033,30.461964308648053,0.7850359642388517,0.478495416429816,A,392,Correct
2,relearn,45,750,A,26.092181302635005,43.58483870965652,1.3046090651317501,0.6846290454907649,A,1420,Correct
2,relearn,45,751,B,61.04784690859035,29.83012054281642,3.0523923454295177,0.46857043776505014,A,567,Incorrect
2,relearn,45,752,A,25.61781202530366,45.804885867551654,1.2808906012651828,0.7195014647000961,A,761,Correct
2,relearn,45,753,B,73.87351452292246,41.44312881198544,3.693675726146123,0.6509871450875447,A,364,Incorrect
2,relearn,45,754,B,66.17270835944763,36.21918121426393,3.308635417972381,0.568929568108845,B,2967,Correct
2,relearn,45,755,A,55.695287028690274,71.58983901011622,2.7847643514345135,1.1245305615292855,B,347,Incorrect
2,relearn,45,756,A,50.85902149676852,71.43869368416205,2.542951074838426,1.1221563763010753,A,351,Correct
2,relearn,45,757,B,74.33880557843405,57.21961594060184,3.7169402789217028,0.8988036254011209,A,440,Incorrect
2,relearn,45,758,A,67.21412500127101,89.89003168970412,3.3607062500635503,1.4119893159366408,A,1338,Correct
2,relearn,45,759,A,29.014913419988247,52.06765350228769,1.4507456709994124,0.8178767886622295,A,774,Correct
2,relearn,45,760,A,63.30161178801154,87.54125237692485,3.165080589400577,1.3750947767669857,A,425,Correct
2,relearn,45,761,B,51.87411913087065,30.191173360855323,2.5937059565435328,0.4742418421685947,A,470,Incorrect
2,relearn,45,762,B,46.338522225377545,29.799867021047167,2.3169261112688773,0.4680952165563727,A,1115,Incorrect
2,relearn,45,763,A,58.986592563365996,74.64195231312348,2.9493296281682997,1.172473045182542,B,560,Incorrect
2,relearn,45,764,B,48.80141836361874,22.521624770217354,2.4400709181809366,0.3537688546251037,A,345,Incorrect
2,relearn,45,765,A,36.19247926833868,44.36484099471257,1.809623963416934,0.6968812927333415,A,437,Correct
2,relearn,45,766,A,48.98627087677629,57.81580818031609,2.4493135438388145,0.9081685912031885,A,1367,Correct
2,relearn,45,767,B,69.66836844969626,54.0640014936382,3.483418422484813,0.8492353495804069,A,749,Incorrect
2,relearn,45,768,B,59.05761162841064,45.36075950132118,2.952880581420532,0.7125251440530201,A,1176,Incorrect
2,relearn,45,769,A,55.304027020695884,70.7689934127127,2.7652013510347944,1.1116367490366135,B,567,Incorrect
2,relearn,45,770,B,57.93507168556073,32.32848629485463,2.8967535842780365,0.5078146752279681,A,457,Incorrect
2,relearn,45,771,A,23.91917400479688,36.09946677614714,1.195958700239844,0.5670490981122633,B,309,Incorrect
2,relearn,45,772,B,54.73281167657733,27.438161861259985,2.7366405838288665,0.4309976386567101,A,92,Incorrect
2,relearn,45,773,A,51.29575429414308,70.89546191601058,2.564787714707154,1.1136233116409688,A,223,Correct
2,relearn,45,774,B,87.15051615844735,65.82243822013942,4.357525807922367,1.03393644176879,A,409,Incorrect
2,relearn,45,775,A,48.66382996858122,80.02401654431857,2.433191498429061,1.2570143124318964,A,356,Correct
2,relearn,45,776,A,30.046752538619558,61.30150479139743,1.5023376269309778,0.9629217855332683,A,486,Correct
2,relearn,45,777,B,44.87268505734604,33.8160883901569,2.243634252867302,0.5311818742983,A,458,Incorrect
2,relearn,45,778,B,70.59239039716844,39.66435443354619,3.5296195198584224,0.6230462224890522,B,517,Correct
2,relearn,45,779,A,29.559246535054477,38.36868655057736,1.477962326752724,0.6026939189759166,A,489,Correct
2,relearn,45,780,B,73.18459138942067,58.855382743081215,3.6592295694710337,0.9244981902493971,A,392,Incorrect
2,relearn,45,781,A,18.47151231927046,36.66273274217116,0.923575615963523,0.5758968592166543,A,412,Correct
2,relearn,45,782,B,41.56809330472927,33.234596057772784,2.0784046652364636,0.5220478141006164,A,453,Incorrect
2,relearn,45,783,A,32.77477298401342,54.157508258168534,1.638738649200671,0.850704150402954,B,939,Incorrect
2,relearn,45,784,B,39.52010209073191,18.419408319529595,1.9760051045365956,0.28933138930052443,A,798,Incorrect
2,relearn,45,785,A,35.95858077474825,51.863483172780754,1.7979290387374123,0.8146696886259294,A,318,Correct
2,relearn,45,786,A,13.567000727137867,41.36840065911184,0.6783500363568933,0.6498133180071246,A,2054,Correct
2,relearn,45,787,B,77.73120900058734,55.771917165290816,3.886560450029367,0.8760632262154806,A,502,Incorrect
2,relearn,45,788,A,30.499237382791478,40.14446999803333,1.5249618691395739,0.6305878601403868,A,280,Correct
2,relearn,45,789,A,21.562136047179266,52.51671999600355,1.0781068023589633,0.8249307086503848,A,419,Correct
2,relearn,45,790,B,67.4060150826117,49.74494388979221,3.370300754130585,0.7813917513870384,A,560,Incorrect
2,relearn,45,791,B,60.31520446253635,45.002993253625,3.0157602231268172,0.7069053649756967,A,369,Incorrect
2,relearn,45,792,A,31.567809632974527,43.924039577423805,1.5783904816487262,0.6899572002621097,A,603,Correct
2,relearn,45,793,A,54.611569087387856,77.19759895270833,2.7305784543693927,1.212617048722998,A,393,Correct
2,relearn,45,794,B,86.82667033031292,62.98121371852008,4.341333516515646,0.989306591661357,A,566,Incorrect
2,relearn,45,795,A,14.873588203750401,41.87752554381487,0.74367941018752,0.6578106329948384,A,365,Correct
2,relearn,45,796,B,48.47982409217791,32.58148729311108,2.4239912046088956,0.5117888056153348,A,584,Incorrect
2,relearn,45,797,B,61.64912391131115,44.94165141066979,3.0824561955655576,0.7059418095597679,A,424,Incorrect
2,relearn,45,798,A,51.990794216323216,66.45386857832031,2.599539710816161,1.0438549266413635,A,457,Correct
2,relearn,45,799,A,19.329660164066112,48.1241772619713,0.9664830082033056,0.7559328087313101,A,621,Correct
2,relearn,45,800,B,63.232384497003245,36.570713226881765,3.1616192248501624,0.5744514200505542,A,581,Incorrect
2,relearn,45,801,B,54.34510371324211,24.036255179133953,2.7172551856621054,0.3775606134528842,A,449,Incorrect
2,relearn,45,802,A,28.982298085098353,51.448597889430715,1.4491149042549176,0.8081526858346544,B,449,Incorrect
2,relearn,45,803,B,58.25525714154901,37.095054794818104,2.9127628570774506,0.5826877581395569,A,534,Incorrect
2,relearn,45,804,A,37.19402069211538,70.42439550916201,1.859701034605769,1.106223817825427,A,347,Correct
2,relearn,45,805,B,71.27319220652173,43.321640226497365,3.5636596103260865,0.6804947333851209,A,605,Incorrect
2,relearn,45,806,B,49.06442099897472,31.270754346896872,2.453221049948736,0.49119986064211146,A,421,Incorrect
2,relearn,45,807,A,56.86875730704197,68.62090184587407,2.8434378653520986,1.0778946056085212,A,443,Correct
2,relearn,45,808,B,53.5224202226421,42.17875303123314,2.6761210111321048,0.6625423033025013,A,564,Incorrect
2,relearn,45,809,B,85.58861808688218,67.36471565903449,4.279430904344109,1.0581624791279403,A,306,Incorrect
2,relearn,45,810,B,68.05376288713786,56.23102750688953,3.402688144356893,0.8832749145972487,A,632,Incorrect
2,relearn,45,811,A,37.55218735916799,67.8668523433274,1.8776093679583994,1.066050023720303,A,389,Correct
2,relearn,45,812,B,81.74671716232244,61.689331583527434,4.0873358581161225,0.969013754538373,A,587,Incorrect
2,relearn,45,813,A,17.1357823704611,44.74700382196597,0.8567891185230551,0.7028842923862134,A,321,Correct
2,relearn,45,814,B,80.97158222754958,57.20855081929203,4.048579111377479,0.8986298148820309,A,503,Incorrect
2,relearn,45,815,A,46.19153524269445,56.202072741558894,2.3095767621347223,0.8828200942070029,A,450,Correct
2,relearn,45,816,B,68.33582712225707,57.252159401648946,3.4167913561128533,0.8993148168918607,A,459,Incorrect
2,relearn,45,817,A,60.472642135469314,82.59065171744822,3.0236321067734657,1.2973309234536428,B,375,Incorrect
2,relearn,45,818,A,55.0473405054866,63.17362837918773,2.75236702527433,0.9923290340833393,A,431,Correct
2,relearn,45,819,A,36.902605899683266,62.68234335067899,1.8451302949841633,0.9846119469014307,A,392,Correct
2,relearn,45,820,B,45.45386318380251,30.50307778459966,2.272693159190126,0.4791412253998816,A,417,Incorrect
2,relearn,45,821,A,28.24234987959777,54.30924177391414,1.4121174939798886,0.8530875748948028,A,1393,Correct
2,relearn,45,822,A,52.61039276688603,63.37390952115515,2.6305196383443015,0.9954750429046263,A,423,Correct
2,relearn,45,823,A,16.18709909010594,44.86755500395143,0.8093549545052968,0.7047779059247489,A,366,Correct
2,relearn,45,824,B,71.47516726655755,56.85668705281796,3.5737583633278773,0.893102751762934,A,497,Incorrect
2,relearn,45,825,A,45.26161776172726,76.90776267708647,2.2630808880863627,1.2080643111518106,A,408,Correct
2,relearn,45,826,B,38.22221274187978,28.521511724133113,1.911110637093989,0.4480148585090587,A,568,Incorrect
2,relearn,45,827,B,68.92175458608256,39.73163521938736,3.4460877293041277,0.624103066601684,A,724,Incorrect
2,relearn,45,828,B,44.97742386737101,37.06355682134193,2.2488711933685503,0.5821929891291784,A,436,Incorrect
2,relearn,45,829,A,13.63848156268207,41.632256068251436,0.6819240781341036,0.6539579490819389,A,423,Correct
2,relearn,45,830,A,28.07893078177642,43.899045233781024,1.403946539088821,0.6895645900302625,A,1697,Correct
2,relearn,45,831,B,82.23392358488555,65.7099245225412,4.111696179244277,1.0321690807397763,A,427,Incorrect
2,relearn,45,832,B,43.873939936467025,25.399766060885554,2.193696996823351,0.3989785922988871,A,522,Incorrect
2,relearn,45,833,A,25.05647543230677,40.4945539781118,1.2528237716153385,0.6360869664401568,B,1242,Incorrect
2,relearn,45,834,A,40.735281016460846,51.48166873847647,2.0367640508230425,0.8086721615167048,A,505,Correct
2,relearn,45,835,A,48.21908524152389,57.26463145702833,2.4109542620761943,0.8995107274796358,A,559,Correct
2,relearn,45,836,B,74.50010381413215,59.037275461306066,3.7250051907066073,0.9273553543859805,A,611,Incorrect
2,relearn,45,837,A,59.10007451820974,73.41324610785206,2.955003725910487,1.1531725732430376,A,613,Correct
2,relearn,45,838,A,60.38015655760964,73.62043876496881,3.019007827880482,1.156427147890416,A,1874,Correct
2,relearn,45,839,A,57.6566706494813,68.70387961645969,2.8828335324740646,1.0791980173809363,A,617,Correct
2,relearn,45,840,B,70.44933810517222,58.93851670688137,3.522466905258611,0.9258040554990891,A,358,Incorrect
2,relearn,45,841,B,74.2237368076476,42.12870046004729,3.71118684038238,0.6617560793528475,A,601,Incorrect
2,relearn,45,842,A,53.646198949849364,63.69012380287496,2.682309947492468,1.000442125226682,A,1168,Correct
2,relearn,45,843,B,76.35849506401705,45.2288359594332,3.8179247532008525,0.7104528939028659,B,1856,Correct
2,relearn,45,844,A,14.137312879191956,32.424303361929915,0.7068656439595977,0.5093197661980292,A,581,Correct
2,relearn,45,845,A,50.00812445519041,79.50460524260008,2.5004062227595205,1.2488554187835448,A,2361,Correct
2,relearn,45,846,A,32.72534988763924,42.87424104436093,1.6362674943819622,0.6734670034660114,A,441,Correct
2,relearn,45,847,A,47.78720987000974,60.08506279987603,2.389360493500487,0.9438139594128595,A,322,Correct
2,relearn,45,848,A,20.67419145031535,35.77737670828188,1.0337095725157674,0.5619897191572647,A,532,Correct
2,relearn,45,849,B,57.81297923904032,30.610608073929455,2.890648961952016,0.480830307234866,A,405,Incorrect
2,relearn,45,850,A,28.151005854719045,60.40501307754186,1.4075502927359522,0.9488397266220044,B,491,Incorrect
2,relearn,45,851,A,44.59198198669563,55.872257287471285,2.2295990993347816,0.8776393651689929,A,415,Correct
2,relearn,45,852,A,16.891334137266664,40.36547425760868,0.8445667068633332,0.6340593869318567,A,367,Correct
2,relearn,45,853,A,40.8684582608383,53.53747504581608,2.043422913041915,0.8409646914784134,A,537,Correct
2,relearn,45,854,A,17.64290719861617,42.684971062380534,0.8821453599308086,0.670493957541338,A,472,Correct
2,relearn,45,855,B,81.76741967563268,67.0667251802871,4.088370983781634,1.0534816556335775,A,343,Incorrect
2,relearn,45,856,A,46.637889254933164,61.38188559380483,2.331894462746658,0.9641844042249321,A,327,Correct
2,relearn,45,857,A,19.02486406055686,43.421383150152394,0.9512432030278432,0.6820614915661319,A,499,Correct
2,relearn,45,858,B,89.65080928376037,65.4070184096716,4.482540464188019,1.0274110426451832,A,522,Incorrect
2,relearn,45,859,A,36.567218414589775,58.21581055427615,1.8283609207294886,0.9144518138004456,A,515,Correct
2,relearn,45,860,B,52.866318863705246,25.850756376671235,2.6433159431852626,0.40606273161344925,A,451,Incorrect
2,relearn,45,861,B,53.92134901872275,43.6223750797497,2.6960674509361375,0.6852186654134006,A,434,Incorrect
2,relearn,45,862,A,40.848564301576836,55.8581621583813,2.0424282150788415,0.8774179593989904,A,412,Correct
2,relearn,45,863,B,69.4367038092452,41.44441870472449,3.47183519046226,0.6510074066753094,A,395,Incorrect
2,relearn,45,864,B,52.844672083733755,43.61212486317291,2.642233604186688,0.6850576553879238,A,438,Incorrect
2,relearn,45,865,B,60.84125604619258,39.51299416333725,3.0420628023096294,0.6206686609243833,A,337,Incorrect
2,relearn,45,866,B,63.24993013831595,53.66454235760526,3.1624965069157973,0.8429606601445546,A,415,Incorrect
2,relearn,45,867,B,68.61548440864165,41.822346629078204,3.4307742204320824,0.6569438846289898,B,499,Correct
2,relearn,45,868,B,56.80251640430646,45.86591761702271,2.840125820215323,0.720460149178966,B,471,Correct
2,relearn,45,869,A,44.26265145967311,61.4607621245451,2.2131325729836555,0.9654233938725034,B,387,Incorrect
2,relearn,45,870,A,29.47574993125447,50.631341764555614,1.4737874965627236,0.7953152566446099,A,351,Correct
2,relearn,45,871,A,42.584653946963726,72.11868347569268,2.1292326973481863,1.1328376309690187,A,452,Correct
2,relearn,45,872,B,63.03647083575651,51.87463533149001,3.1518235417878255,0.8148448663252927,A,319,Incorrect
2,relearn,45,873,A,19.54542882056191,32.89964640527521,0.9772714410280955,0.5167864372625723,B,308,Incorrect
2,relearn,45,874,B,57.13335534321282,25.735887515261894,2.8566677671606406,0.40425837575780016,A,264,Incorrect
2,relearn,45,875,A,59.86583694188106,87.02411773268432,2.993291847094053,1.3669716447706715,B,440,Incorrect
2,relearn,45,876,B,37.244324980670086,22.11870123327274,1.8622162490335044,0.3474397465069857,A,485,Incorrect
2,relearn,45,877,B,86.0363700828067,66.74936385012687,4.301818504140335,1.0484965555167534,B,479,Correct
2,relearn,45,878,B,65.29118556983939,41.312465112846226,3.2645592784919693,0.6489346845010117,A,247,Incorrect
2,relearn,45,879,A,67.13405086733327,82.84467894504803,3.3567025433666635,1.3013211738138397,B,462,Incorrect
2,relearn,45,880,B,47.25867778927067,28.943587222928677,2.3629338894635334,0.4546448049404406,A,298,Incorrect
2,relearn,45,881,B,69.30062892325077,47.23596383142874,3.4650314461625387,0.7419807847902485,A,2546,Incorrect
2,relearn,45,882,B,66.78135408613386,58.24236098087878,3.3390677043066934,0.9148688669262679,B,567,Correct
2,relearn,45,883,B,49.899490563752224,32.53104970489668,2.4949745281876115,0.5109965338323391,B,430,Correct
2,relearn,45,884,B,45.90112991994795,36.098225187331145,2.2950564959973976,0.5670295952807478,B,322,Correct
2,relearn,45,885,B,70.09892622785173,45.43131012935329,3.5049463113925867,0.7136333507266793,B,556,Correct
2,relearn,45,886,B,80.97249042939714,58.24160118159943,4.048624521469857,0.9148569320270968,B,425,Correct
2,relearn,45,887,B,71.83510851499598,48.973850260792275,3.591755425749799,0.769279440986558,A,553,Incorrect
2,relearn,45,888,A,28.03865783467245,47.57937953475492,1.4019328917336225,0.747375146043733,A,539,Correct
2,relearn,45,889,B,75.95039650015849,59.03550737753775,3.7975198250079245,0.9273275813910931,B,448,Correct
2,relearn,45,890,A,43.41742964415836,73.57089086823774,2.170871482207918,1.1556488513485603,A,584,Correct
2,relearn,45,891,B,36.17351939471432,23.347948140035815,1.808675969735716,0.36674871176565993,A,552,Incorrect
2,relearn,45,892,B,41.17036782263129,26.390531438560217,2.0585183911315648,0.41454149845855626,A,629,Incorrect
2,relearn,45,893,B,63.50040573808279,32.74884642447588,3.1750202869041395,0.5144176767033689,B,655,Correct
2,relearn,45,894,B,51.82667139321129,39.52589219170357,2.5913335696605646,0.6208712626801904,B,397,Correct
2,relearn,45,895,A,18.858705619356865,46.246993798620565,0.9429352809678433,0.7264460798417955,A,701,Correct
2,relearn,45,896,A,62.2851451788748,80.55059519504064,3.11425725894374,1.265285790535125,B,564,Incorrect
2,relearn,45,897,A,21.869150247241883,45.43471602348688,1.0934575123620942,0.7136868503866243,A,447,Correct
2,relearn,45,898,A,66.05697895805886,82.78667495675559,3.302848947902943,1.3004100492963473,A,330,Correct
