experiment,condition,subject,trial,cat,x,y,xt,yt,resp,rt,fb
2,relearn,43,0,B,65.80061089770463,50.45665460626908,3.290030544885232,0.7925712771788628,B,12535,Correct
2,relearn,43,1,A,51.03893190834127,59.831929032686446,2.5519465954170637,0.9398377434959679,A,5219,Correct
2,relearn,43,2,A,47.337306308668374,76.93013199904027,2.3668653154334187,1.20841568763939,A,3064,Correct
2,relearn,43,3,A,21.424356111268317,44.25397243369558,1.0712178055634158,0.6951397734493162,B,2987,Incorrect
2,relearn,43,4,A,36.46711994911029,69.53952588649484,1.8233559974555147,1.0923243182956472,A,6699,Correct
2,relearn,43,5,B,32.113071476313024,15.188311089761108,1.6056535738156512,0.23857743270014942,A,1978,Incorrect
2,relearn,43,6,A,13.277076078788653,39.660865756670404,0.6638538039394326,0.6229914224808337,A,1584,Correct
2,relearn,43,7,A,41.11435259776791,59.228488359790006,2.0557176298883957,0.9303589195717243,A,1472,Correct
2,relearn,43,8,A,49.13713908939458,66.64397670655069,2.4568569544697287,1.0468411381365448,A,2939,Correct
2,relearn,43,9,B,75.84987201781843,61.788481101837284,3.7924936008909214,0.9705711915300188,A,922,Incorrect
2,relearn,43,10,B,51.85696780160335,24.761537577844507,2.5928483900801678,0.3889533227307195,B,2873,Correct
2,relearn,43,11,B,57.28928890532647,25.7701383082307,2.8644644452663237,0.4047963859556523,B,767,Correct
2,relearn,43,12,B,60.44361987502573,50.12113245249063,3.0221809937512862,0.7873009075117277,B,895,Correct
2,relearn,43,13,A,25.675152578150566,46.9279524919411,1.2837576289075283,0.737142553983465,A,971,Correct
2,relearn,43,14,A,39.27129779503868,64.12115506655655,1.9635648897519338,1.0072127484839302,A,983,Correct
2,relearn,43,15,A,16.692919171179785,40.836840309565616,0.8346459585589892,0.6414635875617544,A,965,Correct
2,relearn,43,16,A,19.94782779994064,44.134472791380965,0.997391389997032,0.6932626774573053,A,882,Correct
2,relearn,43,17,B,50.38595780388634,27.33440989539999,2.5192978901943173,0.4293679065880037,B,865,Correct
2,relearn,43,18,A,15.644031412916647,32.20099311187848,0.7822015706458323,0.5058120169928648,A,832,Correct
2,relearn,43,19,B,73.56441281266325,56.823502217939264,3.6782206406331626,0.8925814855956066,B,587,Correct
2,relearn,43,20,A,33.29281463031856,52.427149230832114,1.664640731515928,0.8235237343611898,A,1520,Correct
2,relearn,43,21,A,40.88595224530023,49.17375792606393,2.044297612265012,0.7724195832496266,A,809,Correct
2,relearn,43,22,A,48.05150228758916,62.875343161455966,2.402575114379458,0.9876435808398366,B,967,Incorrect
2,relearn,43,23,B,74.19582612146255,46.14298322968423,3.7097913060731273,0.7248122856454651,B,828,Correct
2,relearn,43,24,B,43.45505755162037,15.193998925627188,2.1727528775810185,0.23866677701700792,B,1175,Correct
2,relearn,43,25,B,77.62730962000236,60.33528149008651,3.8813654810001186,0.9477443854076399,B,521,Correct
2,relearn,43,26,A,17.901249158778896,43.54620314408442,0.8950624579389448,0.6840221594459219,A,669,Correct
2,relearn,43,27,B,78.71116776303876,65.23740517474454,3.935558388151938,1.024746764181191,B,797,Correct
2,relearn,43,28,A,51.73725487490295,61.60072120368775,2.5868627437451477,0.9676218659466921,B,1038,Incorrect
2,relearn,43,29,B,56.04398799860603,25.149393751953447,2.8021993999303016,0.39504575326686997,B,902,Correct
2,relearn,43,30,B,73.50910147646889,49.7112233011952,3.6754550738234446,0.780862069619983,B,732,Correct
2,relearn,43,31,A,26.73520169087073,56.292250039575315,1.3367600845435366,0.8842365958918478,A,710,Correct
2,relearn,43,32,B,70.66725434095791,39.09060674129741,3.5333627170478956,0.6140338148141379,B,888,Correct
2,relearn,43,33,B,79.72427977788661,63.33881732499674,3.9862139888943307,0.9949238159763784,B,708,Correct
2,relearn,43,34,A,57.65314537122158,72.62170642173422,2.882657268561079,1.1407390969283744,B,3956,Incorrect
2,relearn,43,35,A,56.261669235383124,63.68906279355949,2.813083461769156,1.0004254589313277,A,1214,Correct
2,relearn,43,36,A,29.565925097771487,62.512410265933994,1.4782962548885743,0.981942644248247,A,733,Correct
2,relearn,43,37,A,67.14852806866458,85.72874298391739,3.357426403433229,1.3466239457988118,B,1559,Incorrect
2,relearn,43,38,B,72.18378761025573,54.18025750928929,3.609189380512787,0.8510614948039321,B,1555,Correct
2,relearn,43,39,A,54.05205789743779,78.07935657409492,2.7026028948718896,1.2264676650509725,A,1323,Correct
2,relearn,43,40,A,29.679938853244497,40.375846880229325,1.483996942662225,0.6342223197069741,A,616,Correct
2,relearn,43,41,A,55.42735251194871,70.9460146106504,2.7713676255974353,1.1144173915114668,A,1830,Correct
2,relearn,43,42,B,76.07933735220243,55.029142250399254,3.803966867610121,0.8643957451360099,B,873,Correct
2,relearn,43,43,B,84.25128109896596,58.309336136839605,4.212564054948298,0.9159209102159658,B,833,Correct
2,relearn,43,44,A,18.08805283060174,34.613867996753804,0.904402641530087,0.543713367054643,A,499,Correct
2,relearn,43,45,B,56.92938125084866,27.711488157417435,2.846469062542433,0.43529103807691577,A,1640,Incorrect
2,relearn,43,46,B,71.12729962026089,53.758519155397046,3.5563649810130444,0.8444368442323076,B,1498,Correct
2,relearn,43,47,B,49.267856390289055,20.290679438977858,2.463392819514453,0.3187252473091915,A,2742,Incorrect
2,relearn,43,48,B,77.57701739610175,55.083793421503756,3.8788508698050874,0.8652542037242698,B,1060,Correct
2,relearn,43,49,B,50.78328618731441,43.65087142733391,2.5391643093657206,0.6856662849945241,B,4790,Correct
2,relearn,43,50,A,42.446191456517504,57.252637390772044,2.122309572825875,0.8993223251274489,A,947,Correct
2,relearn,43,51,A,43.05779658673525,52.95507615272295,2.152889829336763,0.8318163910584124,A,4669,Correct
2,relearn,43,52,B,70.57408194036496,58.049390616975444,3.5287040970182484,0.9118376955382717,B,745,Correct
2,relearn,43,53,A,36.8679309703117,45.23540798031656,1.843396548515585,0.7105561269654981,A,1018,Correct
2,relearn,43,54,B,78.09181371041313,51.00832320047777,3.904590685520657,0.801236867192774,B,685,Correct
2,relearn,43,55,B,42.182728232289435,26.136022944999873,2.1091364116144717,0.4105436883903294,A,1047,Incorrect
2,relearn,43,56,A,54.82349870688313,80.89066096975537,2.7411749353441563,1.2706275312330304,B,750,Incorrect
2,relearn,43,57,A,29.533134957232605,42.48625735123679,1.4766567478616304,0.6673725698658541,A,1088,Correct
2,relearn,43,58,A,45.909309974242795,73.22763363095936,2.2954654987121397,1.150256979273934,A,4192,Correct
2,relearn,43,59,B,63.74967971343556,40.64618091044583,3.187483985671778,0.6384687167236915,A,1288,Incorrect
2,relearn,43,60,A,41.825624989564965,64.99449421922074,2.0912812494782482,1.0209311278144406,A,590,Correct
2,relearn,43,61,B,78.78761038838938,59.32058122860281,3.939380519419469,0.931805510972276,B,730,Correct
2,relearn,43,62,A,39.43477368648717,67.53221319340057,1.9717386843243585,1.0607935242452344,A,1089,Correct
2,relearn,43,63,B,43.786063985796936,20.79294904621574,2.189303199289847,0.3266148798502913,A,8156,Incorrect
2,relearn,43,64,B,41.959078167272935,23.545669044790433,2.097953908363647,0.36985450447485113,B,3403,Correct
2,relearn,43,65,B,83.02080097879477,55.55034605268182,4.1510400489397385,0.8725827953173797,B,720,Correct
2,relearn,43,66,B,44.04067905909538,15.874951730250363,2.2020339529547694,0.24936315865923556,B,669,Correct
2,relearn,43,67,B,41.66604747184303,25.67477713341433,2.0833023735921516,0.40329845612444837,B,543,Correct
2,relearn,43,68,B,66.612832210165,36.292710486122324,3.3306416105082497,0.5700845632103158,B,714,Correct
2,relearn,43,69,B,63.2569007772734,39.98278021078315,3.1628450388636704,0.6280480429014585,B,547,Correct
2,relearn,43,70,A,49.586121134045264,76.40063500892964,2.479306056702263,1.2000983683682425,B,950,Incorrect
2,relearn,43,71,A,44.405549560242015,61.72801958508818,2.220277478012101,0.9696214642457994,A,626,Correct
2,relearn,43,72,A,19.442155180673065,44.94283800379746,0.9721077590336533,0.7059604485210313,A,538,Correct
2,relearn,43,73,A,20.593469773451552,40.11657221244065,1.0296734886725776,0.63014964274904,A,424,Correct
2,relearn,43,74,B,87.01599167477285,65.74321339967986,4.350799583738643,1.0326919811991013,B,1021,Correct
2,relearn,43,75,A,25.752473990055016,45.721017989171386,1.2876236995027508,0.7181840711471381,A,618,Correct
2,relearn,43,76,A,30.978651006820765,46.233109185699846,1.5489325503410383,0.726227980852047,A,625,Correct
2,relearn,43,77,A,21.85077901441178,37.10327612488996,1.0925389507205892,0.5828168984903394,A,819,Correct
2,relearn,43,78,B,40.16510520664609,28.7098371034469,2.0082552603323047,0.4509730666497423,A,2067,Incorrect
2,relearn,43,79,B,73.42943263601845,45.479875883708125,3.671471631800922,0.7143962198121652,B,749,Correct
2,relearn,43,80,B,52.29449609075446,41.79882638349751,2.614724804537723,0.656574429475355,B,666,Correct
2,relearn,43,81,B,69.07268028841779,58.07374167233715,3.4536340144208895,0.912220201021429,B,697,Correct
2,relearn,43,82,A,60.7912190539013,84.39012580136016,3.039560952695065,1.3255969962653578,B,608,Incorrect
2,relearn,43,83,A,30.79577286963676,61.08449185469928,1.539788643481838,0.9595129542949441,A,1033,Correct
2,relearn,43,84,A,23.198418729747207,45.152320611912714,1.1599209364873604,0.7092509936345799,A,723,Correct
2,relearn,43,85,A,21.883349380599437,36.01103832817449,1.0941674690299719,0.5656600672996672,A,610,Correct
2,relearn,43,86,A,60.91709195098515,84.8482164733602,3.0458545975492575,1.3327926677145243,B,1203,Incorrect
2,relearn,43,87,A,30.669256923629,40.585179700085014,1.5334628461814501,0.6375105119520434,A,624,Correct
2,relearn,43,88,A,20.080819579282213,46.12496896319487,1.0040409789641105,0.7245293182091511,A,641,Correct
2,relearn,43,89,B,64.59577301973233,54.49247958580128,3.2297886509866167,0.8559658677132252,B,3367,Correct
2,relearn,43,90,B,49.50205162312319,29.19022541245671,2.4751025811561593,0.45851898856202045,A,1212,Incorrect
2,relearn,43,91,B,48.55330951112144,23.334178323173315,2.427665475556072,0.36653241598817743,B,706,Correct
2,relearn,43,92,A,13.214490350862658,35.56043503359682,0.6607245175431329,0.5585820073000244,A,534,Correct
2,relearn,43,93,B,68.13927978544268,46.37151935339776,3.406963989272134,0.7284021226821566,B,1730,Correct
2,relearn,43,94,B,57.298792474376576,36.447282401934096,2.864939623718829,0.5725125731861436,B,554,Correct
2,relearn,43,95,B,82.15567753173129,58.572779342930446,4.107783876586564,0.9200590664204314,B,656,Correct
2,relearn,43,96,A,44.07881855495131,62.92619312922176,2.2039409277475657,0.9884423302656781,B,5317,Incorrect
2,relearn,43,97,B,67.10244549835951,43.05325199782886,3.355122274917976,0.6762789009476461,B,756,Correct
2,relearn,43,98,B,34.571953901046925,21.93346722074147,1.7285976950523463,0.34453009744216967,A,1115,Incorrect
2,relearn,43,99,A,48.351384929817776,62.05231638269934,2.417569246490889,0.9747155064305889,B,2069,Incorrect
2,relearn,43,100,A,51.60917950100338,74.30567608795253,2.580458975050169,1.167190830589672,B,1042,Incorrect
2,relearn,43,101,B,63.78565787694059,43.366241633570766,3.1892828938470297,0.6811953306491287,B,3544,Correct
2,relearn,43,102,B,67.97115605394089,56.39011124914002,3.398557802697044,0.8857737961770471,B,623,Correct
2,relearn,43,103,B,37.89191840307717,17.660598575782476,1.8945959201538585,0.27741203371838297,A,737,Incorrect
2,relearn,43,104,A,33.484675396570765,66.36471074700651,1.6742337698285383,1.0424544387020362,A,1478,Correct
2,relearn,43,105,B,67.51017783620836,36.560768824693966,3.375508891810418,0.5742952137462665,B,2521,Correct
2,relearn,43,106,A,32.900169171521675,46.364631355565784,1.6450084585760836,0.728293926265222,A,7103,Correct
2,relearn,43,107,A,44.35312026649505,58.97059118476125,2.2176560133247523,0.9263078802194648,A,657,Correct
2,relearn,43,108,A,15.521843397895012,40.256229661583234,0.7760921698947506,0.6323433768302671,A,832,Correct
2,relearn,43,109,A,14.05946294225215,31.99765898377471,0.7029731471126075,0.5026180519774902,A,548,Correct
2,relearn,43,110,A,51.91621718954276,76.45237313144455,2.595810859477138,1.2009110688962594,A,1433,Correct
2,relearn,43,111,B,54.76019993125621,29.965928808781804,2.738009996562811,0.47070370901831826,B,1843,Correct
2,relearn,43,112,A,63.13631233946272,74.89306069535787,3.156815616973136,1.176417446426954,B,485,Incorrect
2,relearn,43,113,A,20.94627786184512,48.669871275365836,1.047313893092256,0.7645045502492511,A,1048,Correct
2,relearn,43,114,B,79.80824843508876,58.69086429439986,3.990412421754438,0.9219139405006105,B,1330,Correct
2,relearn,43,115,A,40.6639927961264,56.33389282177015,2.03319963980632,0.8848907191849393,B,7628,Incorrect
2,relearn,43,116,B,61.981876119246486,32.196218941430374,3.0990938059623243,0.5057370244988311,B,623,Correct
2,relearn,43,117,B,51.135266918513864,37.80904022243267,2.5567633459256935,0.5939030150103775,B,925,Correct
2,relearn,43,118,A,36.47917409925426,46.74175036773985,1.823958704962713,0.7342176978560976,B,1783,Incorrect
2,relearn,43,119,A,44.736626439750935,60.665358996110335,2.2368313219875464,0.9529292307478384,B,822,Incorrect
2,relearn,43,120,A,53.595253012798274,69.0130126699879,2.6797626506399137,1.0840538680306666,B,809,Incorrect
2,relearn,43,121,A,22.214571186836373,38.11095283474289,1.1107285593418186,0.5986454472346768,A,667,Correct
2,relearn,43,122,A,49.011731946546604,76.69222014282231,2.45058659732733,1.2046785769409087,A,1192,Correct
2,relearn,43,123,A,26.94356577840558,56.464437674556805,1.347178288920279,0.886941312937332,A,572,Correct
2,relearn,43,124,B,62.95843145557746,36.79210694592814,3.1479215727788734,0.5779290644570891,B,1962,Correct
2,relearn,43,125,B,73.50717631338408,46.326229260905386,3.6753588156692043,0.7276907075728845,B,589,Correct
2,relearn,43,126,B,53.05373270605854,30.341290674624133,2.6526866353029273,0.4765998794191584,B,1236,Correct
2,relearn,43,127,B,41.46331552440009,33.21980062185974,2.073165776220004,0.521815407936761,B,2680,Correct
2,relearn,43,128,B,51.89892389644373,35.23156708653919,2.594946194822187,0.5534161616676372,B,1681,Correct
2,relearn,43,129,A,18.264236505070137,38.24849400394001,0.9132118252535067,0.600805938868256,A,623,Correct
2,relearn,43,130,A,21.29111367941692,47.84623527651435,1.064555683970846,0.7515669062331314,A,619,Correct
2,relearn,43,131,B,81.71923440318767,54.32408773768721,4.085961720159384,0.8533207747484275,B,707,Correct
2,relearn,43,132,A,13.322525007801143,41.143355065131104,0.6661262503900572,0.6462783100832613,A,510,Correct
2,relearn,43,133,B,70.76801428972222,56.12756851754014,3.5384007144861105,0.8816497845928093,B,929,Correct
2,relearn,43,134,B,36.692823162604974,20.7305789455868,1.8346411581302489,0.32563517260059366,A,1465,Incorrect
2,relearn,43,135,A,20.232731722306767,35.39308073037375,1.0116365861153382,0.5559532120522631,A,612,Correct
2,relearn,43,136,A,22.47715454990256,37.79377204509993,1.123857727495128,0.5936631830416661,A,595,Correct
2,relearn,43,137,A,22.689977424070893,33.85853388350789,1.1344988712035446,0.5318486065487473,A,484,Correct
2,relearn,43,138,B,60.97489434764631,35.33246907232161,3.048744717382316,0.5550011263539706,B,764,Correct
2,relearn,43,139,B,44.89239602634811,24.627824229783094,2.2446198013174055,0.38685295837093636,B,1217,Correct
2,relearn,43,140,A,26.780615056842315,36.66312535420364,1.339030752842116,0.5759030263520392,A,1928,Correct
2,relearn,43,141,A,62.16741815818318,75.71826105635695,3.1083709079091593,1.1893796633862257,B,1201,Incorrect
2,relearn,43,142,A,69.1524084617817,86.97548961897917,3.457620423089085,1.3662077961468015,B,577,Incorrect
2,relearn,43,143,A,20.29878332495989,38.8318697532294,1.0149391662479943,0.6099695837095059,A,431,Correct
2,relearn,43,144,B,77.09546948812581,61.56046906538796,3.8547734744062905,0.9669895868368226,B,3478,Correct
2,relearn,43,145,B,73.3358989828441,40.300099435665466,3.666794949142205,0.6330324816301239,B,591,Correct
2,relearn,43,146,A,34.04579524546158,47.814049102004574,1.7022897622730793,0.751061326986196,A,2040,Correct
2,relearn,43,147,A,52.64448813080062,70.79958452208949,2.632224406540031,1.1121172730590299,A,1367,Correct
2,relearn,43,148,B,82.79971635461916,67.10833198439124,4.139985817730958,1.0541352137841424,B,1004,Correct
2,relearn,43,149,B,68.97335659718176,39.50334164814149,3.448667829859088,0.6205170395702451,B,962,Correct
2,relearn,43,150,A,44.38536414369157,65.10167591651457,2.2192682071845784,1.0226147339785285,A,881,Correct
2,relearn,43,151,A,46.020669310601626,70.3664131489514,2.301033465530081,1.1053130330410494,A,553,Correct
2,relearn,43,152,B,49.146909349927725,28.145280906559506,2.4573454674963866,0.44210503864634204,A,1083,Incorrect
2,relearn,43,153,A,49.10916761663695,60.079273045781555,2.455458380831848,0.9437230141682131,B,2967,Incorrect
2,relearn,43,154,A,39.4333471327644,54.115624831562805,1.9716673566382201,0.8500462470762955,A,2891,Correct
2,relearn,43,155,B,78.57389050438306,64.01948506429956,3.9286945252191527,1.005615719823025,B,580,Correct
2,relearn,43,156,B,74.40692737661595,47.39148136586388,3.7203463688307976,0.7444236485086778,B,1088,Correct
2,relearn,43,157,A,36.585367145842426,55.7567726953305,1.8292683572921213,0.8758253374376314,A,907,Correct
2,relearn,43,158,B,76.41895384033133,59.615834616014155,3.820947692016566,0.9364433403364708,B,715,Correct
2,relearn,43,159,B,51.38375021062369,36.54190670811016,2.5691875105311848,0.5739989283118123,A,2062,Incorrect
2,relearn,43,160,A,63.57185468989245,82.92668899896223,3.1785927344946225,1.3026093847283264,B,709,Incorrect
2,relearn,43,161,A,36.283694827290745,68.06266725599826,1.8141847413645371,1.0691258771758536,A,630,Correct
2,relearn,43,162,A,65.03401311073092,83.38684591450891,3.2517006555365464,1.3098375126552264,B,1504,Incorrect
2,relearn,43,163,A,47.0943757801135,68.49452630320084,2.354718789005675,1.0759095032262431,A,3433,Correct
2,relearn,43,164,B,60.99649084080004,39.01366478268115,3.049824542040002,0.6128252133544296,B,3564,Correct
2,relearn,43,165,B,77.93888979903639,56.20427561833277,3.896944489951819,0.8828546969144507,B,657,Correct
2,relearn,43,166,A,58.61734002280343,67.3718308955484,2.9308670011401716,1.0582742450017437,B,501,Incorrect
2,relearn,43,167,A,60.94612089668447,71.01541909445463,3.0473060448342233,1.115507594593695,A,6832,Correct
2,relearn,43,168,A,62.254775977841405,75.50700374010208,3.11273879889207,1.1860612412224087,B,979,Incorrect
2,relearn,43,169,A,46.063863723930744,58.21680164476966,2.303193186196537,0.9144673818135127,A,600,Correct
2,relearn,43,170,A,34.918793320385554,49.80017662396538,1.7459396660192779,0.782259345146619,A,609,Correct
2,relearn,43,171,B,51.60006590124289,34.78734465237414,2.580003295062145,0.5464383319889738,A,989,Incorrect
2,relearn,43,172,B,64.00442252517416,56.441328584793254,3.2002211262587084,0.8865783162041704,B,528,Correct
2,relearn,43,173,B,75.1671364149346,61.14291998889733,3.75835682074673,0.9604307412807418,B,713,Correct
2,relearn,43,174,B,72.02587749037806,42.417301222122326,3.6012938745189036,0.6662894095226243,B,583,Correct
2,relearn,43,175,A,33.555190025286024,54.94889963215127,1.6777595012643014,0.8631352970360465,A,622,Correct
2,relearn,43,176,A,47.51362841752665,67.12050865978568,2.3756814208763326,1.0543264845539642,A,1315,Correct
2,relearn,43,177,B,61.758975455095474,47.82869440860632,3.0879487727547734,0.7512913749243442,A,862,Incorrect
2,relearn,43,178,B,64.55096842356708,44.23448081364805,3.2275484211783545,0.6948335997975769,B,712,Correct
2,relearn,43,179,A,29.509666959317165,55.80804169519127,1.4754833479658584,0.8766306690042288,A,677,Correct
2,relearn,43,180,B,32.565270328165724,11.619494367085803,1.6282635164082861,0.18251859071032372,A,917,Incorrect
2,relearn,43,181,A,41.23298094873389,51.01690318777328,2.061649047436694,0.8013716413180512,A,1612,Correct
2,relearn,43,182,A,36.54175746138963,59.30991623957018,1.8270878730694815,0.9316379857162982,B,1999,Incorrect
2,relearn,43,183,B,86.38057331393327,65.1768319357626,4.319028665696663,1.023795281968242,B,1186,Correct
2,relearn,43,184,A,53.55664484401241,69.45388633967806,2.6778322422006204,1.0909790954399656,B,945,Incorrect
2,relearn,43,185,A,43.36512379107199,66.11607880278692,2.1682561895535994,1.038548937254996,A,695,Correct
2,relearn,43,186,B,56.23877695058871,24.947317097315914,2.811938847529435,0.39187154059851353,A,6008,Incorrect
2,relearn,43,187,B,53.78768055703764,25.431834719304774,2.689384027851882,0.3994823256073885,B,961,Correct
2,relearn,43,188,B,87.79579415706789,65.57250811177096,4.389789707853395,1.0300105488069837,B,550,Correct
2,relearn,43,189,A,29.33941737439355,53.044689395570586,1.4669708687196774,0.8332240325853849,A,612,Correct
2,relearn,43,190,A,33.11862180273019,50.029337945150026,1.6559310901365094,0.785859002762222,A,353,Correct
2,relearn,43,191,A,41.21348668415583,60.44240087012123,2.060674334207792,0.9494270126945109,A,866,Correct
2,relearn,43,192,A,52.2759086996154,63.30986629131234,2.61379543498077,0.9944690542026947,A,883,Correct
2,relearn,43,193,B,45.26150596276065,28.851422737733753,2.2630752981380327,0.4531970885923894,A,1075,Incorrect
2,relearn,43,194,B,54.36094033807119,28.93732162761075,2.7180470169035598,0.4545463851993348,A,1079,Incorrect
2,relearn,43,195,A,65.30768883867717,86.23850858577745,3.2653844419338585,1.354631325148094,B,621,Incorrect
2,relearn,43,196,A,41.24714022564359,64.67987717324954,2.0623570112821796,1.0159891348128545,A,558,Correct
2,relearn,43,197,A,26.857165299294625,58.24051805824905,1.3428582649647314,0.9148399183652944,A,437,Correct
2,relearn,43,198,B,68.55671800157721,43.62566846666376,3.4278359000788607,0.6852703978140738,A,611,Incorrect
2,relearn,43,199,A,52.528858712311234,75.75657161774882,2.626442935615562,1.1899814442773435,A,4268,Correct
2,relearn,43,200,A,34.07784662441729,53.699919759629964,1.7038923312208647,0.8435163670760744,A,554,Correct
2,relearn,43,201,B,81.76855312045414,65.4032338522506,4.0884276560227075,1.0273515949562286,B,1076,Correct
2,relearn,43,202,B,60.30664883820762,36.172264259309834,3.0153324419103806,0.5681925983037821,A,3643,Incorrect
2,relearn,43,203,A,18.164442073802924,38.014079521845545,0.9082221036901461,0.5971237647940408,A,515,Correct
2,relearn,43,204,A,31.445645123402784,47.95720035409896,1.5722822561701393,0.7533099415958557,A,526,Correct
2,relearn,43,205,B,63.1173319212906,32.96920569348899,3.15586659606453,0.517879072006779,A,1136,Incorrect
2,relearn,43,206,B,52.95223330641949,46.31529566278625,2.6476116653209743,0.7275189630152424,A,7775,Incorrect
2,relearn,43,207,B,69.20648570771854,42.368403812642846,3.4603242853859273,0.6655213308106228,B,2530,Correct
2,relearn,43,208,B,47.63806648950485,18.079202701044757,2.3819033244752426,0.2839874519418148,A,1749,Incorrect
2,relearn,43,209,B,64.3378358728203,34.96885293195944,3.216891793641015,0.5492894573775283,B,1204,Correct
2,relearn,43,210,A,30.025230276109756,58.1459416052544,1.5012615138054877,0.9133543149156418,A,596,Correct
2,relearn,43,211,B,47.007666359851775,30.7705793326699,2.350383317992589,0.4833431298910884,A,7987,Incorrect
2,relearn,43,212,A,36.62476886727269,50.31794110540524,1.8312384433636344,0.7903923706025247,A,1893,Correct
2,relearn,43,213,A,63.17745320267536,75.06747992987269,3.158872660133768,1.1791572173559364,B,809,Incorrect
2,relearn,43,214,B,36.31824885160823,22.332473252686615,1.8159124425804116,0.3507976695356541,A,626,Incorrect
2,relearn,43,215,A,40.83609028178111,58.95230241245397,2.0418045140890557,0.9260206008558461,A,1309,Correct
2,relearn,43,216,A,44.93582854827445,55.56396532060826,2.2467914274137226,0.8727967262777047,A,757,Correct
2,relearn,43,217,A,39.10335200068639,57.047510293494504,1.9551676000343194,0.8961001962181522,A,713,Correct
2,relearn,43,218,A,52.261171655944665,72.15623471747975,2.6130585827972332,1.1334274844956758,B,2319,Incorrect
2,relearn,43,219,B,73.11730095814593,44.91289926674449,3.6558650479072967,0.7054901719391146,B,863,Correct
2,relearn,43,220,B,42.72486597502386,26.538678559118658,2.136243298751193,0.4168685879865406,A,739,Incorrect
2,relearn,43,221,A,23.89124136136959,51.15779667399384,1.1945620680684796,0.8035847910242973,A,486,Correct
2,relearn,43,222,B,68.62253852796758,47.43228894531104,3.431126926398379,0.7450646524676876,B,942,Correct
2,relearn,43,223,A,66.47280311099048,79.10307503239781,3.323640155549524,1.2425481969907157,B,2922,Incorrect
2,relearn,43,224,B,56.624411295593355,31.204006762884184,2.831220564779668,0.4901513920442158,B,680,Correct
2,relearn,43,225,A,35.710465915525724,54.9214375386723,1.7855232957762863,0.8627039234804179,A,941,Correct
2,relearn,43,226,B,43.0857743911001,27.962625026565725,2.154288719555005,0.43923588679272485,A,691,Incorrect
2,relearn,43,227,B,62.65711841827819,55.390062660350125,3.1328559209139093,0.8700650696781712,B,1371,Correct
2,relearn,43,228,B,33.162913456064246,17.707484435099452,1.6581456728032122,0.27814851507432026,A,771,Incorrect
2,relearn,43,229,A,58.04486300721609,85.99848929326481,2.9022431503608046,1.350861110917706,B,2489,Incorrect
2,relearn,43,230,A,18.831829809911934,40.28585600105282,0.9415914904955968,0.632808746282419,A,576,Correct
2,relearn,43,231,A,59.56699777444145,79.054607214871,2.9783498887220725,1.241786866293327,B,713,Incorrect
2,relearn,43,232,A,43.9411793962458,75.4301534254795,2.1970589698122898,1.184854079303187,A,537,Correct
2,relearn,43,233,B,73.36299309491287,61.754824696451365,3.6681496547456436,0.9700425179504857,B,818,Correct
2,relearn,43,234,A,55.324021177422004,82.80370622665495,2.7662010588711,1.3006775758583329,B,1212,Incorrect
2,relearn,43,235,A,50.944248322511726,63.37751477612569,2.5472124161255865,0.9955316741172752,A,1501,Correct
2,relearn,43,236,B,73.6373206244273,50.28339479963586,3.681866031221365,0.7898497185004562,B,3113,Correct
2,relearn,43,237,B,42.14446411073567,19.905335695734653,2.1072232055367834,0.3126722819447933,A,616,Incorrect
2,relearn,43,238,A,54.63100575345114,69.24006198085186,2.7315502876725573,1.087620350265731,A,987,Correct
2,relearn,43,239,A,67.70570287711567,87.20393144394407,3.3852851438557834,1.3697961519422133,B,1048,Incorrect
2,relearn,43,240,A,15.827246712663477,42.483705687854695,0.7913623356331739,0.667332488431176,A,488,Correct
2,relearn,43,241,B,55.87422553939935,43.990458099498,2.793711276969967,0.6910004999671625,B,3709,Correct
2,relearn,43,242,B,49.270786637929746,33.11522141378276,2.463539331896487,0.5201726815776967,A,4599,Incorrect
2,relearn,43,243,B,83.1630108397759,67.26812015667275,4.158150541988794,1.056645160524993,B,770,Correct
2,relearn,43,244,A,40.48265571322252,48.954506105899355,2.024132785661126,0.7689755837120505,B,1235,Incorrect
2,relearn,43,245,B,45.02536772051563,36.05168890586069,2.2512683860257816,0.5662986050807829,A,1041,Incorrect
2,relearn,43,246,A,21.414318810221136,35.703560501423496,1.0707159405110567,0.5608302168913538,A,484,Correct
2,relearn,43,247,B,82.84415646498095,56.44086006819131,4.1422078232490485,0.8865709567625967,B,723,Correct
2,relearn,43,248,A,52.613012509168705,64.1599460674735,2.6306506254584354,1.0078220761014605,B,796,Incorrect
2,relearn,43,249,A,45.6761622391479,70.33004240013992,2.283808111957395,1.104741722654691,A,736,Correct
2,relearn,43,250,B,60.651669864878386,35.58607760710565,3.0325834932439193,0.5589847999027968,B,1005,Correct
2,relearn,43,251,B,72.05800789529216,57.838031676972335,3.6029003947646085,0.9085176770723501,B,681,Correct
2,relearn,43,252,B,43.08156404233607,33.48677502181965,2.1540782021168035,0.526009032004814,A,1633,Incorrect
2,relearn,43,253,A,38.69403152382252,52.071473597494204,1.9347015761911257,0.8179367945774133,B,752,Incorrect
2,relearn,43,254,A,37.90832553562291,62.08427468044837,1.8954162767811453,0.975217506197737,A,898,Correct
2,relearn,43,255,B,58.57745136997048,49.439403333631276,2.928872568498524,0.7765923315539937,B,636,Correct
2,relearn,43,256,A,43.91744236798644,62.70142874422789,2.195872118399322,0.9849117395622511,A,1665,Correct
2,relearn,43,257,B,44.88979681015755,20.892228067477028,2.2444898405078773,0.32817435106954157,A,1038,Incorrect
2,relearn,43,258,A,49.20405064630811,63.913567832862654,2.4602025323154053,1.0039519758421713,A,1075,Correct
2,relearn,43,259,B,43.14843895251481,24.508792337432723,2.157421947625741,0.38498320977818223,B,1540,Correct
2,relearn,43,260,B,63.80623898180748,54.325598120054,3.190311949090374,0.8533444997791657,B,1076,Correct
2,relearn,43,261,B,31.24646135282455,11.326088320816876,1.5623230676412274,0.17790977931293722,A,3214,Incorrect
2,relearn,43,262,A,38.417698073895195,55.02856077180941,1.9208849036947597,0.8643866112916795,A,989,Correct
2,relearn,43,263,A,16.281953599974734,42.81815081605502,0.8140976799987368,0.6725859402200912,A,636,Correct
2,relearn,43,264,A,35.27579563068241,63.16798733891255,1.7637897815341206,0.9922404248299037,A,712,Correct
2,relearn,43,265,B,42.455026346121116,16.603179738275774,2.1227513173060557,0.26080213745999037,B,1967,Correct
2,relearn,43,266,B,55.08812798343996,47.059573844987426,2.754406399171998,0.7392100573623943,B,1179,Correct
2,relearn,43,267,A,29.83753918987135,58.14844561711424,1.4918769594935675,0.9133936478419585,B,1384,Incorrect
2,relearn,43,268,A,55.42691383717115,70.05840569012881,2.7713456918585577,1.1004748631916104,A,1014,Correct
2,relearn,43,269,A,24.861282904722984,41.03419402425727,1.2430641452361493,0.6445636124629242,A,663,Correct
2,relearn,43,270,A,33.89809023437681,63.92864041059149,1.6949045117188404,1.004188735339489,A,625,Correct
2,relearn,43,271,A,32.54960346394661,43.48344100310808,1.6274801731973303,0.6830362940408475,A,792,Correct
2,relearn,43,272,B,80.21879659727101,49.17094175318215,4.010939829863551,0.7723753469094433,A,1089,Incorrect
2,relearn,43,273,B,52.85416128226309,29.223030953702576,2.6427080641131546,0.45903429679889574,A,1247,Incorrect
2,relearn,43,274,B,43.56451172185342,16.144990493194033,2.178225586092671,0.25360491762847714,B,572,Correct
2,relearn,43,275,B,44.567363233119615,35.43514493096567,2.2283681616559807,0.5566139549700567,B,588,Correct
2,relearn,43,276,A,46.51098584045822,78.60744096180412,2.325549292022911,1.234762795215486,B,2300,Incorrect
2,relearn,43,277,B,36.160544930946884,18.33150429720497,1.8080272465473441,0.2879505961467443,A,2065,Incorrect
2,relearn,43,278,A,36.3819649639737,54.0653035529328,1.819098248198685,0.849255802279979,A,1106,Correct
2,relearn,43,279,B,73.69902580425659,50.63543750355127,3.68495129021283,0.7953795923623089,B,1516,Correct
2,relearn,43,280,B,58.71709162238186,33.17245663962249,2.9358545811190933,0.5210717304028198,B,1290,Correct
2,relearn,43,281,A,33.15909898320532,53.556909153241946,1.657954949160266,0.8412699617240043,B,1011,Incorrect
2,relearn,43,282,B,49.24457187694509,40.348377736581256,2.4622285938472546,0.6337908354075482,B,484,Correct
2,relearn,43,283,A,17.230364703259138,35.41009540132329,0.8615182351629569,0.5562204778785549,A,586,Correct
2,relearn,43,284,A,17.621679775244345,45.02869389994877,0.8810839887622173,0.707309069784113,A,489,Correct
2,relearn,43,285,B,67.95756812777772,37.17221124027513,3.397878406388886,0.5838997287506814,B,1274,Correct
2,relearn,43,286,A,29.94400606567055,53.78481125798844,1.4972003032835275,0.8448498396140505,A,997,Correct
2,relearn,43,287,B,38.528851132482785,27.476031061647678,1.9264425566241392,0.4315924866653866,A,3910,Incorrect
2,relearn,43,288,A,30.957620677317024,44.91442102921387,1.5478810338658513,0.705514075728086,A,1002,Correct
2,relearn,43,289,B,72.69713522908408,46.768069802113224,3.634856761454204,0.7346311225644677,B,1011,Correct
2,relearn,43,290,A,59.20652969049871,75.68892927309669,2.9603264845249355,1.18891892081219,B,1664,Incorrect
2,relearn,43,291,A,66.9371325266701,85.94091552168658,3.346856626333505,1.3499567442285578,A,1033,Correct
2,relearn,43,292,A,37.53143511304141,65.50619131168946,1.8765717556520707,1.0289688469472558,A,814,Correct
2,relearn,43,293,B,74.76697127170476,42.83045079954257,3.738348563585238,0.67277914790891,A,598,Incorrect
2,relearn,43,294,B,48.94576473687184,21.37342680932645,2.4472882368435918,0.33573300323109556,A,645,Incorrect
2,relearn,43,295,A,11.93423465247676,33.27862382854602,0.596711732623838,0.522739400706692,A,583,Correct
2,relearn,43,296,A,57.25914846297701,79.16889811871503,2.8629574231488504,1.2435821436127694,A,1305,Correct
2,relearn,43,297,A,47.20838084039099,56.21972815735225,2.3604190420195494,0.8830974248297654,A,1245,Correct
2,relearn,43,298,A,55.02304071247628,82.1839655591691,2.751152035623814,1.290942712217811,A,1171,Correct
2,relearn,43,299,B,41.16171706936136,15.412019032786581,2.058085853468068,0.24209142885194196,A,2434,Incorrect
2,relearn,43,300,B,68.50940368653507,51.553647584016375,3.425470184326753,0.8098028025785151,B,2795,Correct
2,relearn,43,301,B,64.91994465398757,35.45336448924101,3.2459972326993785,0.556900147122204,B,648,Correct
2,relearn,43,302,A,16.337296719845924,33.0245825091034,0.8168648359922962,0.5187489289923461,A,568,Correct
2,relearn,43,303,A,41.28505447876968,54.862809296967825,2.064252723938484,0.8617829932132596,A,5051,Correct
2,relearn,43,304,A,42.79634575801269,72.36528356612584,2.1398172879006347,1.1367112161314157,A,927,Correct
2,relearn,43,305,B,66.08258788488968,49.174037458456986,3.304129394244484,0.7724239741341888,B,4085,Correct
2,relearn,43,306,A,27.49508544411787,55.12061941074327,1.3747542722058936,0.86583266501055,A,567,Incorrect
2,relearn,43,307,A,19.17749588749188,47.34474549143134,0.958874794374594,0.7436895231097959,A,702,Incorrect
2,relearn,43,308,B,74.82800421492638,45.963201764920996,3.741400210746319,0.7219882850007061,B,757,Incorrect
2,relearn,43,309,B,72.86818475428696,56.28416411377972,3.643409237714348,0.884109582466463,B,988,Incorrect
2,relearn,43,310,A,25.171293288114214,49.05030414927151,1.2585646644057107,0.7704803758584816,A,621,Incorrect
2,relearn,43,311,A,30.12327022157067,57.385511137572266,1.5061635110785334,0.9014095010614613,A,528,Incorrect
2,relearn,43,312,B,40.36663622517641,20.94139248301978,2.0183318112588204,0.32894662390297724,B,1200,Correct
2,relearn,43,313,A,60.0696214073253,86.52879493498952,3.003481070366265,1.359191132458704,B,675,Correct
2,relearn,43,314,B,68.30780085001037,47.432380792280235,3.4153900425005186,0.7450660951965061,B,510,Correct
2,relearn,43,315,B,80.10259690554611,62.485258720067876,4.005129845277305,0.9815161487631141,B,630,Incorrect
2,relearn,43,316,B,71.54018044273558,50.61907830516908,3.5770090221367785,0.7951226226750284,A,658,Correct
2,relearn,43,317,B,63.91216913760509,43.872499920143404,3.1956084568802545,0.6891476172187065,A,3244,Incorrect
2,relearn,43,318,B,39.90882707294568,25.922973574585257,1.995441353647284,0.4071971167055969,A,2850,Correct
2,relearn,43,319,B,63.96553735368301,40.42182588939156,3.1982768676841506,0.6349445562939912,B,1862,Correct
2,relearn,43,320,A,48.730830463087116,76.59240617078846,2.4365415231543555,1.2031107027345729,B,4516,Incorrect
2,relearn,43,321,B,88.63319302553789,68.38158538942035,4.431659651276894,1.0741354315011304,B,716,Correct
2,relearn,43,322,A,54.38528898960822,80.76315912233898,2.719264449480411,1.268624736897218,A,1067,Incorrect
2,relearn,43,323,A,37.70273689252956,46.558165704181214,1.885136844626478,0.7313339567043597,B,507,Incorrect
2,relearn,43,324,A,50.87786891378745,70.34419343143709,2.5438934456893723,1.1049640065345108,B,680,Incorrect
2,relearn,43,325,A,59.460178123850824,83.2048701099387,2.973008906192541,1.3069790434013817,A,728,Correct
2,relearn,43,326,B,83.6825888966481,68.19415186345785,4.184129444832405,1.0711912325601294,A,604,Correct
2,relearn,43,327,B,79.40805448822937,61.52038258854947,3.9704027244114686,0.966359909931102,B,2363,Correct
2,relearn,43,328,B,88.36912917646643,62.39553384812602,4.4184564588233215,0.9801067537704299,B,1716,Correct
2,relearn,43,329,A,25.540611031002914,48.01920062009679,1.2770305515501457,0.7542838394967526,B,2159,Correct
2,relearn,43,330,A,43.58376931347831,56.50598733780504,2.1791884656739153,0.8875939735214311,B,962,Incorrect
2,relearn,43,331,B,69.5457245851497,46.53960993443715,3.477286229257485,0.7310424833548115,B,707,Incorrect
2,relearn,43,332,B,46.307159531831495,37.88270204790717,2.315357976591575,0.5950600922591809,B,810,Incorrect
2,relearn,43,333,B,81.39269540667708,50.901814422828295,4.069634770333854,0.7995638312257417,A,686,Incorrect
2,relearn,43,334,B,54.48332967442138,46.64296361427142,2.724166483721069,0.7326659591612557,B,395,Correct
2,relearn,43,335,B,67.65889109417637,38.88052240846712,3.3829445547088186,0.6107338178308682,B,618,Incorrect
2,relearn,43,336,A,37.680636149111045,49.28891879641886,1.8840318074555524,0.774228525971067,A,1522,Correct
2,relearn,43,337,B,85.51683748896343,66.44101017646219,4.275841874448172,1.0436529473372915,B,773,Incorrect
2,relearn,43,338,A,45.33748092246829,76.2596315181809,2.266874046123414,1.1978834907149087,A,1175,Incorrect
2,relearn,43,339,A,64.99971455877592,79.91770068540912,3.249985727938796,1.2553443068253465,B,1561,Correct
2,relearn,43,340,A,56.22348894142147,72.18926824126619,2.811174447071074,1.1339463738739242,B,651,Incorrect
2,relearn,43,341,A,52.84869922706457,70.64601008773012,2.6424349613532288,1.1097049314852165,B,687,Incorrect
2,relearn,43,342,A,11.974039684902092,33.272625670031545,0.5987019842451047,0.5226451818530713,A,646,Correct
2,relearn,43,343,A,51.73081656319691,75.33829846489901,2.586540828159846,1.1834112249564095,A,616,Correct
2,relearn,43,344,B,55.353785377768084,25.566205118848856,2.7676892688884043,0.4015930109077267,A,3942,Incorrect
2,relearn,43,345,B,59.51873932661396,42.08140593299499,2.975936966330698,0.661013178659135,A,1602,Incorrect
2,relearn,43,346,A,34.79911997306344,63.49708090547229,1.739955998653172,0.9974098144851423,A,617,Correct
2,relearn,43,347,A,23.25466068426969,46.701636427545665,1.1627330342134845,0.7335875895569944,A,540,Correct
2,relearn,43,348,A,50.49345363762005,70.80025770433375,2.5246726818810026,1.1121278473809952,B,1461,Incorrect
2,relearn,43,349,B,62.038946360555386,35.30657933292715,3.101947318027769,0.5545944512785458,B,1897,Correct
2,relearn,43,350,B,77.77005620596293,47.01076976131819,3.8885028102981467,0.7384434446087921,B,2053,Correct
2,relearn,43,351,B,72.18965290030533,60.79014873106137,3.6094826450152664,0.9548894233206665,B,1375,Incorrect
2,relearn,43,352,B,43.697400061676504,33.10416025731398,2.184870003083825,0.5199989333381839,A,1892,Incorrect
2,relearn,43,353,A,34.03142739106792,52.71615844407257,1.701571369553396,0.8280634804668696,A,991,Incorrect
2,relearn,43,354,B,66.11132009172128,34.2876897933738,3.3055660045860638,0.5385897718171443,B,1317,Correct
2,relearn,43,355,A,16.96527410811383,46.37172919462843,0.8482637054056916,0.7284054188605,A,2064,Incorrect
2,relearn,43,356,A,26.783215556808617,52.64324974661278,1.3391607778404309,0.8269182333252573,B,761,Incorrect
2,relearn,43,357,A,62.49373757465243,77.8760039281732,3.1246868787326214,1.223273409158394,A,1301,Incorrect
2,relearn,43,358,B,78.38941289914419,59.6138260532379,3.9194706449572094,0.93641178990616,B,569,Correct
2,relearn,43,359,A,14.697858962295555,39.45470112398707,0.7348929481147778,0.6197529960034937,A,1656,Incorrect
2,relearn,43,360,A,68.16823513172564,81.81385636140125,3.4084117565862817,1.2851290505341437,B,356,Incorrect
2,relearn,43,361,A,64.1386885187582,79.56748790202539,3.2069344259379102,1.2498431772879885,B,725,Incorrect
2,relearn,43,362,A,48.6291208426356,55.846818712345595,2.4314560421317797,0.8772397769653294,B,978,Incorrect
2,relearn,43,363,A,18.318467089062484,44.96481208884684,0.9159233544531241,0.7063056166418339,A,667,Correct
2,relearn,43,364,B,81.9078373196312,54.501962934380884,4.09539186598156,0.856114831804371,B,1619,Correct
2,relearn,43,365,B,82.65770274615465,64.10732951459221,4.132885137307733,1.0069955772215151,A,1223,Incorrect
2,relearn,43,366,A,34.65416082040004,62.38770451951242,1.7327080410200018,0.9799837709641548,A,1038,Correct
2,relearn,43,367,A,29.51828004132806,54.256169878701876,1.4759140020664032,0.8522539235142481,B,4544,Incorrect
2,relearn,43,368,A,46.76951759454423,77.01802333712533,2.3384758797272114,1.2097962815496008,B,817,Incorrect
2,relearn,43,369,B,37.056021803856304,22.851567063624373,1.8528010901928154,0.358951576050484,A,939,Correct
2,relearn,43,370,B,77.84560840552076,55.39498549758867,3.892280420276038,0.8701423974246885,A,750,Incorrect
2,relearn,43,371,B,67.22047277587724,55.869685259026255,3.3610236387938617,0.8775989638406543,B,880,Correct
2,relearn,43,372,B,84.09460787909268,61.35998520481924,4.204730393954634,0.9638403937191926,B,4028,Correct
2,relearn,43,373,B,50.538091357810856,34.8266254080602,2.5269045678905426,0.5470553526564278,B,4117,Incorrect
2,relearn,43,374,B,54.39967192307332,38.293943072795024,2.719983596153666,0.6015198511723929,A,728,Correct
2,relearn,43,375,A,68.35198098117553,88.79955139356771,3.4175990490587767,1.394860091500508,A,1209,Correct
2,relearn,43,376,A,57.936621626821676,81.01288869498399,2.8968310813410834,1.2725474798512466,A,862,Incorrect
2,relearn,43,377,B,36.87347943419887,19.59043926436514,1.8436739717099437,0.3077259003676328,A,693,Incorrect
2,relearn,43,378,A,33.00015857826757,65.8374922994729,1.6500079289133789,1.034172910693993,A,1147,Incorrect
2,relearn,43,379,B,73.35319051277585,55.064551086542494,3.667659525638793,0.8649519458335088,B,1223,Incorrect
2,relearn,43,380,A,39.012078616686274,70.35176039845538,1.9506039308343137,1.1050828681744838,A,987,Correct
2,relearn,43,381,A,57.25223059725951,68.79380581343405,2.862611529862976,1.080610574779836,A,1097,Incorrect
2,relearn,43,382,A,44.5380104026962,68.87795696674934,2.2269005201348104,1.081932418005068,A,744,Correct
2,relearn,43,383,B,55.56809930397313,34.304304883119435,2.778404965198656,0.5388507610365624,B,1152,Incorrect
2,relearn,43,384,B,31.860213756686097,11.51883626155782,1.5930106878343049,0.18093745688606883,A,808,Incorrect
2,relearn,43,385,B,48.2598964801738,30.50267112194154,2.41299482400869,0.47913483755778535,B,1775,Correct
2,relearn,43,386,B,75.86080542978236,50.579816651603366,3.7930402714891183,0.7945059020629791,B,3774,Incorrect
2,relearn,43,387,B,55.20698855095424,23.227768139740327,2.7603494275477125,0.3648609287354764,A,719,Incorrect
2,relearn,43,388,B,51.6106181555967,33.044059164241425,2.580530907779835,0.5190548675758367,B,1576,Incorrect
2,relearn,43,389,B,40.64063264560457,22.13970769702914,2.0320316322802285,0.3477697152680607,A,677,Incorrect
2,relearn,43,390,B,65.01069620904752,54.50443755438003,3.2505348104523764,0.8561537030444198,B,2381,Correct
2,relearn,43,391,B,81.36375591264245,54.65577975587263,4.068187795632122,0.858530980786356,B,733,Correct
2,relearn,43,392,B,62.81972076590228,40.59138129123967,3.1409860382951145,0.6376079263181036,B,4064,Correct
2,relearn,43,393,B,66.46514284310986,38.718659647368206,3.3232571421554926,0.6081912835250776,B,757,Incorrect
2,relearn,43,394,B,56.91981727299287,48.592421359645776,2.845990863649644,0.7632879698180146,A,754,Correct
2,relearn,43,395,B,63.70870194474837,51.40981766709753,3.1854350972374186,0.8075435275267219,A,641,Incorrect
2,relearn,43,396,B,52.19300670757766,43.35038032293734,2.609650335378883,0.6809461817643174,A,981,Incorrect
2,relearn,43,397,A,29.21790193784425,38.59076667338597,1.4608950968922125,0.6061823453875359,A,741,Correct
2,relearn,43,398,A,32.58739794950581,49.845528434414796,1.6293698974752902,0.7829717297192932,B,1965,Incorrect
2,relearn,43,399,A,49.17675980607175,56.52351622281792,2.4588379903035875,0.8878693166033411,A,602,Correct
2,relearn,43,400,B,82.12473355137512,61.628195217922055,4.106236677568756,0.9680534267531077,B,791,Correct
2,relearn,43,401,A,54.85462869261113,78.17851690649854,2.7427314346305565,1.2280252719100064,A,2593,Incorrect
2,relearn,43,402,A,47.20925164837944,70.8994511430411,2.360462582418972,1.113685974272632,A,1967,Correct
2,relearn,43,403,A,59.94746760543957,71.12289870634977,2.9973733802719784,1.117195880389397,B,1171,Correct
2,relearn,43,404,B,54.72695428148414,27.288890981654603,2.736347714074207,0.4286528971628943,B,2802,Incorrect
2,relearn,43,405,B,42.45751386801166,30.4214944217372,2.122875693400583,0.4778597169327623,A,659,Incorrect
2,relearn,43,406,B,39.46504266191023,13.251184306934103,1.9732521330955115,0.20814911635014266,A,558,Correct
2,relearn,43,407,B,87.95343841692518,68.99312483607008,4.397671920846259,1.0837414706660065,B,756,Incorrect
2,relearn,43,408,A,16.94965025333232,38.2633215153581,0.847482512666616,0.6010388488729664,A,602,Correct
2,relearn,43,409,A,68.94683527030683,84.5129593705953,3.447341763515342,1.3275264614589743,A,3548,Incorrect
2,relearn,43,410,A,49.762838407570904,70.38493054819621,2.488141920378545,1.105603903668205,B,735,Incorrect
2,relearn,43,411,A,47.56855390815588,71.66814611413102,2.378427695407794,1.1257606066427694,B,1075,Correct
2,relearn,43,412,A,42.57219112616692,68.72960531785807,2.128609556308346,1.0796021157535445,B,2760,Incorrect
2,relearn,43,413,B,49.84470230806193,21.012528280428352,2.4922351154030964,0.33006402239570737,A,2608,Incorrect
2,relearn,43,414,A,53.4081398942621,74.94090076227039,2.670406994713105,1.177168916440752,A,647,Incorrect
2,relearn,43,415,A,48.15382202114742,55.7785612535464,2.407691101057371,0.8761675913097482,B,508,Incorrect
2,relearn,43,416,B,30.528606623957984,14.817210117332522,1.5264303311978993,0.23274819225654106,A,592,Correct
2,relearn,43,417,A,16.52190278131099,40.042140581797234,0.8260951390655495,0.6289804734289196,A,586,Incorrect
2,relearn,43,418,B,65.5992690455852,41.96226715514661,3.27996345227926,0.6591417511129043,B,918,Incorrect
2,relearn,43,419,B,33.26375631235531,19.148627647407096,1.6631878156177657,0.3007859397171027,A,4651,Correct
2,relearn,43,420,A,42.26984302013157,60.66739898285759,2.1134921510065783,0.9529612747847316,B,3649,Incorrect
2,relearn,43,421,A,14.145146856221718,37.59245043729841,0.7072573428110859,0.5905008306212755,A,656,Correct
2,relearn,43,422,B,51.82233201153234,44.31532578774593,2.5911166005766173,0.6961035096811046,B,1174,Incorrect
2,relearn,43,423,A,49.53206625169463,71.61077143450787,2.4766033125847313,1.1248593672827387,A,5839,Correct
2,relearn,43,424,A,34.80342226240142,49.44284031336116,1.740171113120071,0.7766463195053435,B,7488,Correct
2,relearn,43,425,B,42.44392481405856,19.790031678400183,2.122196240702928,0.31086109067585654,A,5104,Incorrect
2,relearn,43,426,A,52.668926934743354,64.2402694611113,2.6334463467371676,1.0090837930182799,B,687,Incorrect
2,relearn,43,427,B,67.50261801427564,37.12597643113588,3.375130900713782,0.5831734740670214,B,709,Correct
2,relearn,43,428,B,56.209207187866454,43.368307321729546,2.810460359393323,0.6812277784028499,B,3270,Incorrect
2,relearn,43,429,A,54.32766989979875,82.65203149808008,2.7163834949899375,1.2982950747932025,A,2207,Incorrect
2,relearn,43,430,A,68.65707716607933,82.69083043589049,3.4328538583039663,1.2989045270831643,B,637,Incorrect
2,relearn,43,431,B,34.44455745624532,17.74192573946045,1.722227872812266,0.278689517818123,A,761,Incorrect
2,relearn,43,432,B,64.7157397460737,34.57541439567375,3.235786987303685,0.5431093393013571,B,638,Correct
2,relearn,43,433,B,40.17791621344524,30.903619286170677,2.0088958106722625,0.48543291659384824,A,1129,Correct
2,relearn,43,434,A,22.190902145933546,43.62565253902356,1.1095451072966773,0.6852701476232865,A,601,Correct
2,relearn,43,435,B,65.24763197353337,52.6995342475986,3.2623815986766687,0.8278023481992974,B,4425,Correct
2,relearn,43,436,A,53.91802045698958,73.53226010428587,2.695901022849479,1.1550420407273916,B,950,Correct
2,relearn,43,437,B,61.08182959662503,52.949008565995314,3.0540914798312513,0.8317210816289695,B,591,Incorrect
2,relearn,43,438,A,21.222964049546903,40.02749987573268,1.061148202477345,0.6287504977558408,A,1000,Correct
2,relearn,43,439,A,41.35930535667338,50.318562754309276,2.067965267833669,0.7904021354406752,B,1114,Incorrect
2,relearn,43,440,B,65.04086310921114,39.285178722457196,3.2520431554605573,0.6170901443471679,B,723,Incorrect
2,relearn,43,441,B,54.35886089164033,28.759927913569722,2.7179430445820167,0.4517598912552134,B,2114,Incorrect
2,relearn,43,442,A,40.67534755547971,50.806538889418114,2.0337673777739855,0.7980672466466003,A,690,Incorrect
2,relearn,43,443,B,53.709417433812206,45.06989561828254,2.68547087169061,0.7079562648622761,A,1178,Incorrect
2,relearn,43,444,A,57.11119394357666,85.66988629810282,2.855559697178833,1.3456994271399636,B,779,Correct
2,relearn,43,445,B,62.59342847489868,34.45271996141605,3.129671423744934,0.5411820596348554,B,979,Correct
2,relearn,43,446,B,43.17065807426032,26.455584304815453,2.1585329037130156,0.41556334649216825,A,1034,Incorrect
2,relearn,43,447,A,51.18330874551417,77.14204021658492,2.5591654372757087,1.2117443341367578,B,1372,Correct
2,relearn,43,448,A,41.32052007575905,63.0041581226736,2.0660260037879525,0.9896670015190054,A,762,Correct
2,relearn,43,449,B,77.89395675339209,64.56625835720116,3.8946978376696046,1.014204414623819,B,698,Correct
2,relearn,43,450,A,35.10168035089883,63.22815027790772,1.7550840175449418,0.9931854620657318,A,659,Correct
2,relearn,43,451,A,28.80104555344107,38.025190509694035,1.4400522776720535,0.5972982957830355,A,840,Incorrect
2,relearn,43,452,A,22.150356874587832,52.03061892906733,1.1075178437293915,0.8172950509464398,A,706,Correct
2,relearn,43,453,A,65.9565023178657,81.32455351304014,3.2978251158932848,1.2774430993651846,B,4524,Incorrect
2,relearn,43,454,A,42.425272326930596,49.44581461858206,2.12126361634653,0.776693039782501,A,951,Correct
2,relearn,43,455,A,48.24845375869276,63.14630021998465,2.412422687934638,0.9918997643623966,B,1212,Incorrect
2,relearn,43,456,B,37.272317719324505,16.73120327639083,1.8636158859662253,0.2628131264941346,A,693,Incorrect
2,relearn,43,457,A,46.753005895344955,71.52124527383549,2.337650294767248,1.1234530936393765,B,742,Incorrect
2,relearn,43,458,A,13.609533376845818,41.036579915950355,0.6804766688422909,0.6446010899620004,A,589,Correct
2,relearn,43,459,A,36.58673596351526,52.63793879988958,1.829336798175763,0.8268348091692114,A,742,Correct
2,relearn,43,460,A,61.93182540160383,84.11308071390596,3.096591270080191,1.3212451822080615,B,2609,Correct
2,relearn,43,461,B,67.46180555151811,36.55209682573733,3.3730902775759057,0.5741589943051959,A,2718,Correct
2,relearn,43,462,B,79.15742106717167,54.60246351313705,3.9578710533585832,0.8576934912038804,B,1060,Correct
2,relearn,43,463,A,67.12936637112048,88.774726683237,3.356468318556024,1.3944701458624957,B,1747,Correct
2,relearn,43,464,A,60.716393053137494,73.95918722593224,3.035819652656875,1.161748196272304,B,1211,Incorrect
2,relearn,43,465,A,60.27384093455174,82.49064383343837,3.013692046727587,1.2957600032851107,B,1026,Incorrect
2,relearn,43,466,B,53.78891382667865,27.238217813397,2.6894456913339324,0.4278569248972333,B,1613,Correct
2,relearn,43,467,A,16.475551648997516,35.83089411974917,0.8237775824498758,0.5628303686907885,A,2764,Correct
2,relearn,43,468,A,38.614353782187735,58.293300654744094,1.9307176891093867,0.9156690254522256,A,1758,Correct
2,relearn,43,469,B,82.80726149331983,52.68946928950994,4.140363074665991,0.8276442482073472,B,2561,Incorrect
2,relearn,43,470,B,69.50764500072701,51.29814912748188,3.4753822500363505,0.8057894422082534,B,669,Incorrect
2,relearn,43,471,B,65.18935629406695,57.01886265420076,3.259467814703348,0.8956502001524127,A,472,Correct
2,relearn,43,472,B,48.532661913264405,24.306181415106206,2.4266330956632203,0.3818006048525921,B,1456,Correct
2,relearn,43,473,A,25.18286026001359,37.7627225099978,1.2591430130006795,0.593175458084795,A,786,Correct
2,relearn,43,474,A,30.231016824256614,50.04592119020026,1.5115508412128307,0.7861194917663344,A,1017,Correct
2,relearn,43,475,A,48.631387670685235,56.990601858580085,2.4315693835342618,0.89520628061288,A,1114,Correct
2,relearn,43,476,B,61.57301183539441,48.194517776310626,3.078650591769721,0.7570377149468009,B,1601,Incorrect
2,relearn,43,477,B,65.36297724680618,34.431947045102575,3.268148862340309,0.5408557594284352,B,625,Incorrect
2,relearn,43,478,A,52.37592998720402,73.23769403566529,2.618796499360201,1.1504150077415154,B,461,Incorrect
2,relearn,43,479,A,42.28663115634279,68.99000566572734,2.1143315578171396,1.083692474852836,A,647,Correct
2,relearn,43,480,A,50.14152581124091,72.32561456646019,2.5070762905620456,1.1360880969417915,A,821,Correct
2,relearn,43,481,B,58.765134859784496,46.831585878160865,2.938256742989225,0.7356288307539484,A,507,Incorrect
2,relearn,43,482,A,45.43462383143699,62.78042221821612,2.2717311915718494,0.9861525661500659,B,523,Incorrect
2,relearn,43,483,B,47.11074648206768,17.662768011540386,2.355537324103384,0.2774461111355804,B,566,Incorrect
2,relearn,43,484,A,63.158280649586644,83.01378780728326,3.157914032479332,1.3039775296101153,B,502,Incorrect
2,relearn,43,485,B,51.68438999450085,23.15239788607289,2.5842194997250427,0.3636770155593722,B,594,Correct
2,relearn,43,486,B,57.60693479356598,47.91533831636781,2.8803467396782994,0.7526523742448531,B,1680,Correct
2,relearn,43,487,B,56.07536817149355,48.29763986904179,2.8037684085746775,0.7586575529915358,B,956,Incorrect
2,relearn,43,488,A,19.341432587821203,47.58614666469727,0.9670716293910602,0.7474814438722969,A,577,Incorrect
2,relearn,43,489,B,68.29568957121366,47.07822405771795,3.4147844785606827,0.7395030142189047,A,548,Correct
2,relearn,43,490,A,65.75569743528249,86.85731652792917,3.2877848717641247,1.364351537573328,A,960,Incorrect
2,relearn,43,491,A,46.553746235565285,73.19571947055269,2.327687311778264,1.1497556728145386,B,1111,Incorrect
2,relearn,43,492,A,16.829779006891084,39.43904204669772,0.8414889503445542,0.6195070237926227,A,874,Correct
2,relearn,43,493,A,54.822719069292724,75.81157587688216,2.7411359534646365,1.1908454491593907,A,959,Incorrect
2,relearn,43,494,A,34.52602794705716,63.51407605314673,1.726301397352858,0.9976767736405459,B,1090,Correct
2,relearn,43,495,B,55.94966121534439,37.5621605438654,2.79748306076722,0.5900250380878396,B,813,Incorrect
2,relearn,43,496,B,86.04124836126744,65.49691531372552,4.302062418063372,1.0288231399119645,B,1287,Correct
2,relearn,43,497,A,46.225643671796604,56.092081833304384,2.3112821835898303,0.8810923610603328,A,1623,Incorrect
2,relearn,43,498,B,67.88547669188397,45.81165288077794,3.3942738345941983,0.7196077606952882,B,1052,Incorrect
2,relearn,43,499,B,43.35432625888121,28.85013364371536,2.1677163129440604,0.45317683955089955,A,873,Incorrect
2,relearn,43,500,A,30.406183275202167,51.6412475421624,1.5203091637601085,0.8111788195033468,A,1168,Correct
2,relearn,43,501,B,55.65388391577965,45.03806234077319,2.7826941957889826,0.7074562289084608,B,5007,Incorrect
2,relearn,43,502,B,44.894917965010286,21.689004055312196,2.2447458982505144,0.34069007901924014,A,2231,Incorrect
2,relearn,43,503,B,60.78447186654133,45.49867869875764,3.039223593327067,0.714691573740297,B,829,Incorrect
2,relearn,43,504,B,66.28299979554095,38.38300281654771,3.3141499897770474,0.6029187983559131,A,3034,Correct
2,relearn,43,505,B,85.36740259099498,67.46668773692825,4.268370129549749,1.0597642527818518,B,1417,Correct
2,relearn,43,506,B,66.55495878977044,55.233365311215366,3.327747939488522,0.8676036734737775,B,4838,Correct
2,relearn,43,507,A,43.40125074693911,58.46644024585789,2.170062537346956,0.9183886957896688,A,2502,Correct
2,relearn,43,508,B,49.704401033898556,33.6712942949574,2.485220051694928,0.5289074539694903,A,2719,Incorrect
2,relearn,43,509,A,13.212306744784872,31.914880018680304,0.6606153372392436,0.5013177630344287,B,1180,Incorrect
2,relearn,43,510,B,43.881887478526565,17.55748386578098,2.194094373926328,0.27579231164129425,A,4590,Correct
2,relearn,43,511,A,53.49296251588885,78.64107923721929,2.6746481257944423,1.2352911840101046,B,3957,Correct
2,relearn,43,512,B,76.66626440800155,53.19120359435278,3.8333132204000777,0.8355254722380884,A,1716,Incorrect
2,relearn,43,513,B,46.482070303672366,17.24367070680049,2.3241035151836185,0.2708629460670297,B,1357,Correct
2,relearn,43,514,B,32.14955898451048,19.033898213372602,1.6074779492255238,0.29898377398153625,B,1237,Correct
2,relearn,43,515,A,60.66355504312955,76.2001605202616,3.033177752156478,1.1969493224640844,A,901,Correct
2,relearn,43,516,A,23.656226333839303,53.87948427724319,1.1828113166919652,0.84633695992297,A,1057,Correct
2,relearn,43,517,B,69.68859511199867,36.50325158165359,3.4844297555999333,0.5733917350053146,A,2132,Incorrect
2,relearn,43,518,A,47.809067930218234,58.70262641513756,2.390453396510912,0.9220986994611114,B,1709,Incorrect
2,relearn,43,519,B,74.96913304094652,53.29395649618753,3.748456652047326,0.837139511045784,B,1601,Correct
2,relearn,43,520,B,73.36232609544966,62.40156311501224,3.6681163047724827,0.9802014612732113,B,2944,Incorrect
2,relearn,43,521,B,78.41491414682396,57.15212902135892,3.9207457073411978,0.8977435433525858,B,974,Incorrect
2,relearn,43,522,B,60.352505598556476,34.858769332228434,3.017625279927824,0.5475602682365501,A,835,Correct
2,relearn,43,523,A,28.31148817982787,41.57153152026432,1.4155744089913935,0.6530040901126946,A,3463,Correct
2,relearn,43,524,B,71.8669723089462,43.22189995025397,3.5933486154473098,0.6789280167895545,A,2232,Incorrect
2,relearn,43,525,A,41.656828408932036,69.69523892570568,2.0828414204466017,1.0947702529959118,A,2713,Correct
2,relearn,43,526,A,46.71648573827186,58.722085251092274,2.3358242869135926,0.9224043581415253,A,1344,Incorrect
2,relearn,43,527,A,68.58599065862734,82.38146529017001,3.429299532931367,1.2940450307378033,A,1571,Incorrect
2,relearn,43,528,A,65.46761604174942,84.32453590679235,3.273380802087471,1.3245667126107377,B,565,Incorrect
2,relearn,43,529,B,72.53123335256088,43.1490571539125,3.626561667628044,0.6777838048202882,B,607,Incorrect
2,relearn,43,530,B,55.44180790436549,28.37133521972146,2.7720903952182745,0.4456558914940515,B,678,Correct
2,relearn,43,531,A,45.119517471854216,53.48877880182194,2.255975873592711,0.8401997726664662,A,1899,Incorrect
2,relearn,43,532,A,25.312667398302747,55.928576526299,1.2656333699151374,0.8785240257037774,A,735,Incorrect
2,relearn,43,533,B,68.60773420826635,54.707282938605566,3.430386710413318,0.8593399908889074,B,720,Correct
2,relearn,43,534,B,62.10130060407589,37.89893724497708,3.1050650302037948,0.5953151141384029,B,610,Incorrect
2,relearn,43,535,B,67.1265718169979,35.235742339700295,3.3563285908498948,0.5534817463909264,B,1215,Correct
2,relearn,43,536,A,23.34057281734358,48.82372473460113,1.167028640867179,0.7669212747355659,A,2055,Incorrect
2,relearn,43,537,A,55.758279741294736,84.6411789706179,2.7879139870647367,1.3295405302263605,A,1216,Incorrect
2,relearn,43,538,A,47.49658518712315,56.29334599057677,2.3748292593561575,0.884253811049922,B,800,Correct
2,relearn,43,539,B,54.97420286703051,39.58696605140116,2.7487101433515253,0.6218306086249521,B,1789,Incorrect
2,relearn,43,540,B,48.497669494371706,33.270174948015736,2.4248834747185852,0.522606686001667,A,1327,Incorrect
2,relearn,43,541,B,52.72902099882859,26.567931894886343,2.6364510499414293,0.4173280983102444,A,1344,Correct
2,relearn,43,542,A,58.714270699204235,80.73292603678495,2.935713534960212,1.2681498366998585,B,1349,Incorrect
2,relearn,43,543,A,22.531322993361492,38.66441186135407,1.1265661496680748,0.6073391612950001,A,872,Correct
2,relearn,43,544,B,36.80310132371965,12.769631386719134,1.8401550661859827,0.20058490076783236,A,4434,Correct
2,relearn,43,545,B,67.44423284030829,46.53332514621928,3.3722116420154147,0.7309437621323385,B,1160,Incorrect
2,relearn,43,546,B,42.54130890293179,33.95418359748149,2.12706544514659,0.5333510687424345,B,570,Correct
2,relearn,43,547,A,45.567546826134375,75.54116975217578,2.2783773413067188,1.1865979196850744,A,1575,Correct
2,relearn,43,548,A,29.031796404321447,56.269556878295006,1.4515898202160724,0.883880132548023,A,2672,Correct
2,relearn,43,549,B,49.93823578947744,39.9727696183425,2.496911789473872,0.6278907968831103,B,1768,Incorrect
2,relearn,43,550,A,16.92070907311746,37.802059557907086,0.8460354536558731,0.5937933629884236,A,707,Incorrect
2,relearn,43,551,B,69.93024650586463,51.11492305227811,3.496512325293231,0.8029113337492223,B,754,Correct
2,relearn,43,552,B,43.64511018768482,21.05391271960953,2.182255509384241,0.33071408764623006,B,654,Incorrect
2,relearn,43,553,B,69.08742365578895,36.1490224883335,3.4543711827894477,0.5678275174190036,B,1236,Correct
2,relearn,43,554,A,27.19331866510322,56.90512785283888,1.359665933255161,0.8938636580703329,B,4963,Incorrect
2,relearn,43,555,B,73.54337629873109,60.950597125202236,3.6771688149365547,0.9574097408022327,A,1055,Correct
2,relearn,43,556,B,52.77026064572898,30.971661956762095,2.6385130322864487,0.4865017283641514,A,1407,Incorrect
2,relearn,43,557,B,80.06067945870913,65.52794265592453,4.003033972935457,1.0293105162635288,B,1233,Correct
2,relearn,43,558,A,42.65282283256622,50.758517313514055,2.132641141628311,0.7973129254962306,A,3840,Correct
2,relearn,43,559,B,73.37519639161937,44.94201746204679,3.6687598195809685,0.7059475594813519,B,3112,Incorrect
2,relearn,43,560,A,24.283813434335542,46.99911631269546,1.2141906717167772,0.7382603926658814,A,645,Correct
2,relearn,43,561,A,67.88445297706662,88.13175427482946,3.394222648853331,1.3843703588889253,A,1090,Correct
2,relearn,43,562,A,53.75131995172224,64.54068510582181,2.6875659975861117,1.0138027109305099,B,2045,Incorrect
2,relearn,43,563,B,85.89159294001844,60.6617301160628,4.294579647000922,0.952872228433348,B,762,Incorrect
2,relearn,43,564,A,33.463714346934616,46.259715183485696,1.6731857173467306,0.7266459068879744,A,1010,Correct
2,relearn,43,565,A,63.091913728720534,72.52932871100617,3.1545956864360267,1.139288031241481,B,1287,Incorrect
2,relearn,43,566,B,63.6770661809834,53.11222865901413,3.18385330904917,0.8342849368547003,B,622,Incorrect
2,relearn,43,567,B,58.64804675165498,39.66537043790115,2.932402337582749,0.6230621818481401,A,1098,Incorrect
2,relearn,43,568,B,64.91044908770581,40.54578597177451,3.245522454385291,0.6368917167147543,B,905,Incorrect
2,relearn,43,569,A,24.786137807487357,48.16416864189975,1.239306890374368,0.7565609918582606,A,648,Correct
2,relearn,43,570,A,23.77193340872318,44.91436507835756,1.188596670436159,0.7055131968540903,A,1158,Incorrect
2,relearn,43,571,A,30.85443061936183,46.41105319418665,1.5427215309680915,0.7290231188011095,A,573,Incorrect
2,relearn,43,572,B,48.39138221304052,31.960875538696953,2.419569110652026,0.5020402589733404,B,628,Correct
2,relearn,43,573,B,63.93885427578439,53.38387608357061,3.1969427137892192,0.8385519646214665,B,4260,Correct
2,relearn,43,574,B,40.65017975566998,13.64167395706156,2.032508987783499,0.214282913430859,B,1262,Incorrect
2,relearn,43,575,B,52.02051431795283,28.112446379546224,2.601025715897641,0.441589275102097,B,850,Correct
2,relearn,43,576,A,56.92040509341345,78.92468561117593,2.8460202546706728,1.2397460625147718,A,1030,Correct
2,relearn,43,577,B,65.31096394422423,47.93500287248829,3.2655481972112113,0.7529612643700742,B,6693,Incorrect
2,relearn,43,578,B,83.1553265654081,59.16718319665384,4.157766328270405,0.9293959403210457,A,595,Incorrect
2,relearn,43,579,A,16.608652273913435,42.38174072789012,0.8304326136956718,0.6657308265854347,A,615,Incorrect
2,relearn,43,580,A,23.074548188476193,41.87809685889728,1.1537274094238097,0.6578196071911674,B,703,Correct
2,relearn,43,581,B,47.03287950378514,39.976669649489196,2.3516439751892566,0.6279520584291066,B,5819,Incorrect
2,relearn,43,582,B,69.14164431924172,57.94218852647488,3.457082215962086,0.9101537690384414,A,1183,Incorrect
2,relearn,43,583,B,78.88657559367469,64.54613100029856,3.944328779683735,1.0138882548409118,B,684,Incorrect
2,relearn,43,584,A,57.729873247587584,71.51975145669616,2.886493662379379,1.1234296288146226,B,737,Correct
2,relearn,43,585,A,42.100455771850854,54.90844266445841,2.1050227885925428,0.8624998004735946,B,3111,Correct
2,relearn,43,586,B,56.98100142955366,35.80255775737142,2.849050071477683,0.5623852621514115,B,6442,Correct
2,relearn,43,587,B,59.116868923839874,28.66452741922948,2.955843446191994,0.45026134379437266,B,6296,Correct
2,relearn,43,588,A,34.754709815737684,55.85598626714577,1.737735490786884,0.8773837805793875,A,989,Correct
2,relearn,43,589,B,62.28169261554749,41.99107592512566,3.1140846307773744,0.65959427821353,B,2201,Correct
2,relearn,43,590,B,40.268685003778316,28.850106697475884,2.013434250188916,0.45317641628035965,A,1151,Correct
2,relearn,43,591,B,79.7039471257105,57.86084646601063,3.985197356285525,0.9088760509405296,B,1519,Correct
2,relearn,43,592,A,48.15655942051126,63.66312441623765,2.407827971025563,1.0000180198531259,A,1280,Correct
2,relearn,43,593,A,46.21512499537972,76.79089743044463,2.310756249768986,1.206228596150261,B,1105,Incorrect
2,relearn,43,594,B,88.72287022708565,63.32969887827022,4.436143511354283,0.9947805837501374,A,608,Incorrect
2,relearn,43,595,B,65.02099586074003,48.70349943308232,3.2510497930370015,0.7650327801154303,B,648,Correct
2,relearn,43,596,B,85.75598344936624,57.62309729577261,4.287799172468312,0.9051414957074455,A,671,Incorrect
2,relearn,43,597,A,35.83496968528087,45.747786680825534,1.7917484842640434,0.7186045527723723,B,277,Incorrect
2,relearn,43,598,B,39.79937819727721,24.679536394140527,1.9899689098638604,0.3876652511491691,A,625,Incorrect
2,relearn,43,599,B,57.66496280619938,32.03208844956821,2.883248140309969,0.5031588687615097,B,569,Correct
2,relearn,43,600,A,56.210355661190306,76.46472677392735,2.8105177830595154,1.2011051194586047,A,995,Correct
2,relearn,43,601,A,60.58524765984217,74.954239053953,3.029262382992108,1.1773784338365596,A,929,Correct
2,relearn,43,602,A,31.275980684775995,64.15544424054626,1.5637990342387997,1.0077513615694487,A,3614,Correct
2,relearn,43,603,B,46.57860603843491,38.285475637453324,2.3289303019217455,0.6013868450090718,A,1869,Incorrect
2,relearn,43,604,A,25.118785494682662,38.05851855113055,1.2559392747341331,0.5978218114337129,A,623,Correct
2,relearn,43,605,B,50.97662045460699,41.597642459575475,2.548831022730349,0.6534142397882858,B,648,Correct
2,relearn,43,606,B,54.215762319007816,27.401837353534706,2.710788115950391,0.43042705462363506,B,1511,Correct
2,relearn,43,607,B,41.850015583022625,24.649519963951946,2.0925007791511314,0.38719375416633184,A,410,Incorrect
2,relearn,43,608,B,46.01008430610375,29.0457669541439,2.3005042153051876,0.45624984040509836,B,377,Correct
2,relearn,43,609,B,61.911818545409254,44.8364203523476,3.0955909272704627,0.7042888439609956,B,741,Correct
2,relearn,43,610,B,77.03312686342322,51.402915580072076,3.851656343171161,0.8074351097972537,B,440,Correct
2,relearn,43,611,B,50.020708118407,34.94725144058038,2.50103540592035,0.5489501419444133,B,1831,Correct
2,relearn,43,612,A,16.68160743453698,36.64214973695654,0.8340803717268489,0.5755735421267992,A,610,Correct
2,relearn,43,613,B,53.562114982513535,43.726665222120715,2.678105749125677,0.6868568511389737,A,1211,Incorrect
2,relearn,43,614,B,45.050345206432425,27.293899771880326,2.2525172603216213,0.4287315750557768,A,617,Incorrect
2,relearn,43,615,A,34.9821880424173,43.68438202768409,1.749109402120865,0.6861926682739116,B,536,Incorrect
2,relearn,43,616,A,15.756963933607928,37.44208822224772,0.7878481966803963,0.5881389464703718,A,705,Correct
2,relearn,43,617,A,31.353217111039385,47.996439058145924,1.5676608555519693,0.7539263017177072,A,768,Correct
2,relearn,43,618,B,51.1789857702847,36.4110529890878,2.558949288514235,0.5719434828999345,B,780,Correct
2,relearn,43,619,A,46.27097914478558,71.27903420890041,2.313548957239279,1.1196484511282854,B,1081,Incorrect
2,relearn,43,620,A,14.007526771031124,31.930886350468676,0.7003763385515562,0.5015691899062149,A,544,Correct
2,relearn,43,621,A,61.77750331129468,82.68164869892182,3.088875165564734,1.2987603006961246,B,808,Incorrect
2,relearn,43,622,B,45.99030126878889,38.68736848463204,2.299515063439445,0.6076997630902065,B,580,Correct
2,relearn,43,623,A,19.299780192197954,42.26720489799281,0.9649890096098978,0.6639317019765436,A,765,Correct
2,relearn,43,624,A,55.35997097553047,67.24904667364656,2.7679985487765237,1.0563455549542258,B,1374,Incorrect
2,relearn,43,625,A,46.629031096686965,73.03746022839069,2.331451554834348,1.1472697424518443,A,678,Correct
2,relearn,43,626,A,37.3355803696959,66.7177636191468,1.8667790184847948,1.0480001802492598,A,3014,Correct
2,relearn,43,627,A,56.80401159442816,79.82793709876529,2.840200579721408,1.2539343037035455,B,2372,Incorrect
2,relearn,43,628,A,45.170959948746614,74.44270886917917,2.2585479974373306,1.1693433364836852,A,598,Correct
2,relearn,43,629,A,37.288675112209255,56.26013327351745,1.8644337556104629,0.8837321069103256,A,1111,Correct
2,relearn,43,630,A,40.147634012750856,61.478819719508024,2.007381700637543,0.9657070419108884,A,673,Correct
2,relearn,43,631,A,51.3372845614342,67.90690020413268,2.56686422807171,1.0666790940467923,B,997,Incorrect
2,relearn,43,632,A,44.493250820531955,52.47529476277088,2.2246625410265977,0.8242800026083996,B,451,Incorrect
2,relearn,43,633,A,60.07829577391898,87.1769993511735,3.003914788695949,1.3693731036182442,B,608,Incorrect
2,relearn,43,634,A,14.806377060333382,40.92115860702546,0.740318853016669,0.6427880562810697,A,612,Correct
2,relearn,43,635,B,76.85209098911749,47.1399623573737,3.8426045494558743,0.740472797162123,B,597,Correct
2,relearn,43,636,A,60.512253996869305,76.13506206305945,3.025612699843465,1.1959267582895527,B,609,Incorrect
2,relearn,43,637,B,65.4409313048756,35.71977703962585,3.2720465652437802,0.5610849456777697,A,872,Incorrect
2,relearn,43,638,A,56.68934286770194,73.92954771274638,2.834467143385097,1.1612826198879005,B,816,Incorrect
2,relearn,43,639,B,61.385562544008955,32.31952712112902,3.0692781272004477,0.507673944856175,B,936,Correct
2,relearn,43,640,B,66.1422284833196,53.38893672251477,3.30711142416598,0.8386314569521136,B,880,Correct
2,relearn,43,641,A,16.5663421327773,32.64448718577577,0.8283171066388649,0.5127784056151966,A,764,Correct
2,relearn,43,642,B,76.57777049051441,52.58942918929068,3.8288885245257207,0.826072821987781,A,2152,Incorrect
2,relearn,43,643,B,71.09737192293443,40.270822361701036,3.5548685961467212,0.6325725984276976,A,544,Incorrect
2,relearn,43,644,B,86.37588916371237,67.5770537511606,4.318794458185619,1.0614978780794437,A,423,Incorrect
2,relearn,43,645,B,53.829521223802004,40.21421934055865,2.6914760611901,0.6316834802507382,A,528,Incorrect
2,relearn,43,646,A,41.91829205841837,63.55959411532241,2.095914602920919,0.9983917696892296,A,1201,Correct
2,relearn,43,647,A,22.588386110474698,39.694156108179854,1.129419305523735,0.6235143460995212,A,594,Correct
2,relearn,43,648,A,62.222375797875564,80.9607941897178,3.111118789893778,1.2717291812760632,B,631,Incorrect
2,relearn,43,649,B,74.50562228918291,50.7721587529553,3.725281114459145,0.7975272047258954,B,539,Correct
2,relearn,43,650,A,23.051806533416865,53.39872208157901,1.1525903266708433,0.8387851650128583,A,609,Correct
2,relearn,43,651,B,71.6994830456139,54.12100689108737,3.584974152280695,0.8501307882696133,B,833,Correct
2,relearn,43,652,A,28.026649669231944,50.94409365498432,1.4013324834615972,0.8002279518514456,A,1407,Correct
2,relearn,43,653,B,89.44983276017166,66.45263296316172,4.472491638008583,1.043835517643839,B,551,Correct
2,relearn,43,654,B,64.10781921915871,48.87860211998928,3.205390960957936,0.767783286689484,B,962,Correct
2,relearn,43,655,A,30.67065807505849,55.79743786329209,1.5335329037529246,0.876464104402257,A,472,Correct
2,relearn,43,656,B,75.16291985621231,44.10864556665964,3.7581459928106153,0.6928569843600696,B,682,Correct
2,relearn,43,657,B,72.72689955812334,61.171089219394275,3.636344977906167,0.9608732225186742,B,734,Correct
2,relearn,43,658,B,70.26980241861607,49.137654954660924,3.513490120930803,0.7718524791009643,B,623,Correct
2,relearn,43,659,A,58.05837674529295,75.79272984680075,2.9029188372646475,1.1905494164111254,A,1195,Correct
2,relearn,43,660,B,64.61593674810888,34.34388737043955,3.230796837405444,0.5394725212934408,B,809,Correct
2,relearn,43,661,B,41.23958358306761,30.52739749064645,2.0619791791533806,0.47952323844915185,A,1652,Incorrect
2,relearn,43,662,B,32.701837240484224,12.717756487831707,1.6350918620242112,0.19977005176158008,A,727,Incorrect
2,relearn,43,663,A,58.67037378503096,77.7825528277298,2.933518689251548,1.2218054827052798,B,596,Incorrect
2,relearn,43,664,B,45.117609913844035,37.383387766368806,2.255880495692202,0.5872168818656139,A,551,Incorrect
2,relearn,43,665,A,14.871782160614565,36.07277136552923,0.7435891080307283,0.5666297675828543,A,543,Correct
2,relearn,43,666,B,43.3128705801616,22.94550636674237,2.1656435290080798,0.3604271711732783,B,759,Correct
2,relearn,43,667,B,58.48762214138345,31.197080455463592,2.9243811070691725,0.4900425938616707,B,666,Correct
2,relearn,43,668,A,30.17432744854375,60.31435951754982,1.5087163724271875,0.9474157438315406,A,589,Correct
2,relearn,43,669,A,59.92226416571643,84.88279587902025,2.9961132082858217,1.3333358397484598,B,1303,Incorrect
2,relearn,43,670,A,43.30926889456032,52.03353948020714,2.165463444728016,0.8173409268564661,B,549,Incorrect
2,relearn,43,671,A,11.441424330499224,32.21621026471555,0.5720712165249612,0.5060510474706722,A,563,Correct
2,relearn,43,672,A,69.05468828705051,86.28146761284006,3.4527344143525256,1.35530612396722,A,1021,Correct
2,relearn,43,673,A,53.075016374062535,66.8193320986043,2.6537508187031267,1.0495956141937597,B,1040,Incorrect
2,relearn,43,674,B,78.25321560556517,57.32614598497618,3.9126607802782587,0.900476995425086,B,511,Correct
2,relearn,43,675,A,31.68967651284332,58.986471287925944,1.584483825642166,0.9265573242966672,A,551,Correct
2,relearn,43,676,A,40.943086452276724,72.88748156981313,2.0471543226138365,1.1449138831919319,A,774,Correct
2,relearn,43,677,B,67.1578041242565,47.54717458305567,3.357890206212825,0.7468692718453953,B,770,Correct
2,relearn,43,678,B,68.11576072293875,46.28673186062156,3.405788036146937,0.7270702838600465,B,733,Correct
2,relearn,43,679,A,48.16062837329142,63.942749916823125,2.4080314186645713,1.0044103669451043,B,679,Incorrect
2,relearn,43,680,A,29.726600313778597,59.98019297174472,1.4863300156889299,0.9421666680046568,A,596,Correct
2,relearn,43,681,B,49.57616401629377,27.755978710423193,2.4788082008146883,0.435989894049301,B,1542,Correct
2,relearn,43,682,A,62.62206670888037,82.18920043299218,3.1311033354440183,1.2910249414235364,B,1559,Incorrect
2,relearn,43,683,B,87.39480453885285,60.808134783973784,4.369740226942643,0.9551719475791499,B,853,Correct
2,relearn,43,684,A,30.263020037453607,52.530078297442046,1.5131510018726804,0.8251405403587028,B,1311,Incorrect
2,relearn,43,685,B,59.04091395017038,28.989611737190536,2.9520456975085185,0.45536775631989107,B,689,Correct
2,relearn,43,686,B,45.436444044751454,22.026711956150788,2.2718222022375727,0.3459947823209089,A,1508,Incorrect
2,relearn,43,687,A,49.52248202349908,71.2583760342691,2.476124101174954,1.1193239532799941,A,548,Correct
2,relearn,43,688,A,40.9589190511548,56.31953376474918,2.04794595255774,0.8846651676446917,A,1949,Correct
2,relearn,43,689,B,59.73649407821647,40.10436648320714,2.9868247039108233,0.6299579156025813,B,749,Correct
2,relearn,43,690,B,53.985294118659155,39.712776303760094,2.6992647059329578,0.6238068314477376,A,2223,Incorrect
2,relearn,43,691,B,42.7026332451853,29.960742799030143,2.1351316622592647,0.470622247367632,A,1994,Incorrect
2,relearn,43,692,B,64.3470815789781,35.94493929185575,3.217354078948905,0.5646217860651257,B,648,Correct
2,relearn,43,693,A,65.7089662507356,89.19224899682112,3.28544831253678,1.4010285710278239,B,1581,Incorrect
2,relearn,43,694,B,60.41361345294556,41.62385843129114,3.020680672647278,0.653826039309029,B,746,Correct
2,relearn,43,695,B,59.82580114569943,50.85558936395664,2.991290057284971,0.7988377296989271,B,732,Correct
2,relearn,43,696,A,65.21470815136274,83.79979777905291,3.260735407568137,1.3163241453749144,A,2020,Correct
2,relearn,43,697,A,49.81242666485839,72.52636143855734,2.4906213332429195,1.139241421434849,A,921,Correct
2,relearn,43,698,A,54.93199202051952,81.79380825544892,2.746599601025976,1.2848141356222524,A,958,Correct
2,relearn,43,699,B,46.02331383009834,32.53004800406251,2.301165691504917,0.5109807991524304,A,1565,Incorrect
2,relearn,43,700,A,65.5715641901992,85.7585883121403,3.2785782095099596,1.3470927551182572,A,791,Correct
2,relearn,43,701,A,48.18077845510701,64.44257661534945,2.4090389227553506,1.0122616263658961,A,1102,Correct
2,relearn,43,702,B,51.26314812774428,43.25728596307317,2.563157406387214,0.6794838589791179,B,803,Correct
2,relearn,43,703,A,36.91024241032649,50.204708995442004,1.8455121205163243,0.7886137247784701,A,1112,Correct
2,relearn,43,704,B,86.34523806539349,57.73842562000642,4.317261903269674,0.9069530687882642,B,863,Correct
2,relearn,43,705,A,25.107904435899513,54.09653112942962,1.2553952217949758,0.8497463239045383,A,792,Correct
2,relearn,43,706,B,57.20313131078067,33.52286818181841,2.8601565655390333,0.5265759820362987,B,665,Correct
2,relearn,43,707,A,55.855768736854586,63.63036264725108,2.7927884368427294,0.9995033991892919,A,800,Correct
2,relearn,43,708,B,81.01766993775422,52.182795613852036,4.050883496887711,0.8196854367212763,B,656,Correct
2,relearn,43,709,B,62.57829281091695,54.37598145508181,3.1289146405458474,0.8541359193550994,B,574,Correct
2,relearn,43,710,A,32.954132024854395,52.922158793791304,1.64770660124272,0.8312993263934363,B,816,Incorrect
2,relearn,43,711,A,56.588079663930834,70.32506934752858,2.8294039831965416,1.1046636061269426,B,651,Incorrect
2,relearn,43,712,A,55.215949117528126,64.72954123954476,2.760797455876406,1.016769256141957,B,608,Incorrect
2,relearn,43,713,A,55.71799075751392,77.10154819951957,2.7858995378756957,1.2111082870200502,A,539,Correct
2,relearn,43,714,B,65.34917819036419,53.193462229303485,3.267458909518209,0.8355609507929298,B,489,Correct
2,relearn,43,715,B,65.30214340428034,39.34623566245321,3.265107170214017,0.6180492245178786,B,1104,Correct
2,relearn,43,716,B,58.763830011031715,46.19787842404056,2.9381915005515857,0.7256745773420012,A,1611,Incorrect
2,relearn,43,717,B,40.835293190275515,29.752189594726758,2.0417646595137757,0.46734630129502136,A,519,Incorrect
2,relearn,43,718,A,38.915460299714034,49.94126999974756,1.9457730149857015,0.7844756347107564,A,733,Correct
2,relearn,43,719,B,47.28376761571937,25.84410073285092,2.3641883807859685,0.4059581850047952,A,1261,Incorrect
2,relearn,43,720,A,28.72717614755532,41.3347090664518,1.436358807377766,0.649284091707182,A,599,Correct
2,relearn,43,721,B,52.69135506245033,28.004822791488216,2.6345677531225165,0.439898727734117,B,439,Correct
2,relearn,43,722,B,46.4610864229303,32.35427371746967,2.323054321146515,0.5082197431151801,B,398,Correct
2,relearn,43,723,B,73.10158589710218,48.785436046162445,3.655079294855109,0.766319837423993,B,743,Correct
2,relearn,43,724,A,50.74393510658457,69.62076718684058,2.5371967553292283,1.0936004536573185,B,1013,Incorrect
2,relearn,43,725,B,73.59319021488002,62.06238726800069,3.679659510744001,0.9748736995269783,A,957,Incorrect
2,relearn,43,726,B,49.042522739524976,23.88800797356247,2.452126136976249,0.3752319517931913,B,824,Correct
2,relearn,43,727,B,89.50365171715762,68.4141357562321,4.475182585857881,1.0746467314673678,B,711,Correct
2,relearn,43,728,A,60.06034315195812,73.67197348509187,3.003017157597906,1.1572366533811331,A,673,Correct
2,relearn,43,729,B,64.08479256090455,48.634873183957566,3.204239628045227,0.7639548015149614,A,584,Incorrect
2,relearn,43,730,A,60.27092283859463,76.407128206565,3.0135461419297314,1.2002003632781904,A,692,Correct
2,relearn,43,731,A,19.19165098923554,41.49620951979987,0.959582549461777,0.6518209348961305,A,625,Correct
2,relearn,43,732,A,37.239215940118434,62.293955195855204,1.8619607970059218,0.9785111600317521,B,1790,Incorrect
2,relearn,43,733,B,53.12314237889487,38.67534534407139,2.6561571189447433,0.6075109040399145,B,398,Correct
2,relearn,43,734,A,50.471689714160206,72.40804620770992,2.5235844857080103,1.1373829301346587,B,567,Incorrect
2,relearn,43,735,B,66.56772352272952,58.64017177527301,3.328386176136476,0.9211176642722061,A,350,Incorrect
2,relearn,43,736,A,35.648881412316,62.522255861532244,1.7824440706158,0.9820972985022555,B,249,Incorrect
2,relearn,43,737,B,78.61921304650639,59.39174174373858,3.9309606523253193,0.9329232977301568,A,483,Incorrect
2,relearn,43,738,A,64.90492181794076,80.8688599082312,3.245246090897038,1.2702850809594064,B,382,Incorrect
2,relearn,43,739,B,80.23058139740212,57.650889791009014,4.0115290698701065,0.9055780592017435,B,520,Correct
2,relearn,43,740,A,15.58624632152042,32.58734182711151,0.779312316076021,0.5118807684203646,A,533,Correct
2,relearn,43,741,B,44.192749378674065,27.75268207802234,2.2096374689337033,0.4359381106686406,A,2145,Incorrect
2,relearn,43,742,B,65.55066709053918,38.44567089359436,3.2775333545269585,0.6039031862082349,A,460,Incorrect
2,relearn,43,743,A,24.14869434643765,52.778933724088354,1.2074347173218825,0.8290495522594928,A,764,Correct
2,relearn,43,744,B,84.8588870548094,57.97203044754936,4.24294435274047,0.9106225248385245,B,732,Correct
2,relearn,43,745,A,56.2272395360546,82.73128403990114,2.8113619768027296,1.2995399708090196,B,862,Incorrect
2,relearn,43,746,A,35.28580029618772,61.90076137343041,1.764290014809386,0.9723348859119191,B,497,Incorrect
2,relearn,43,747,B,48.06204450538366,17.751216043848252,2.403102225269183,0.27883544957819467,A,1177,Incorrect
2,relearn,43,748,A,53.91267738720448,62.734330903938655,2.695633869360224,0.985428565478424,A,3413,Correct
2,relearn,43,749,A,45.81514669770981,59.714583995496604,2.29075733488549,0.9379944919621138,A,2099,Correct
2,relearn,43,750,A,34.17301947186859,62.815781705810856,1.7086509735934297,0.9867079916823775,B,4005,Incorrect
2,relearn,43,751,B,66.35212181245979,33.14538550117903,3.3176060906229896,0.5206464979545284,B,642,Correct
2,relearn,43,752,A,56.876342256918406,85.35269743195555,2.84381711284592,1.3407170360815197,A,1833,Correct
2,relearn,43,753,A,59.303064554783134,80.69011086217827,2.965153227739157,1.267477297509826,A,1566,Correct
2,relearn,43,754,A,46.35564548217909,74.65629214342934,2.3177822741089544,1.1726982947102549,A,1479,Correct
2,relearn,43,755,B,60.416618480034195,39.335886651116475,3.02083092400171,0.6178866626279416,B,949,Correct
2,relearn,43,756,A,61.21691141391389,76.40271400764684,3.0608455706956943,1.2001310252037263,B,1075,Incorrect
2,relearn,43,757,A,58.224323693181994,73.87605874937488,2.9112161846591,1.1604424172160204,A,1705,Correct
2,relearn,43,758,B,73.99267777913975,59.249449083622636,3.6996338889569875,0.9306881698517568,B,785,Correct
2,relearn,43,759,B,56.71023961643735,37.97389726579031,2.835511980821867,0.596492583391902,B,602,Correct
2,relearn,43,760,B,38.087857065245004,27.098009707557644,1.9043928532622503,0.42565454112084,B,862,Correct
2,relearn,43,761,B,49.05551021674028,30.436741502000306,2.452775510837014,0.47809921750947854,A,1133,Incorrect
2,relearn,43,762,A,58.35552972930954,84.8779435753424,2.9177764864654767,1.3332596199405233,B,854,Incorrect
2,relearn,43,763,A,42.8841509805093,69.77469297241527,2.144207549025465,1.0960183142431157,A,587,Correct
2,relearn,43,764,A,29.824080600250127,56.07845450955896,1.4912040300125062,0.8808783035594993,A,595,Correct
2,relearn,43,765,A,37.73307875428082,59.76007248211252,1.886653937714041,0.9387090234389911,B,876,Incorrect
2,relearn,43,766,A,34.0157733439001,50.99892269055217,1.700788667195005,0.8010892043281624,A,524,Correct
2,relearn,43,767,B,45.177822965730755,28.98504799961041,2.2588911482865375,0.455296069297618,B,629,Correct
2,relearn,43,768,B,85.06628408511368,58.37453542812018,4.253314204255684,0.9169450582884974,B,631,Correct
2,relearn,43,769,B,89.61684773409864,65.25040324155113,4.480842386704932,1.0249509373371433,B,531,Correct
2,relearn,43,770,A,69.87139760006733,87.20099622967447,3.493569880003366,1.369750045704283,A,1025,Correct
2,relearn,43,771,B,59.35153254039645,28.93300377520908,2.967576627019822,0.454478560532413,A,596,Incorrect
2,relearn,43,772,B,65.73774080270088,42.26938443116296,3.2868870401350443,0.6639659380035217,A,440,Incorrect
2,relearn,43,773,B,58.02970063150838,36.42867661544536,2.9014850315754193,0.5722203141754072,B,569,Correct
2,relearn,43,774,B,36.13340242851889,15.938092144412611,1.8066701214259444,0.25035496596561924,A,1846,Incorrect
2,relearn,43,775,B,51.45153141105953,39.09345491170914,2.572576570552976,0.6140785537703463,B,536,Correct
2,relearn,43,776,A,31.926379660515707,47.37155953466125,1.5963189830257851,0.7441107171159167,B,670,Incorrect
2,relearn,43,777,A,58.99107367458724,69.40238201914343,2.9495536837293623,1.0901700674648669,B,400,Incorrect
2,relearn,43,778,B,54.39049772126059,38.250908425997025,2.7195248860630294,0.6008438645212408,A,460,Incorrect
2,relearn,43,779,B,73.11793098483038,56.36130240581351,3.6558965492415187,0.8853212679242822,B,494,Correct
2,relearn,43,780,A,57.015871923479864,84.54953109453949,2.8507935961739927,1.3281009287553354,B,601,Incorrect
2,relearn,43,781,A,39.99780305703303,71.76369607207312,1.9998901528516515,1.127261501872378,A,939,Correct
2,relearn,43,782,B,52.69075667605472,34.10851428611233,2.634537833802736,0.5357752895305651,B,672,Correct
2,relearn,43,783,B,30.33678425347131,14.834539634340235,1.5168392126735657,0.2330204036731495,A,403,Incorrect
2,relearn,43,784,B,82.51999442105073,60.83539705275719,4.125999721052536,0.9556001822958008,B,514,Correct
2,relearn,43,785,B,51.28577867234278,40.03881303996133,2.564288933617139,0.6289282045239888,B,507,Correct
2,relearn,43,786,A,49.556073758856215,70.78723954217548,2.4778036879428105,1.111923358567997,B,793,Incorrect
2,relearn,43,787,B,75.03015765382128,62.01630135068414,3.751507882691064,0.9741497836306002,B,550,Correct
2,relearn,43,788,B,62.04761688394135,31.531870680290204,3.1023808441970675,0.4953014664157155,B,529,Correct
2,relearn,43,789,A,63.68734495836266,85.48607264430176,3.1843672479181326,1.342812089017909,B,618,Incorrect
2,relearn,43,790,A,28.473071296480178,54.458897555282114,1.423653564824009,0.8554383624113672,A,490,Correct
2,relearn,43,791,B,74.51307787335134,61.3518167761755,3.725653893667567,0.9637120843420998,B,545,Correct
2,relearn,43,792,A,52.29002280095307,81.3209790761018,2.614501140047653,1.2773869522410535,A,667,Correct
2,relearn,43,793,B,40.45851973823501,19.419911839858106,2.0229259869117504,0.30504726184729836,B,767,Correct
2,relearn,43,794,A,19.112191039390236,48.65083991058164,0.9556095519695118,0.7642056062702819,A,436,Correct
2,relearn,43,795,A,44.68456681985562,62.791313649696136,2.2342283409927806,0.9863236483556894,B,555,Incorrect
2,relearn,43,796,B,70.85038880067799,53.617414397292094,3.5425194400338995,0.8422203758750624,A,431,Incorrect
2,relearn,43,797,B,42.773240725124865,32.57102012107711,2.1386620362562434,0.511624387661506,B,914,Correct
2,relearn,43,798,A,13.320758592171035,36.339462642031336,0.6660379296085517,0.5708189443580319,A,440,Correct
2,relearn,43,799,B,41.73790087372359,15.696293658111102,2.0868950436861793,0.2465568042245495,B,619,Correct
2,relearn,43,800,B,73.63702210975498,54.3843945690733,3.681851105487749,0.8542680722406467,B,667,Correct
2,relearn,43,801,B,55.39775616425758,25.934725560981924,2.769887808212879,0.4073817164762412,B,970,Correct
2,relearn,43,802,B,57.69470129374941,32.543619896131325,2.8847350646874705,0.5111939859345239,B,988,Correct
2,relearn,43,803,B,64.81821284290717,45.47994988943594,3.240910642145359,0.7143973822914192,A,570,Incorrect
2,relearn,43,804,A,58.08152523445366,67.04023157980235,2.904076261722683,1.0530654951303275,B,431,Incorrect
2,relearn,43,805,A,19.886340831113984,48.36165718107173,0.9943170415556992,0.759663134577415,A,434,Correct
2,relearn,43,806,B,48.768967838836865,33.93957612480176,2.438448391941843,0.5331216150981438,B,450,Correct
2,relearn,43,807,A,58.764097848260064,71.24629571077905,2.9382048924130033,1.1191341960023473,A,524,Correct
2,relearn,43,808,A,44.36976423438566,76.47082398551122,2.2184882117192832,1.201200894234201,B,494,Incorrect
2,relearn,43,809,A,56.255652515138564,69.29698375694818,2.812782625756928,1.088514475433798,A,469,Correct
2,relearn,43,810,A,66.51334011491723,83.99760721142249,3.3256670057458617,1.3194313286726298,A,450,Correct
2,relearn,43,811,B,79.93122973547281,49.42615622743223,3.9965614867736408,0.7763842464964125,B,570,Correct
2,relearn,43,812,A,29.14441655147418,56.35656921872285,1.457220827573709,0.8852469191953218,A,479,Correct
2,relearn,43,813,A,15.050434851109177,31.75367522141408,0.7525217425554588,0.4987855640003536,A,494,Correct
2,relearn,43,814,B,67.63520404030346,36.889939464496926,3.381760202015173,0.5794658140651787,B,462,Correct
2,relearn,43,815,B,50.356974864923764,22.76068023882383,2.517848743246188,0.35752392914497666,B,658,Correct
2,relearn,43,816,A,17.63840264358943,37.001214390941314,0.8819201321794715,0.5812137165224108,A,451,Correct
2,relearn,43,817,B,81.74007107526091,57.08382053902892,4.087003553763045,0.896670556221257,A,544,Incorrect
2,relearn,43,818,A,62.26461129666629,82.97877452065086,3.1132305648333145,1.3034275421898034,A,948,Correct
2,relearn,43,819,B,36.916556078423184,22.60770480005397,1.8458278039211593,0.35512099657188123,B,787,Correct
2,relearn,43,820,B,87.60138568602608,68.09282491890028,4.380069284301304,1.0695995926369657,B,561,Correct
2,relearn,43,821,B,64.60879450238878,50.8008024783807,3.2304397251194388,0.797977139312735,B,537,Correct
2,relearn,43,822,A,24.020425226304432,47.09193255216246,1.2010212613152218,0.7397183467460982,B,599,Incorrect
2,relearn,43,823,B,74.649772378189,60.37180795718906,3.7324886189094504,0.9483181418111948,B,584,Correct
2,relearn,43,824,A,63.8591370381305,77.41052838958205,3.1929568519065246,1.2159617364960753,B,811,Incorrect
2,relearn,43,825,B,52.32460298518932,29.49950602117056,2.6162301492594664,0.4633771570031865,A,782,Incorrect
2,relearn,43,826,B,44.72532728110066,33.933148184308784,2.236266364055033,0.5330206452449915,A,450,Incorrect
2,relearn,43,827,B,73.8848573696248,63.48408873313263,3.69424286848124,0.99720573391926,A,701,Incorrect
2,relearn,43,828,B,57.813840569062776,47.238567922138216,2.890692028453139,0.7420216897514595,B,974,Correct
2,relearn,43,829,B,37.997608633280535,13.519709203695292,1.899880431664027,0.21236709556499725,A,868,Incorrect
2,relearn,43,830,B,48.144916755185825,39.04824200691759,2.4072458377592914,0.6133683511226432,A,520,Incorrect
2,relearn,43,831,B,48.367495692344704,29.62691185283787,2.418374784617235,0.4653784431271391,B,427,Correct
2,relearn,43,832,B,68.46086525846758,56.41402499403613,3.4230432629233793,0.8861494324034745,B,672,Correct
2,relearn,43,833,A,30.36682518635058,44.447489659628545,1.5183412593175292,0.6981795349259866,B,836,Incorrect
2,relearn,43,834,B,51.42635879694005,28.746860922275495,2.5713179398470025,0.45155463543594104,A,798,Incorrect
2,relearn,43,835,B,69.98646309833495,50.34731693567359,3.499323154916748,0.7908538050653455,B,393,Correct
2,relearn,43,836,B,48.789636868010575,26.591961104668286,2.4394818434005288,0.417705548254857,A,2228,Incorrect
2,relearn,43,837,B,73.42688696866024,59.69677758157705,3.671344348433012,0.9377147894663318,B,449,Correct
2,relearn,43,838,A,62.55165055345171,84.05966961107583,3.1275825276725855,1.3204062025667052,B,642,Incorrect
2,relearn,43,839,A,55.476551800732956,69.36484958920353,2.773827590036648,1.0895805094340139,A,723,Correct
2,relearn,43,840,A,38.6637570880319,62.962091973452026,1.933187854401595,0.9890062279922088,A,597,Correct
2,relearn,43,841,B,50.79111152240653,22.01408997745734,2.5395555761203266,0.3457965167432233,A,2077,Incorrect
2,relearn,43,842,B,37.62665308910006,27.361263235968707,1.8813326544550029,0.42978971787527886,B,430,Correct
2,relearn,43,843,B,51.630545237119996,33.51217572974148,2.581527261856,0.52640802539183,B,528,Correct
2,relearn,43,844,B,83.52568448522875,68.52910010378403,4.176284224261438,1.0764525872158373,B,734,Correct
2,relearn,43,845,B,44.18095472244915,23.57639685617579,2.2090477361224576,0.3703371758073967,B,687,Correct
2,relearn,43,846,A,41.836081594125304,63.52955570275499,2.091804079706265,0.997919927407993,B,500,Incorrect
2,relearn,43,847,B,54.47824415187437,23.48505556712439,2.7239122075937185,0.3689023901941303,B,478,Correct
2,relearn,43,848,A,33.854051225829416,50.23366435139393,1.6927025612914708,0.7890685544461732,A,606,Correct
2,relearn,43,849,B,41.82392439702077,18.01421059152372,2.0911962198510383,0.2829665582727518,B,707,Correct
2,relearn,43,850,B,42.06519546552231,22.143250403911427,2.1032597732761156,0.3478253639776368,B,639,Correct
2,relearn,43,851,A,46.211641973271384,73.54602781040211,2.310582098663569,1.1552583033493493,B,504,Incorrect
2,relearn,43,852,A,39.274428548412004,51.21588476740549,1.9637214274206003,0.8044972366619123,A,610,Correct
2,relearn,43,853,B,46.401719011522104,35.84128500808369,2.3200859505761056,0.5629935883830686,B,613,Correct
2,relearn,43,854,A,52.84966278872455,60.739118127101726,2.6424831394362274,0.954087836468127,B,578,Incorrect
2,relearn,43,855,A,31.5117750201726,58.114462588154055,1.57558875100863,0.9128598436713184,A,404,Correct
2,relearn,43,856,A,42.52872440063446,68.35851928860387,2.126436220031723,1.0737731100367705,B,763,Incorrect
2,relearn,43,857,A,54.489554185977774,68.58812507783927,2.7244777092988888,1.0773797493401884,A,331,Correct
2,relearn,43,858,B,89.43073011390673,67.43394932133185,4.471536505695337,1.0592499989522128,A,697,Incorrect
2,relearn,43,859,B,59.43088496335153,34.86363300777226,2.971544248167577,0.5476366666733397,B,353,Correct
2,relearn,43,860,A,60.791575377541655,79.65250654013153,3.0395787688770826,1.2511786469324508,B,516,Incorrect
2,relearn,43,861,B,52.19362026155779,43.5699899843355,2.6096810130778896,0.6843958022588464,B,498,Correct
2,relearn,43,862,A,18.509188181263404,34.07910486181722,0.9254594090631701,0.5353133273740059,A,436,Correct
2,relearn,43,863,A,39.26717843816452,54.06259107211861,1.9633589219082261,0.8492131947309848,A,724,Correct
2,relearn,43,864,B,69.11880592380405,55.865919334524364,3.4559402961902026,0.8775398088369085,B,739,Correct
2,relearn,43,865,B,77.62476358077642,52.29925959399625,3.881238179038821,0.8215148486434205,B,565,Correct
2,relearn,43,866,A,20.681551131275064,39.74159869028237,1.0340775565637532,0.6242595724365243,A,556,Correct
2,relearn,43,867,A,46.821210219011924,76.51873651187215,2.341060510950596,1.2019535024383532,A,910,Correct
2,relearn,43,868,B,64.37179674291013,56.45959706574923,3.218589837145507,0.8868652768319881,A,561,Incorrect
2,relearn,43,869,A,52.62925325439275,82.08206858337985,2.631462662719638,1.2893421182649984,B,328,Incorrect
2,relearn,43,870,A,37.986216535639386,59.159237833374284,1.8993108267819694,0.9292711348464999,A,303,Correct
2,relearn,43,871,A,58.97847125937544,84.49076076591261,2.9489235629687722,1.3271777665920188,B,537,Incorrect
2,relearn,43,872,B,63.23113678187565,34.34775536294059,3.1615568390937825,0.5395332795775678,B,718,Correct
2,relearn,43,873,B,58.56286622033511,50.95920410129802,2.9281433110167554,0.8004653061871037,B,580,Correct
2,relearn,43,874,B,68.87076737087412,56.07503772916991,3.4435383685437055,0.8808246328986533,B,609,Correct
2,relearn,43,875,A,38.73846288565828,49.36107103419967,1.936923144282914,0.7753618906718281,A,897,Correct
2,relearn,43,876,B,42.827355831964276,24.96502619658864,2.141367791598214,0.39214971447939795,A,572,Incorrect
2,relearn,43,877,B,72.51923196832162,59.063736943716776,3.625961598416081,0.9277710103797034,A,509,Incorrect
2,relearn,43,878,A,33.141491357914205,65.38337335363646,1.6570745678957104,1.0270396269735147,A,659,Correct
2,relearn,43,879,A,61.66506013456492,85.58526988362345,3.083253006728246,1.344370275609456,B,605,Incorrect
2,relearn,43,880,A,13.703515076941432,35.65882710142968,0.6851757538470715,0.5601275462874004,A,522,Correct
2,relearn,43,881,A,63.73852138309307,75.23089966450533,3.1869260691546537,1.181724208544804,B,726,Incorrect
2,relearn,43,882,A,44.81499316113997,60.477847649786774,2.2407496580569983,0.9499838094074643,A,418,Correct
2,relearn,43,883,B,60.99931300969295,49.73248552905064,3.0499656504846473,0.7811960559141309,A,779,Incorrect
2,relearn,43,884,A,26.988086169183035,36.63153538027548,1.3494043084591516,0.5754068122019401,A,675,Correct
2,relearn,43,885,B,46.511830095444544,33.2481721017158,2.3255915047722273,0.5222610661001974,A,498,Incorrect
2,relearn,43,886,A,36.07184362938906,67.66710360498082,1.8035921814694529,1.0629123778755356,B,872,Incorrect
2,relearn,43,887,A,34.71570230410462,62.15617125822645,1.7357851152052308,0.9763468550005663,B,393,Incorrect
2,relearn,43,888,B,57.10083447183067,45.04578933143941,2.8550417235915337,0.7075776041940176,B,661,Correct
2,relearn,43,889,B,74.0163387240697,49.68224686590859,3.7008169362034846,0.7804069088388645,B,429,Correct
2,relearn,43,890,B,62.625359706293054,37.565877252947914,3.131267985314653,0.5900834200175854,B,1265,Correct
2,relearn,43,891,A,54.81522505202379,72.98570417556816,2.7407612526011893,1.146456760275214,A,513,Correct
2,relearn,43,892,B,47.85135177713468,39.202139706518786,2.392567588856734,0.6157857705350007,A,1467,Incorrect
2,relearn,43,893,A,22.983336773963817,38.426289304679045,1.1491668386981908,0.6035987409214787,A,667,Correct
2,relearn,43,894,B,54.5946317932445,35.928658647792695,2.729731589662225,0.5643660503062046,A,1570,Incorrect
2,relearn,43,895,A,19.995996558963213,36.204718628564606,0.9997998279481607,0.5687023903439204,A,591,Correct
2,relearn,43,896,B,38.483999753776544,24.996643037401096,1.9241999876888272,0.39264635065352865,B,599,Correct
2,relearn,43,897,A,44.550706876551196,69.19671080301336,2.22753534382756,1.0869393915566212,B,1606,Incorrect
2,relearn,43,898,A,22.94130900278259,47.344594791009136,1.1470654501391295,0.7436871559130995,A,511,Correct
