experiment,condition,subject,trial,cat,x,y,xt,yt,resp,rt,fb
1,new_learn,1000,0,B,80.5196010077842,62.38222970184948,4.025980050389211,0.9798977727294067,A,1504,Incorrect
1,new_learn,1000,1,A,52.70943108004205,76.44827263612166,2.6354715540021028,1.200846658466347,A,660,Correct
1,new_learn,1000,2,A,31.876641659063793,53.33120344636373,1.5938320829531898,0.8377245847709948,A,744,Correct
1,new_learn,1000,3,A,65.27359993947191,84.53365966918977,3.2636799969735955,1.3278516209889317,B,593,Incorrect
1,new_learn,1000,4,A,21.483651006054295,35.91615343019986,1.0741825503027147,0.5641696188075986,B,785,Incorrect
1,new_learn,1000,5,B,62.5920901098399,36.25084826835198,3.129604505491995,0.5694269930312642,A,849,Incorrect
1,new_learn,1000,6,A,56.21864841784996,77.560305684823,2.8109324208924984,1.2183144327480933,A,712,Correct
1,new_learn,1000,7,B,59.70743887534351,35.82047814380816,2.9853719437671757,0.5626667549233073,B,1302,Correct
1,new_learn,1000,8,A,36.61787195597209,53.78238463878206,1.8308935977986045,0.8448117223686912,A,837,Correct
1,new_learn,1000,9,B,73.41006974824413,49.35575250504733,3.6705034874122067,0.7752783474112636,A,694,Incorrect
1,new_learn,1000,10,B,43.9574891367686,24.73242471795011,2.19787445683843,0.38849601899687347,A,1081,Incorrect
1,new_learn,1000,11,B,59.887090481180806,46.10265132597552,2.99435452405904,0.7241787535834822,B,780,Correct
1,new_learn,1000,12,B,86.19912829098249,62.99220385726963,4.309956414549124,0.9894792243571444,B,435,Correct
1,new_learn,1000,13,A,48.5522089860967,60.727233446577806,2.427610449304835,0.9539011523430061,B,536,Incorrect
1,new_learn,1000,14,A,49.76514795089683,56.488189410262265,2.488257397544842,0.8873144043293433,B,789,Incorrect
1,new_learn,1000,15,A,63.620107213716196,84.40688349705269,3.18100536068581,1.3258602255337513,B,927,Incorrect
1,new_learn,1000,16,A,50.78108692259225,76.2143279740526,2.5390543461296122,1.1971718643078335,A,1213,Correct
1,new_learn,1000,17,B,65.3331010287566,55.32761878137217,3.2666550514378296,0.8690842035208775,A,1180,Incorrect
1,new_learn,1000,18,B,59.502594626574194,38.53042357516263,2.9751297313287095,0.6052344782171695,B,1073,Correct
1,new_learn,1000,19,B,51.08109468195289,37.09718640431756,2.5540547340976447,0.5827212413832761,B,2099,Correct
1,new_learn,1000,20,B,51.075816166951384,42.84483692299512,2.553790808347569,0.673005124607671,B,572,Correct
1,new_learn,1000,21,A,35.19656989288294,64.64269998370602,1.759828494644147,1.0154051568850995,A,2437,Correct
1,new_learn,1000,22,B,63.52199361021986,48.42585055714904,3.176099680510993,0.7606714817708831,B,2784,Correct
1,new_learn,1000,23,A,47.77059654083965,71.33053426121808,2.3885298270419826,1.1204574120583888,A,552,Correct
1,new_learn,1000,24,A,25.99927833615448,50.029938025473115,1.299963916807724,0.7858684288018949,B,1253,Incorrect
1,new_learn,1000,25,A,68.30983705379867,89.45538468886657,3.4154918526899336,1.4051618968129607,A,664,Correct
1,new_learn,1000,26,B,49.49754024691195,21.12057107105599,2.4748770123455976,0.331761154582253,B,588,Correct
1,new_learn,1000,27,B,57.1212621990512,43.96085564944216,2.85606310995256,0.6905355057690442,B,750,Correct
1,new_learn,1000,28,B,87.54534963365559,66.9754982346665,4.37726748168278,1.0520486661227222,A,594,Incorrect
1,new_learn,1000,29,B,71.39906867709264,61.66587895321433,3.569953433854632,0.9686453614828778,B,522,Correct
1,new_learn,1000,30,B,67.98106891215694,46.02354567149293,3.3990534456078474,0.7229361648685826,B,524,Correct
1,new_learn,1000,31,A,61.984527380606906,87.4870126061258,3.099226369030345,1.3742427804396122,B,506,Incorrect
1,new_learn,1000,32,B,64.80625429864347,34.38263689029021,3.2403127149321733,0.5400811973279056,B,2695,Correct
1,new_learn,1000,33,B,59.86616610134057,39.809009217608185,2.9933083050670284,0.6253184545236312,B,507,Correct
1,new_learn,1000,34,B,67.29639910244745,37.06125121771723,3.364819955122373,0.5821567727921312,B,401,Correct
1,new_learn,1000,35,B,61.961216065506456,31.943203868044606,3.098060803275323,0.50176267301985,B,358,Correct
1,new_learn,1000,36,B,49.20286624508451,19.190040757020704,2.4601433122542256,0.30143645532172475,A,836,Incorrect
1,new_learn,1000,37,A,35.620585195752355,63.77860852362428,1.7810292597876178,1.0018320399699872,A,770,Correct
1,new_learn,1000,38,A,51.08335978210045,78.88154660763911,2.5541679891050224,1.2390684366317994,A,910,Correct
1,new_learn,1000,39,A,48.87548441113948,59.97811073863698,2.4437742205569744,0.9421339603634852,A,957,Correct
1,new_learn,1000,40,A,39.040586640350675,67.16017119595223,1.952029332017534,1.0549495022151818,A,688,Correct
1,new_learn,1000,41,A,54.135589035109206,72.1388358364142,2.70677945175546,1.1331541835109948,B,1315,Incorrect
1,new_learn,1000,42,A,48.40097331179548,59.867316127781876,2.4200486655897744,0.9403936026858865,A,671,Correct
1,new_learn,1000,43,B,40.903202386891316,25.906632041062316,2.045160119344566,0.40694042449727663,A,735,Incorrect
1,new_learn,1000,44,A,58.682822368628194,72.98599369917166,2.93414111843141,1.146461308101343,A,537,Correct
1,new_learn,1000,45,B,61.32582707104993,38.26233905815964,3.0662913535524967,0.6010234164713807,B,824,Correct
1,new_learn,1000,46,A,23.2451714665525,37.16817252420577,1.162258573327625,0.5838362887470142,A,607,Correct
1,new_learn,1000,47,B,48.13821857672283,24.426359801704066,2.4069109288361417,0.3836883625348726,B,722,Correct
1,new_learn,1000,48,A,26.712814834664933,52.316473411224266,1.3356407417332465,0.8217852426521394,A,1242,Correct
1,new_learn,1000,49,A,14.02320403377788,42.05832677315937,0.701160201688894,0.6606506520641819,A,536,Correct
1,new_learn,1000,50,B,46.558499411096804,18.35323984653735,2.3279249705548404,0.288292017357266,B,1056,Correct
1,new_learn,1000,51,A,18.525125882325675,43.533887726460954,0.9262562941162839,0.683828709318263,A,543,Correct
1,new_learn,1000,52,A,13.989483694443827,30.198110473772765,0.6994741847221914,0.47435081008348745,A,534,Correct
1,new_learn,1000,53,B,40.540421714177825,25.84879447711252,2.027021085708891,0.40603191416724554,A,957,Incorrect
1,new_learn,1000,54,A,48.84774775168254,69.38652225022587,2.442387387584127,1.0899209427972716,A,1634,Correct
1,new_learn,1000,55,B,74.24488183904442,50.86884751527777,3.712244091952221,0.7990459882528802,A,768,Incorrect
1,new_learn,1000,56,B,34.36948234728908,18.424506703325534,1.718474117364454,0.289411474525917,A,603,Incorrect
1,new_learn,1000,57,B,54.66137914025864,38.12278375317054,2.733068957012932,0.5988312868667643,A,573,Incorrect
1,new_learn,1000,58,A,66.86600952547401,81.84539129959835,3.3433004762737006,1.2856244001850008,B,508,Incorrect
1,new_learn,1000,59,A,21.429623776091365,42.92260016488119,1.071481188804568,0.6742266267548139,A,577,Correct
1,new_learn,1000,60,A,25.671692970956244,39.16879641318431,1.2835846485478124,0.6152620153080703,A,702,Correct
1,new_learn,1000,61,B,56.071339624399954,30.903226397490933,2.8035669812199977,0.4854267451128983,B,937,Correct
1,new_learn,1000,62,B,49.18804543788341,30.486841896905275,2.4594022718941706,0.4788861926723556,B,691,Correct
1,new_learn,1000,63,A,29.79353543183415,59.876992583169255,1.4896767715917076,0.9405456000916754,A,618,Correct
1,new_learn,1000,64,A,36.32677473158023,45.93618322631974,1.8163387365790116,0.7215638787888039,A,1117,Correct
1,new_learn,1000,65,A,33.59359772996721,53.204766640705216,1.6796798864983602,0.835738520071994,A,516,Correct
1,new_learn,1000,66,A,63.72369321831956,79.2530022821498,3.186184660915978,1.2449032487226845,B,708,Incorrect
1,new_learn,1000,67,B,80.18211771261082,52.092179223979315,4.009105885630541,0.8182620377976814,B,1092,Correct
1,new_learn,1000,68,B,73.074343492363,55.282978410722464,3.65371717461815,0.8683829942184442,B,540,Correct
1,new_learn,1000,69,B,30.628462963213362,10.922356699998634,1.531423148160668,0.1715679778430148,A,483,Incorrect
1,new_learn,1000,70,B,46.33908105888476,27.686173990734297,2.316954052944238,0.43489340407649835,B,1249,Correct
1,new_learn,1000,71,A,27.073243512404435,49.99362676038331,1.3536621756202216,0.7852980527836514,B,1827,Incorrect
1,new_learn,1000,72,B,73.88853033876697,45.693044484987915,3.694426516938348,0.7177446643709483,B,604,Correct
1,new_learn,1000,73,A,25.1112438753699,36.916869961876095,1.2555621937684949,0.5798888373287983,A,477,Correct
1,new_learn,1000,74,A,60.699112645609134,85.7787644440217,3.034955632280457,1.3474096810567397,B,563,Incorrect
1,new_learn,1000,75,A,53.22310334439162,80.63264355774187,2.6611551672195812,1.2665746032026313,B,1177,Incorrect
1,new_learn,1000,76,A,11.364601130574137,36.89666666913081,0.5682300565287068,0.5795714847484637,A,520,Correct
1,new_learn,1000,77,A,24.018758626440356,54.72073923643728,1.2009379313220179,0.8595513619209705,A,700,Correct
1,new_learn,1000,78,A,17.604135765005672,40.05743831665412,0.8802067882502836,0.6292207696861344,A,541,Correct
1,new_learn,1000,79,B,49.53619195910268,25.950806318681916,2.4768095979551337,0.4076343124275135,B,573,Correct
1,new_learn,1000,80,A,26.84090738282889,39.16303181481672,1.3420453691414445,0.6151714652086577,A,537,Correct
1,new_learn,1000,81,B,84.4744447032005,61.523462413430515,4.223722235160025,0.9664082877072053,B,661,Correct
1,new_learn,1000,82,A,44.5315921676128,71.2405416995948,2.22657960838064,1.1190438122060218,B,804,Incorrect
1,new_learn,1000,83,A,65.91132606607272,81.66399801147108,3.295566303303636,1.2827750810780452,B,549,Incorrect
1,new_learn,1000,84,A,27.583430345182673,41.851493592839205,1.3791715172591337,0.6574017240651198,A,992,Correct
1,new_learn,1000,85,A,50.11711554203662,61.016596266918526,2.5058557771018313,0.958446452896028,B,761,Incorrect
1,new_learn,1000,86,A,26.149809620340925,40.51316645372977,1.3074904810170462,0.6363793305234894,A,941,Correct
1,new_learn,1000,87,B,55.469737551530564,33.08929601143373,2.7734868775765285,0.5197654463098913,A,704,Incorrect
1,new_learn,1000,88,A,53.909315741278036,80.57280648629467,2.6954657870639016,1.2656346846822766,A,937,Correct
1,new_learn,1000,89,A,45.732006516528116,62.29158194103363,2.286600325826406,0.9784738810321892,A,1256,Correct
1,new_learn,1000,90,A,23.3812824360478,46.28669374217492,1.16906412180239,0.7270696850968869,A,661,Correct
1,new_learn,1000,91,A,35.490175240725804,50.74015673474824,1.7745087620362903,0.7970245181993988,A,842,Correct
1,new_learn,1000,92,A,32.68790980259622,41.952762151019016,1.6343954901298108,0.6589924468572064,A,671,Correct
1,new_learn,1000,93,A,24.540961071628598,47.51709169290963,1.2270480535814299,0.7463967309119874,B,394,Incorrect
1,new_learn,1000,94,B,72.07422329209703,40.103885832568146,3.6037111646048516,0.6299503655599994,B,703,Correct
1,new_learn,1000,95,B,43.90058972511025,21.39779146750097,2.1950294862555126,0.33611572238673704,B,935,Correct
1,new_learn,1000,96,B,68.42057465883758,57.300249068979994,3.4210287329418794,0.9000702076198647,B,733,Correct
1,new_learn,1000,97,A,36.12517052533418,61.16543235875105,1.8062585262667088,0.9607843647594785,A,611,Correct
1,new_learn,1000,98,A,61.012521120772305,85.54564244737993,3.0506260560386154,1.3437478092965398,B,743,Incorrect
1,new_learn,1000,99,B,62.390419894138844,38.12320515060722,3.119520994706942,0.5988379061622211,B,620,Correct
1,new_learn,1000,100,B,69.61902864046662,39.95967399979381,3.4809514320233315,0.6276850913879765,B,1097,Correct
1,new_learn,1000,101,A,39.784869535943066,68.06118478292734,1.9892434767971534,1.0691025905433098,A,864,Correct
1,new_learn,1000,102,A,52.72703417272747,64.83833614130762,2.636351708636374,1.018478202462588,B,612,Incorrect
1,new_learn,1000,103,A,32.803921284219456,57.70245505204845,1.6401960642109727,0.9063880444280533,A,841,Correct
1,new_learn,1000,104,A,39.77443047682524,57.55577008828089,1.9887215238412619,0.9040839224052319,B,669,Incorrect
1,new_learn,1000,105,A,55.583694411001545,66.64399448638143,2.7791847205500773,1.0468414174214726,B,563,Incorrect
1,new_learn,1000,106,B,78.7997684433262,56.05656181270749,3.9399884221663104,0.8805344138815201,B,1055,Correct
1,new_learn,1000,107,B,52.48566996369974,25.288278047646504,2.624283498184987,0.39722734268211146,A,929,Incorrect
1,new_learn,1000,108,B,44.1709751058293,32.0847831532246,2.2085487552914653,0.5039865952309598,B,2590,Correct
1,new_learn,1000,109,A,38.36290565478576,46.227377466651866,1.9181452827392882,0.7261379472197791,A,888,Correct
1,new_learn,1000,110,B,50.73591797114161,35.059058116115175,2.5367958985570804,0.5507063970968251,A,569,Incorrect
1,new_learn,1000,111,A,37.09179931405094,52.771096821429566,1.854589965702547,0.828926450480394,A,573,Correct
1,new_learn,1000,112,B,54.22886646558818,42.69910011845429,2.711443323279409,0.6707158962351554,B,589,Correct
1,new_learn,1000,113,B,60.64001103496212,50.32516906063993,3.032000551748106,0.7905059070578537,A,1576,Incorrect
1,new_learn,1000,114,A,56.43634902019992,78.16237257897274,2.821817451009996,1.2277716774062453,B,371,Incorrect
1,new_learn,1000,115,B,88.47532153477454,63.79018440055144,4.423766076738727,1.002013873419553,B,651,Correct
1,new_learn,1000,116,B,65.45547816122387,44.506120545606336,3.2727739080611933,0.699100506729293,B,1061,Correct
1,new_learn,1000,117,B,74.19318941786476,58.97641808925217,3.7096594708932376,0.926399409021174,B,474,Correct
1,new_learn,1000,118,A,32.94190879779641,47.791000205243066,1.6470954398898203,0.7506992757624996,A,650,Correct
1,new_learn,1000,119,B,39.2085738613045,30.124869248659458,1.960428693065225,0.4732003396097081,A,2617,Incorrect
1,new_learn,1000,120,B,53.68985400128334,31.690689359823825,2.6844927000641667,0.4977961844000937,A,531,Incorrect
1,new_learn,1000,121,B,89.28499063306478,68.11836863728786,4.464249531653239,1.0700008324271246,B,462,Correct
1,new_learn,1000,122,B,64.35048661436197,38.53402128951622,3.2175243307180983,0.6052909909820842,B,947,Correct
1,new_learn,1000,123,A,20.778109823974738,39.70809382795837,1.038905491198737,0.6237332792898411,A,569,Correct
1,new_learn,1000,124,B,36.75604841272468,12.639442051618172,1.837802420636234,0.19853989147418774,A,662,Incorrect
1,new_learn,1000,125,A,41.811525016611945,62.62340502749026,2.090576250830597,0.9836861458857076,A,645,Correct
1,new_learn,1000,126,B,58.63182739193388,42.99692337394442,2.931591369596694,0.6753940929927353,B,1308,Correct
1,new_learn,1000,127,B,37.71044413278382,17.155723236069687,1.8855222066391912,0.2694814704272812,A,558,Incorrect
1,new_learn,1000,128,A,57.098078297887966,73.43550177949164,2.8549039148943987,1.1535221645156555,B,542,Incorrect
1,new_learn,1000,129,B,77.53544524043225,52.641445692915035,3.8767722620216123,0.8268898953160396,B,630,Correct
1,new_learn,1000,130,A,39.25296319773864,57.489497599126246,1.9626481598869319,0.9030429165799154,A,884,Correct
1,new_learn,1000,131,B,31.382061448069468,17.833809097731713,1.5691030724034736,0.28013281823478386,A,1176,Incorrect
1,new_learn,1000,132,B,50.93120408999904,23.36797929116477,2.546560204499952,0.36706336035180825,B,1148,Correct
1,new_learn,1000,133,B,42.7690770617932,28.09874259461577,2.13845385308966,0.4413740165517775,B,847,Correct
1,new_learn,1000,134,B,70.26717236721285,49.29267417269333,3.513358618360643,0.7742875152836436,B,1843,Correct
1,new_learn,1000,135,A,46.3197977875128,75.34930668669585,2.31598988937564,1.18358414170004,A,1098,Correct
1,new_learn,1000,136,B,66.17764666700336,51.84725617301092,3.308882333350168,0.8144147955095958,B,499,Correct
1,new_learn,1000,137,B,40.05211739538258,29.701380339598423,2.002605869769129,0.46654819138179365,A,706,Incorrect
1,new_learn,1000,138,A,28.474918039965885,53.988958295601044,1.423745901998294,0.8480565737821297,A,858,Correct
1,new_learn,1000,139,A,58.81897000408529,72.42510552257063,2.940948500204264,1.1376508972258674,B,613,Incorrect
1,new_learn,1000,140,A,49.34463152432983,71.7126146566032,2.4672315762164914,1.1264591168745015,A,1673,Correct
1,new_learn,1000,141,A,51.77665366404301,67.68615278897235,2.5888326832021504,1.0632116017579591,A,1146,Correct
1,new_learn,1000,142,B,47.68862821614197,40.82480170482794,2.3844314108070988,0.6412744856007375,B,716,Correct
1,new_learn,1000,143,B,83.63626389580801,64.12825779376979,4.181813194790401,1.0073243178620979,B,629,Correct
1,new_learn,1000,144,B,82.38922345475854,54.36266445975205,4.1194611727379264,0.8539267364816198,B,917,Correct
1,new_learn,1000,145,B,66.52076730935597,54.15576709438204,3.3260383654677987,0.8506768002661524,B,545,Correct
1,new_learn,1000,146,A,63.774150752234746,73.66424075064806,3.1887075376117373,1.157115187872529,A,547,Correct
1,new_learn,1000,147,A,26.938290619377696,47.646058762716166,1.346914530968885,0.7484225409072834,A,805,Correct
1,new_learn,1000,148,B,43.472873216630234,28.812142888342322,2.1736436608315115,0.45258008216097817,B,789,Correct
1,new_learn,1000,149,A,29.471366325435195,47.57322827929288,1.4735683162717599,0.7472785223488836,A,876,Correct
1,new_learn,1000,150,A,40.59586884656575,68.05861759478984,2.0297934423282875,1.069062265246344,B,831,Incorrect
1,new_learn,1000,151,A,68.95804808594525,85.16265461207081,3.447902404297263,1.337731850447433,B,818,Incorrect
1,new_learn,1000,152,B,60.62861466709744,44.77721486007443,3.0314307333548722,0.7033588462631077,A,628,Incorrect
1,new_learn,1000,153,B,76.53976051038319,64.40048778125848,3.8269880255191593,1.0116004965060044,B,957,Correct
1,new_learn,1000,154,A,51.43987546617812,67.42732339513171,2.571993773308906,1.0591459191468449,B,555,Incorrect
1,new_learn,1000,155,A,49.20721404173191,71.89800324483761,2.460360702086595,1.129371194008785,A,553,Correct
1,new_learn,1000,156,A,32.24588680332022,64.7731442410113,1.6122943401660108,1.0174541704873654,A,571,Correct
1,new_learn,1000,157,B,49.658652244789195,41.63449396732371,2.48293261223946,0.6539931019183638,A,558,Incorrect
1,new_learn,1000,158,A,29.006513312262484,60.341835328448134,1.4503256656131243,0.9478473328598885,108,295,Incorrect
1,new_learn,1000,159,B,68.39326335869274,52.93407898613734,3.4196631679346363,0.8314865683369546,B,724,Correct
1,new_learn,1000,160,B,77.48171817446729,46.357712001710425,3.8740859087233646,0.7281852373090243,A,464,Incorrect
1,new_learn,1000,161,B,53.620503834313524,38.82643481198481,2.681025191715676,0.6098842118520724,B,202,Correct
1,new_learn,1000,162,B,67.97651664743393,52.8707070986141,3.3988258323716964,0.8304911250555188,A,783,Incorrect
1,new_learn,1000,163,B,61.451656351238526,46.98038189434432,3.0725828175619263,0.7379661131105753,B,672,Correct
1,new_learn,1000,164,A,47.361443154625434,57.28237322408805,2.3680721577312713,0.8997894145049184,B,590,Incorrect
1,new_learn,1000,165,B,60.98407092664301,32.69648652998271,3.04920354633215,0.5135952094039565,A,521,Incorrect
1,new_learn,1000,166,A,54.74375216805392,72.39972216619816,2.7371876084026963,1.137252176396351,B,559,Incorrect
1,new_learn,1000,167,B,69.4877448426404,48.332765592969686,3.4743872421320194,0.7592093065727555,B,933,Correct
1,new_learn,1000,168,A,33.998525792683424,66.56552201080424,1.6999262896341714,1.0456087746575615,A,424,Correct
1,new_learn,1000,169,B,79.68965675347968,57.965347155707434,3.984482837673984,0.9105175439357625,B,530,Correct
1,new_learn,1000,170,B,58.07770064391468,33.23272908126803,2.903885032195734,0.5220184877022577,A,493,Incorrect
1,new_learn,1000,171,A,52.83685964004518,71.54024971805332,2.641842982002259,1.123751614751078,A,566,Correct
1,new_learn,1000,172,B,67.50328351831493,42.313843532945356,3.3751641759157462,0.6646642999412455,B,493,Correct
1,new_learn,1000,173,B,60.8537109395633,44.81623419232292,3.042685546978165,0.7039717605008069,B,602,Correct
1,new_learn,1000,174,B,62.79858595762024,37.40687216207961,3.1399292978810123,0.5875857738908092,B,485,Correct
1,new_learn,1000,175,B,83.6878903475249,60.43393433991436,4.184394517376245,0.9492940207490144,B,639,Correct
1,new_learn,1000,176,B,45.473246212904606,37.5831541179017,2.2736623106452303,0.590354804377665,A,448,Incorrect
1,new_learn,1000,177,B,60.24951308527666,29.80515534986067,3.0124756542638327,0.468178285431124,B,481,Correct
1,new_learn,1000,178,A,63.01452309159409,86.99968837550583,3.1507261545797047,1.366587909325452,A,583,Correct
1,new_learn,1000,179,A,26.31308682011779,43.24349991083086,1.3156543410058896,0.6792673081768856,A,648,Correct
1,new_learn,1000,180,A,45.31907086535145,76.29986607714592,2.2659535432675724,1.1985154936892333,B,645,Incorrect
1,new_learn,1000,181,B,57.55775972783212,25.615913116099385,2.8778879863916065,0.4023738223026613,A,253,Incorrect
1,new_learn,1000,182,B,34.129775456720665,19.33323917512264,1.7064887728360332,0.3036858108132983,A,404,Incorrect
1,new_learn,1000,183,A,30.933526153446508,46.25230928353275,1.5466763076723253,0.7265295752835473,A,317,Correct
1,new_learn,1000,184,A,39.1861000756944,57.56185473340173,1.95930500378472,0.9041794997872887,A,548,Correct
1,new_learn,1000,185,B,83.02941793066259,67.56204369604426,4.151470896533129,1.0612621006850262,B,480,Correct
1,new_learn,1000,186,A,29.154451214818803,53.85753981320384,1.45772256074094,0.845992257087905,B,1212,Incorrect
1,new_learn,1000,187,A,34.8309940347919,59.275651869685944,1.741549701739595,0.9310997622527573,A,480,Correct
1,new_learn,1000,188,B,66.58468915830039,52.13018723976419,3.3292344579150197,0.8188590663135178,B,567,Correct
1,new_learn,1000,189,A,11.444183710227822,32.49010555907823,0.5722091855113911,0.5103533846937853,A,598,Correct
1,new_learn,1000,190,A,43.83708050835992,57.6702994615125,2.191854025417996,0.9058829455930554,A,1079,Correct
1,new_learn,1000,191,A,42.726026975602885,54.53635205728568,2.1363013487801443,0.8566550148837766,A,573,Correct
1,new_learn,1000,192,B,47.740715507562086,18.408378011457206,2.387035775378104,0.2891581256264892,B,732,Correct
1,new_learn,1000,193,A,41.10202357123565,52.20358022838803,2.0551011785617823,0.820011920682946,A,950,Correct
1,new_learn,1000,194,A,54.91298312869324,75.09629185966831,2.745649156434662,1.1796097940908448,B,614,Incorrect
1,new_learn,1000,195,B,55.217659558754505,37.24728579554132,2.7608829779377255,0.5850789971071604,A,408,Incorrect
1,new_learn,1000,196,B,78.08074187025791,60.08800702228653,3.9040370935128954,0.9438602071503365,B,514,Correct
1,new_learn,1000,197,B,62.95946508941597,44.904631166565565,3.1479732544707986,0.7053602969252082,A,520,Incorrect
1,new_learn,1000,198,B,68.31846400020748,39.49819979691949,3.4159232000103743,0.6204362715601205,B,1025,Correct
1,new_learn,1000,199,A,25.607487521217834,54.22288198322356,1.2803743760608917,0.8517310384748075,A,770,Correct
1,new_learn,1000,200,B,82.46151678892451,65.3090449526658,4.123075839446226,1.0258720791813023,B,686,Correct
1,new_learn,1000,201,B,80.9730708663179,49.986367598365334,4.048653543315895,0.785184026133317,B,543,Correct
1,new_learn,1000,202,B,83.20830226266062,60.789879928624515,4.1604151131330305,0.954885200981862,B,517,Correct
1,new_learn,1000,203,B,35.25433862682044,13.562310798928376,1.762716931341022,0.2130362798580745,A,414,Incorrect
1,new_learn,1000,204,B,55.90917132080917,44.95637700012202,2.7954585660404585,0.7061731185779823,B,553,Correct
1,new_learn,1000,205,A,33.91333036552324,55.1579613000337,1.6956665182761617,0.86641923003588,A,653,Correct
1,new_learn,1000,206,B,72.79124582129661,54.962685334550535,3.6395622910648306,0.8633518423429571,B,611,Correct
1,new_learn,1000,207,A,45.36823156805374,60.368748726055884,2.268411578402687,0.9482700875209267,A,822,Correct
1,new_learn,1000,208,A,63.62222751891323,84.790666959873,3.1811113759456613,1.331888682070579,B,600,Incorrect
1,new_learn,1000,209,B,45.440103522773505,26.7379513644925,2.2720051761386753,0.4199987578936541,A,673,Incorrect
1,new_learn,1000,210,A,29.05359424223342,49.98722650557689,1.452679712111671,0.7851975178162467,A,523,Correct
1,new_learn,1000,211,B,66.56515021705151,58.64947238394625,3.328257510852575,0.9212637578916149,B,1557,Correct
1,new_learn,1000,212,A,62.22068681277291,86.34015718092554,3.1110343406386454,1.3562280175469186,B,715,Incorrect
1,new_learn,1000,213,A,24.160527347481462,38.82660980983958,1.2080263673740732,0.6098869607119471,A,847,Correct
1,new_learn,1000,214,B,81.45292866837916,67.05852564478289,4.072646433418958,1.0533528576310636,B,510,Correct
1,new_learn,1000,215,B,44.30059469383626,32.82538053715207,2.215029734691813,0.5156198717340317,A,1146,Incorrect
1,new_learn,1000,216,A,46.627912427488035,69.73001207912104,2.331395621374402,1.095316468412471,B,944,Incorrect
1,new_learn,1000,217,A,16.331969797876674,31.666707463577907,0.8165984898938337,0.4974194776547672,A,621,Correct
1,new_learn,1000,218,A,20.392311479529003,50.08877905519597,1.01961557397645,0.7867927015354297,A,580,Correct
1,new_learn,1000,219,A,29.538598308730123,39.023520462871495,1.476929915436506,0.6129800260168403,A,387,Correct
1,new_learn,1000,220,A,13.89020387605375,33.9881926322023,0.6945101938026874,0.5338852814106073,A,500,Correct
1,new_learn,1000,221,B,71.74963243195441,59.53316795345992,3.5874816215977203,0.935144815437585,B,1681,Correct
1,new_learn,1000,222,A,28.650548521052045,48.387377287015354,1.4325274260526022,0.7600671450568252,A,557,Correct
1,new_learn,1000,223,A,44.819801930658656,70.23269425347296,2.240990096532933,1.1032125815426435,B,5371,Incorrect
1,new_learn,1000,224,B,71.52215855521584,53.68696144555185,3.5761079277607917,0.8433128183545208,A,972,Incorrect
1,new_learn,1000,225,A,40.26242240724472,72.05036335438515,2.013121120362236,1.1317644610130582,A,945,Correct
1,new_learn,1000,226,A,18.244943082701656,36.63268066487704,0.9122471541350827,0.575424802290393,A,551,Correct
1,new_learn,1000,227,A,65.16691410538732,89.46805073320749,3.258345705269366,1.4053608545722178,B,553,Incorrect
1,new_learn,1000,228,A,35.59045750431842,66.27706109054267,1.779522875215921,1.041077641117854,A,534,Correct
1,new_learn,1000,229,B,54.37068690208973,36.496907065703454,2.7185343451044868,0.5732920755818169,B,518,Correct
1,new_learn,1000,230,B,64.01672116310178,34.440960300122924,3.200836058155089,0.5409973393072195,B,512,Correct
1,new_learn,1000,231,B,61.33424119384895,34.421411927483135,3.0667120596924473,0.5406902741878455,B,976,Correct
1,new_learn,1000,232,B,83.84667774061344,66.16685946405295,4.192333887030673,1.0393465980168852,B,555,Correct
1,new_learn,1000,233,B,70.83665294608666,46.44518728655828,3.5418326473043327,0.7295592958702678,B,617,Correct
1,new_learn,1000,234,B,35.97992458280338,25.24485469340501,1.798996229140169,0.3965452502287149,A,486,Incorrect
1,new_learn,1000,235,B,38.21478121130344,29.201712247398767,1.910739060565172,0.45869942334335523,A,463,Incorrect
1,new_learn,1000,236,A,54.80456610415193,68.42367532940231,2.7402283052075966,1.0747965787323173,B,574,Incorrect
1,new_learn,1000,237,A,21.947393106896,52.33434560868635,1.0973696553448,0.8220659784733915,A,492,Correct
1,new_learn,1000,238,A,42.02498338389444,68.98483259141726,2.101249169194722,1.083611216391591,B,712,Incorrect
1,new_learn,1000,239,A,57.97504160442066,76.95998938578448,2.8987520802210334,1.2088846863736449,A,526,Correct
1,new_learn,1000,240,A,67.5669866672488,84.86315321158538,3.37834933336244,1.3330272934499088,B,1480,Incorrect
1,new_learn,1000,241,B,59.338346584066635,34.21768918803039,2.9669173292033317,0.5374902048796759,B,634,Correct
1,new_learn,1000,242,B,80.10548234396795,54.95482433109267,4.005274117198398,0.8632283619893918,B,708,Correct
1,new_learn,1000,243,A,21.273699455784218,33.650181758240734,1.063684972789211,0.5285758190182518,A,981,Correct
1,new_learn,1000,244,B,46.734400587595786,39.64731068285231,2.3367200293797894,0.6227784998792046,A,541,Incorrect
1,new_learn,1000,245,B,71.67300616815409,57.24059105777103,3.5836503084077043,0.8991331017711552,B,588,Correct
1,new_learn,1000,246,B,42.56942859083672,19.481404636756363,2.128471429541836,0.30601318844221964,A,801,Incorrect
1,new_learn,1000,247,B,37.95803357230586,12.403649458534801,1.897901678615293,0.19483607008317974,B,540,Correct
1,new_learn,1000,248,A,16.346625215155886,44.61966729485461,0.8173312607577943,0.7008840948956799,A,491,Correct
1,new_learn,1000,249,B,53.53936267116632,22.38454308683518,2.6769681335583164,0.35161558057782794,B,1486,Correct
1,new_learn,1000,250,A,17.079996662197637,36.96020189918559,0.8539998331098818,0.580569493808385,A,947,Correct
1,new_learn,1000,251,A,25.298419488910405,39.620767461040266,1.2649209744455203,0.622361559925968,A,546,Correct
1,new_learn,1000,252,A,32.04046972207654,42.97009303695157,1.6020234861038267,0.6749726430447848,A,1071,Correct
1,new_learn,1000,253,B,81.70942785565231,54.364862337657314,4.085471392782615,0.8539612606670233,A,753,Incorrect
1,new_learn,1000,254,B,52.22483035115641,41.17999705212822,2.6112415175578207,0.6468538810690767,B,1181,Correct
1,new_learn,1000,255,A,32.608953470671,44.6895176855234,1.6304476735335498,0.7019813022665573,B,1109,Incorrect
1,new_learn,1000,256,B,58.82369364575288,51.634714724968106,2.941184682287644,0.8110762022508226,B,1252,Correct
1,new_learn,1000,257,B,85.08064891568836,62.972647815190996,4.254032445784418,0.9891720387665068,A,543,Incorrect
1,new_learn,1000,258,B,78.10638945741938,50.321644476375155,3.905319472870969,0.790450543017688,B,659,Correct
1,new_learn,1000,259,B,58.24973957464007,50.83887592296388,2.9124869787320034,0.7985751955817317,A,1129,Incorrect
1,new_learn,1000,260,A,46.75181824870063,54.73557761362787,2.3375909124350316,0.8597844426048363,B,1621,Incorrect
1,new_learn,1000,261,B,47.67642260139218,28.81851339205029,2.383821130069609,0.4526801497992212,B,589,Correct
1,new_learn,1000,262,B,65.72067128794225,52.20801409124834,3.286033564397113,0.8200815676378908,B,388,Correct
1,new_learn,1000,263,B,79.85154358268257,58.42299396209634,3.9925771791341282,0.9177062431602135,107,602,Incorrect
1,new_learn,1000,264,B,61.55937106972119,46.747404031108935,3.0779685534860595,0.7343065053926287,B,871,Correct
1,new_learn,1000,265,A,63.21426018553566,77.64035846532099,3.160713009276783,1.2195718988836526,A,592,Correct
1,new_learn,1000,266,A,48.00776003241887,62.74427302085471,2.400388001620944,0.9855847358857469,B,1370,Incorrect
1,new_learn,1000,267,B,58.7611004136857,33.80201166189548,2.938055020684285,0.5309607575678368,B,790,Correct
1,new_learn,1000,268,A,32.86142960797791,56.927532103849224,1.6430714803988957,0.894215583222249,A,822,Correct
1,new_learn,1000,269,A,68.9602024427094,84.77525926358133,3.4480101221354698,1.3316466585431856,A,851,Correct
1,new_learn,1000,270,B,39.5733301516302,25.838702410304073,1.9786665075815102,0.4058733883525207,B,550,Correct
1,new_learn,1000,271,B,80.3363713328911,49.70862513370811,4.016818566644555,0.7808212577005318,B,1367,Correct
1,new_learn,1000,272,A,28.299799225579672,44.92109597054424,1.4149899612789836,0.7056189254613193,B,565,Incorrect
1,new_learn,1000,273,B,55.794649570738514,43.30121234544389,2.7897324785369255,0.680173852979891,B,667,Correct
1,new_learn,1000,274,B,71.03726605456245,46.281226793540355,3.5518633027281226,0.7269838104685473,B,1215,Correct
1,new_learn,1000,275,A,37.53937505693936,62.253350250122345,1.8769687528469683,0.9778733390356834,A,888,Correct
1,new_learn,1000,276,B,32.54226622821412,18.00797069668615,1.627113311410706,0.2828685422338474,B,851,Correct
1,new_learn,1000,277,B,78.40998876511523,59.73132510722165,3.920499438255762,0.9382574607301554,B,1081,Correct
1,new_learn,1000,278,A,62.927903432509524,82.3326723066567,3.1463951716254766,1.2932785923450425,B,606,Incorrect
1,new_learn,1000,279,A,17.91566585636206,44.912830295153626,0.8957832928181031,0.7054890885358988,A,575,Correct
1,new_learn,1000,280,B,65.9677077102353,35.38163119254445,3.298385385511765,0.5557733631326055,B,982,Correct
1,new_learn,1000,281,A,43.14669487348462,61.52343808783866,2.157334743674231,0.9664079056017021,A,1042,Correct
1,new_learn,1000,282,B,77.33290970012352,59.33422282722229,3.866645485006176,0.932019792702307,B,588,Correct
1,new_learn,1000,283,A,42.94659767740857,60.60887661635654,2.1473298838704284,0.9520420076013796,A,775,Correct
1,new_learn,1000,284,A,50.716365268486484,71.56377279800904,2.535818263424324,1.1241211144269716,A,994,Correct
1,new_learn,1000,285,A,46.051299881168596,67.63765781683071,2.30256499405843,1.062449844516878,A,545,Correct
1,new_learn,1000,286,B,52.08274078846908,31.968851164692744,2.6041370394234544,0.5021655398135212,B,393,Correct
1,new_learn,1000,287,B,72.1883918362651,62.70945089093073,3.6094195918132552,0.9850377511479894,A,1380,Incorrect
1,new_learn,1000,288,B,34.10559935785123,14.788232411925296,1.7052799678925619,0.23229301152441492,A,667,Incorrect
1,new_learn,1000,289,B,80.00126918792273,62.1557315752463,4.000063459396136,0.9763399484764647,A,3047,Incorrect
1,new_learn,1000,290,B,34.90053968074095,22.553707557447954,1.7450269840370476,0.35427280986845544,A,526,Incorrect
1,new_learn,1000,291,A,59.33896454739023,79.64283108550656,2.9669482273695116,1.251026665246601,A,792,Correct
1,new_learn,1000,292,A,44.44097274528185,51.556113908889955,2.222048637264092,0.8098415435190361,A,1955,Correct
1,new_learn,1000,293,A,24.60117182032654,39.047710052031206,1.230058591016327,0.6133599951948279,A,503,Correct
1,new_learn,1000,294,A,34.0825767810053,43.60068006455735,1.704128839050265,0.6848778809116617,A,1423,Correct
1,new_learn,1000,295,B,47.1440056171407,18.046245526458854,2.3572002808570347,0.2834697618540041,B,563,Correct
1,new_learn,1000,296,A,69.31687693973069,84.25972172735001,3.4658438469865347,1.3235486138608155,B,2298,Incorrect
1,new_learn,1000,297,B,72.95932859349888,44.36662968094227,3.647966429674944,0.6969093893509355,B,1059,Correct
1,new_learn,1000,298,A,29.03575781852665,58.19952500195958,1.4517878909263324,0.9141960009428586,B,1938,Incorrect
1,new_learn,1000,299,B,79.2361003622018,67.05120093507279,3.96180501811009,1.0532378013599886,B,2987,Correct
1,new_learn,1000,300,A,59.157158889653395,85.47072805115275,2.95785794448267,1.3425710567123625,B,1230,Correct
1,new_learn,1000,301,A,67.1827000542325,85.13858450542386,3.359135002711625,1.337353758096367,B,469,Incorrect
1,new_learn,1000,302,A,46.51930656100149,72.1717790866432,2.3259653280500747,1.1336716548755186,B,1277,Correct
1,new_learn,1000,303,A,32.184529492444284,57.59531344684036,1.6092264746222142,0.9047050680289754,A,1494,Incorrect
1,new_learn,1000,304,A,56.03895907816895,77.88804262694893,2.8019479539084475,1.223462512596557,B,588,Correct
1,new_learn,1000,305,B,61.627913972728784,31.886827406729115,3.0813956986364395,0.5008771136363294,A,674,Incorrect
1,new_learn,1000,306,B,56.48201610842169,32.47145801852404,2.8241008054210845,0.5100604698117226,B,827,Incorrect
1,new_learn,1000,307,A,26.10612940572679,44.871168120315346,1.3053064702863395,0.704834660623876,A,356,Correct
1,new_learn,1000,308,B,72.5871559122615,47.10711661967872,3.6293577956130747,0.7399568575209017,B,800,Correct
1,new_learn,1000,309,B,56.92024622370381,33.01654055938627,2.846012311185191,0.5186226063415866,B,1072,Incorrect
1,new_learn,1000,310,A,47.455645150958404,58.10528459897369,2.37278225754792,0.9127156761543994,A,755,Correct
1,new_learn,1000,311,A,57.039477830222395,68.55873224833601,2.8519738915111197,1.0769180478540104,A,564,Correct
1,new_learn,1000,312,A,38.71891928287139,52.49628076028993,1.9359459641435695,0.8246096498865702,A,646,Incorrect
1,new_learn,1000,313,A,47.20830224465872,73.87271340563132,2.360415112232936,1.1603898686793779,B,591,Incorrect
1,new_learn,1000,314,B,67.71220144620641,47.321560826630574,3.38561007231032,0.7433253392467256,A,789,Correct
1,new_learn,1000,315,B,47.52003218600266,39.028480506521284,2.376001609300133,0.6130579382002985,B,867,Correct
1,new_learn,1000,316,B,80.76059091692676,63.87020174830208,4.038029545846338,1.003270782978819,B,866,Incorrect
1,new_learn,1000,317,A,62.474357229379194,75.74751346223886,3.1237178614689594,1.189839159103318,B,630,Incorrect
1,new_learn,1000,318,B,40.23359271824591,28.256281269410785,2.0116796359122957,0.44384862826873894,A,725,Correct
1,new_learn,1000,319,B,76.66165583291755,45.58398257390818,3.833082791645877,0.7160315238777754,B,693,Incorrect
1,new_learn,1000,320,B,71.32180950098348,55.01870137551251,3.5660904750491738,0.8642317402568038,100,639,Correct
1,new_learn,1000,321,A,50.875341271539554,77.41678590363775,2.543767063576978,1.216060029297011,107,327,Correct
1,new_learn,1000,322,B,69.57576512448792,54.03153118638408,3.478788256224396,0.8487253071867601,107,244,Correct
1,new_learn,1000,323,A,42.538779610221084,72.3650884618242,2.126938980511054,1.1367081514402122,107,223,Correct
1,new_learn,1000,324,A,58.642011709685306,79.69315357426929,2.9321005854842657,1.2518171290516376,100,217,Incorrect
1,new_learn,1000,325,B,57.966098895788654,44.082535070328156,2.8983049447894325,0.6924468416427867,100,220,Correct
1,new_learn,1000,326,B,60.59338567170621,31.2621678660516,3.0296692835853105,0.491064984516393,100,269,Incorrect
1,new_learn,1000,327,B,88.01231514886139,61.21653908800073,4.400615757443069,0.9615871473852775,100,620,Incorrect
1,new_learn,1000,328,B,81.000387070246,49.885521553582365,4.0500193535123,0.7835999401661482,100,308,Correct
1,new_learn,1000,329,B,32.96387995521105,18.87167329913202,1.6481939977605524,0.296435550987499,107,249,Correct
1,new_learn,1000,330,B,79.0009648428894,56.65119434286197,3.95004824214447,0.8898748798231141,100,221,Correct
1,new_learn,1000,331,A,26.99144410387445,57.29966582754876,1.3495722051937225,0.9000610460848865,107,204,Incorrect
1,new_learn,1000,332,A,13.931419773777392,31.275613500748065,0.6965709886888696,0.49127618805231926,107,270,Incorrect
1,new_learn,1000,333,A,28.652982820552815,38.361512535722284,1.4326491410276407,0.6025812298140895,100,259,Incorrect
1,new_learn,1000,334,B,42.362501025771685,33.470963150746165,2.118125051288584,0.5257606597147941,A,780,Correct
1,new_learn,1000,335,A,21.906852915682308,36.70500654293305,1.0953426457841153,0.5765608945262188,A,420,Incorrect
1,new_learn,1000,336,B,75.10203779499716,64.78273318968434,3.755101889749858,1.0176047933408998,B,643,Incorrect
1,new_learn,1000,337,B,84.23413689793242,66.77500879881649,4.2117068448966215,1.0488993854287783,B,778,Correct
1,new_learn,1000,338,B,76.5914411267993,51.950013050065934,3.8295720563399644,0.816028896759905,B,485,Correct
1,new_learn,1000,339,A,41.69711217557775,63.58282335678574,2.0848556087788874,0.9987566537608779,A,669,Incorrect
1,new_learn,1000,340,A,25.333928023682304,37.649005893145464,1.2666964011841153,0.5913892016443231,107,449,Correct
1,new_learn,1000,341,B,85.56587094481701,63.267260217412016,4.2782935472408505,0.9937997995588769,B,528,Incorrect
1,new_learn,1000,342,A,22.820978279530014,41.302617294966964,1.1410489139765005,0.6487799953394948,A,462,Incorrect
1,new_learn,1000,343,A,51.97806687020939,74.12852464736942,2.5989033435104694,1.1644081422681283,B,1558,Correct
1,new_learn,1000,344,A,57.92785649528278,67.06406842349985,2.896392824764139,1.0534399233955516,B,570,Correct
1,new_learn,1000,345,A,36.50942739949765,58.1833415097134,1.8254713699748828,0.9139417912411084,B,534,Incorrect
1,new_learn,1000,346,A,41.122568619011886,59.770294827030824,2.056128430950594,0.9388695956574801,A,599,Incorrect
1,new_learn,1000,347,B,65.17780080451547,49.20365637251998,3.2588900402257734,0.772889226948327,B,617,Incorrect
1,new_learn,1000,348,B,40.53396298385999,26.714589353550082,2.026698149193,0.4196317882839052,A,589,Correct
1,new_learn,1000,349,A,25.09423591793175,57.42742907258919,1.2547117958965877,0.9020679464449757,A,486,Incorrect
1,new_learn,1000,350,B,68.48446735916716,57.096729261363365,3.424223367958358,0.8968733259575224,B,1386,Incorrect
1,new_learn,1000,351,A,48.30677492478158,67.32035873087827,2.4153387462390787,1.0574657221297832,A,838,Incorrect
1,new_learn,1000,352,B,61.26656692330055,40.811027323678196,3.0633283461650276,0.6410581181275987,B,583,Correct
1,new_learn,1000,353,B,33.48586760042645,17.20166020812399,1.6742933800213224,0.270203046696951,B,823,Correct
1,new_learn,1000,354,A,49.41219351354455,77.58804580280304,2.4706096756772276,1.218750173502372,A,801,Correct
1,new_learn,1000,355,B,52.28741928743152,20.49247118132294,2.614370964371576,0.32189498458572346,A,698,Incorrect
1,new_learn,1000,356,B,57.45455902638992,47.64154939334387,2.8727279513194963,0.7483517078988219,A,861,Incorrect
1,new_learn,1000,357,B,40.322544201449396,21.652544321295082,2.01612721007247,0.3401173708565401,A,655,Incorrect
1,new_learn,1000,358,A,58.01050039891833,76.12436748848756,2.9005250199459165,1.1957587683050113,B,548,Correct
1,new_learn,1000,359,B,56.784734438471816,36.43996688685572,2.8392367219235903,0.5723976613440063,B,602,Incorrect
1,new_learn,1000,360,A,50.180408151679735,61.17195023451051,2.5090204075839866,0.9608867473124932,B,557,Correct
1,new_learn,1000,361,A,32.42104498441348,62.49908593217026,1.6210522492206738,0.9817333461029163,A,500,Correct
1,new_learn,1000,362,A,16.571169863902245,33.432526374177996,0.8285584931951122,0.525156896240323,B,457,Incorrect
1,new_learn,1000,363,B,41.349572082714744,19.403371098658734,2.0674786041357374,0.304787440492114,B,1176,Incorrect
1,new_learn,1000,364,B,65.8611530703484,55.26738646209336,3.29305765351742,0.8681380764621025,A,452,Incorrect
1,new_learn,1000,365,B,74.60018684649543,60.239614613306685,3.7300093423247715,0.9462416536212233,B,217,Incorrect
1,new_learn,1000,366,A,46.87761572450822,78.61908941620814,2.343880786225411,1.2349457687093928,A,478,Correct
1,new_learn,1000,367,B,71.97645800807497,46.52993098894722,3.5988229004037486,0.7308904468345832,B,538,Correct
1,new_learn,1000,368,B,69.68120865052137,41.6236614880215,3.4840604325260687,0.6538229457313837,A,423,Incorrect
1,new_learn,1000,369,A,42.267399609165714,63.740271803506836,2.1133699804582857,1.0012298481785686,B,331,Correct
1,new_learn,1000,370,B,85.26364759306743,65.79985444955534,4.263182379653371,1.0335816967300036,A,1500,Incorrect
1,new_learn,1000,371,A,48.162537705482634,69.70167154128322,2.4081268852741315,1.0948712962851206,B,473,Incorrect
1,new_learn,1000,372,A,59.175431274495466,71.21363453902549,2.958771563724773,1.1186211555161543,A,325,Incorrect
1,new_learn,1000,373,B,55.12065637606002,35.7965513418331,2.7560328188030008,0.5622909135967638,B,508,Correct
1,new_learn,1000,374,A,46.49982182218601,53.2468190450286,2.3249910911093004,0.8363990776944346,B,678,Correct
1,new_learn,1000,375,B,50.212815856758255,32.242899946262035,2.5106407928379126,0.5064702880080377,A,451,Correct
1,new_learn,1000,376,B,73.26772803484518,53.16923991245226,3.6633864017422586,0.8351804675295662,B,1125,Correct
1,new_learn,1000,377,B,71.12919949752445,40.75100835036984,3.5564599748762227,0.640115342299491,B,493,Incorrect
1,new_learn,1000,378,A,47.88960917039821,58.10464160526434,2.3944804585199106,0.9127055760328315,A,597,Correct
1,new_learn,1000,379,A,57.81412227200143,73.53606038746241,2.8907061136000713,1.1551017354359367,A,413,Correct
1,new_learn,1000,380,B,49.45337202633179,25.206327418498073,2.47266860131659,0.39594006520966263,B,647,Incorrect
1,new_learn,1000,381,B,86.16726192132568,59.90513999867096,4.308363096066284,0.9409877386604639,A,290,Incorrect
1,new_learn,1000,382,A,32.92533386320989,43.81245221082099,1.6462666931604946,0.6882043900063456,A,2122,Incorrect
1,new_learn,1000,383,B,51.44022577848646,44.56120416196251,2.572011288924323,0.6999657581516817,A,671,Incorrect
1,new_learn,1000,384,B,61.68005471656936,32.1527445813517,3.0840027358284683,0.5050541308476176,A,1015,Correct
1,new_learn,1000,385,A,31.72912921722949,48.08871352277257,1.5864564608614744,0.7553757456186323,A,523,Correct
1,new_learn,1000,386,A,30.74473089305158,45.75999650285772,1.537236544652579,0.7187963442083622,A,553,Correct
1,new_learn,1000,387,B,79.4442363082797,61.79430285373202,3.972211815413985,0.9706626393949364,B,542,Correct
1,new_learn,1000,388,B,80.8756097682394,54.10431059967051,4.04378048841197,0.8498685235373262,A,1080,Correct
1,new_learn,1000,389,A,52.68330707501735,63.48750782876712,2.6341653537508676,0.9972594409478963,B,750,Correct
1,new_learn,1000,390,A,61.251734516676436,77.45485135462081,3.062586725833822,1.2166579600028307,B,421,Correct
1,new_learn,1000,391,B,85.12005044389089,62.5072047309384,4.256002522194544,0.9818608758957462,B,767,Incorrect
1,new_learn,1000,392,B,58.300554524009144,36.80389711338027,2.9150277262004574,0.5781142639743503,A,487,Correct
1,new_learn,1000,393,B,48.63876345462697,36.578009255900355,2.4319381727313485,0.5745660258063799,A,697,Incorrect
1,new_learn,1000,394,A,26.043570725765093,45.76693742274701,1.3021785362882548,0.7189053719230291,B,426,Incorrect
1,new_learn,1000,395,A,38.22191406749908,47.11547255870438,1.911095703374954,0.7400881123041859,A,906,Correct
1,new_learn,1000,396,B,74.89184944514736,45.37972521338747,3.7445924722573682,0.7128230567615078,A,524,Correct
1,new_learn,1000,397,B,59.19372899504356,30.780010585366664,2.9596864497521778,0.4834912756620199,A,370,Incorrect
1,new_learn,1000,398,A,59.72928501877274,73.23756089218682,2.986464250938637,1.150412916328646,A,504,Correct
1,new_learn,1000,399,A,34.29812869600457,64.78627847942687,1.7149064348002283,1.01766048262195,A,923,Incorrect
1,new_learn,1000,400,A,43.83734209563208,53.40220431228116,2.191867104781604,0.8388398637648181,A,410,Correct
1,new_learn,1000,401,A,50.4886475488625,80.48068745316243,2.524432377443125,1.2641876822935567,A,486,Correct
1,new_learn,1000,402,A,51.7699630170581,72.62593483525265,2.5884981508529052,1.1408055166926039,A,348,Correct
1,new_learn,1000,403,A,36.60547426299261,47.07162223371966,1.8302737131496303,0.7393993130100383,A,466,Incorrect
1,new_learn,1000,404,B,78.86077929332367,58.17068799413175,3.943038964666184,0.9137430302831414,B,537,Incorrect
1,new_learn,1000,405,B,47.40099785294561,37.856817674375876,2.3700498926472804,0.5946535014705374,A,391,Correct
1,new_learn,1000,406,B,48.236074915468855,28.606680774427822,2.411803745773443,0.4493526908226541,A,636,Correct
1,new_learn,1000,407,B,58.05254203191005,48.634121666804496,2.9026271015955025,0.763942996711126,A,536,Incorrect
1,new_learn,1000,408,A,34.702211840730676,57.0788199843495,1.735110592036534,0.8965920076920333,B,364,Incorrect
1,new_learn,1000,409,B,43.450981379571346,35.181569643273086,2.1725490689785674,0.552630803665322,A,460,Incorrect
1,new_learn,1000,410,A,57.90985181278403,67.04778404718368,2.8954925906392015,1.053184129010536,B,305,Incorrect
1,new_learn,1000,411,B,78.15889029762835,55.82567637464287,3.907944514881417,0.8769076739012965,A,308,Incorrect
1,new_learn,1000,412,A,40.120354762081035,54.324601485692014,2.0060177381040516,0.8533288446832159,A,495,Incorrect
1,new_learn,1000,413,A,21.8130242475056,40.84223353700493,1.0906512123752798,0.6415483041802668,A,535,Correct
1,new_learn,1000,414,A,22.294173287521655,41.01391714374476,1.1147086643760828,0.644245103968645,A,994,Correct
1,new_learn,1000,415,A,37.59824219398066,60.584568893164345,1.879912109699033,0.9516601827783491,A,1046,Correct
1,new_learn,1000,416,B,79.80188869003375,54.56707917027514,3.9900944345016875,0.8571376752459451,B,1596,Correct
1,new_learn,1000,417,A,51.69765547224803,75.06831278613456,2.584882773612401,1.1791702998315055,B,740,Correct
1,new_learn,1000,418,A,56.49140368988224,69.55103258753708,2.824570184494112,1.092505065132954,B,894,Correct
1,new_learn,1000,419,B,47.30252268639205,37.6382475354597,2.3651261343196026,0.5912202097569716,A,542,Correct
1,new_learn,1000,420,A,23.57186027282405,35.71131842953196,1.1785930136412026,0.5609520781411169,A,574,Incorrect
1,new_learn,1000,421,A,59.215152647124825,79.28358877424982,2.960757632356241,1.245383700217087,B,480,Correct
1,new_learn,1000,422,B,79.8374682649019,53.48810747793737,3.9918734132450946,0.8401892275355466,B,541,Correct
1,new_learn,1000,423,A,32.93607458712032,60.026506715009255,1.646803729356016,0.9428941625826573,A,661,Correct
1,new_learn,1000,424,B,38.05021575766608,17.938693657471273,1.902510787883304,0.2817803410465478,B,696,Incorrect
1,new_learn,1000,425,B,87.02267341087571,68.03147434965172,4.351133670543786,1.0686359001487415,B,658,Correct
1,new_learn,1000,426,A,58.3159513610022,69.49595246730733,2.91579756805011,1.0916398686275908,B,694,Incorrect
1,new_learn,1000,427,B,38.36758560343142,25.815782491690975,1.918379280171571,0.40551336311284186,A,567,Incorrect
1,new_learn,1000,428,B,53.491084948431435,32.28463125132474,2.6745542474215718,0.5071258018150863,107,581,Correct
1,new_learn,1000,429,A,37.51020637006127,64.98373432921345,1.8755103185030635,1.020762111857439,A,578,Correct
1,new_learn,1000,430,A,44.46410778573025,71.19066020569299,2.2232053892865125,1.1182602755320619,B,867,Incorrect
1,new_learn,1000,431,B,33.91793547409245,11.746343565094719,1.6958967737046224,0.18451113325321655,A,543,Correct
1,new_learn,1000,432,A,38.052941000461146,68.17213198856875,1.9026470500230572,1.0708453451742066,A,930,Correct
1,new_learn,1000,433,A,39.8986002803946,71.8298479560859,1.9949300140197297,1.1283006132365563,A,527,Incorrect
1,new_learn,1000,434,B,82.53253096435648,56.92582395033463,4.126626548217825,0.8941887516095858,B,570,Incorrect
1,new_learn,1000,435,A,47.066778233611885,75.64516188476945,2.3533389116805945,1.1882314242840115,B,528,Incorrect
1,new_learn,1000,436,A,61.57452460179301,71.47179498499602,3.0787262300896505,1.1226763303186968,B,2510,Correct
1,new_learn,1000,437,B,65.64394013746536,54.227282648925,3.2821970068732687,0.8518001639700001,B,935,Correct
1,new_learn,1000,438,B,34.41627202772756,20.163642614946273,1.720813601386378,0.3167297575436265,A,613,Incorrect
1,new_learn,1000,439,B,70.89982162035315,59.55318961128118,3.5449910810176575,0.9354593149032048,B,436,Correct
1,new_learn,1000,440,A,19.95797319422448,33.75795047698507,0.9978986597112239,0.5302686460937218,A,501,Correct
1,new_learn,1000,441,B,56.03823622714551,26.57889136414833,2.8019118113572756,0.4175002492508479,B,1149,Correct
1,new_learn,1000,442,A,32.30618446813913,53.110373391691,1.6153092234069564,0.8342557943837363,A,517,Correct
1,new_learn,1000,443,B,30.05682909911493,12.765016151891444,1.5028414549557465,0.2005124048286861,A,684,Incorrect
1,new_learn,1000,444,B,59.76336380276304,47.97978568077563,2.988168190138152,0.7536647110776872,B,389,Correct
1,new_learn,1000,445,A,28.151191521772528,50.345140364263294,1.4075595760886264,0.7908196155615826,B,350,Incorrect
1,new_learn,1000,446,A,23.14177530196613,53.941442513362865,1.1570887650983066,0.8473101976200846,A,408,Correct
1,new_learn,1000,447,A,28.484660219379748,56.23998053533208,1.4242330109689874,0.8834155484391611,A,714,Correct
1,new_learn,1000,448,A,53.69524028790952,64.1089166891819,2.684762014395476,1.0070205085016697,A,1001,Correct
1,new_learn,1000,449,B,67.6523503473013,41.70103036918151,3.3826175173650648,0.6550382532747275,B,1686,Incorrect
1,new_learn,1000,450,B,73.874628626086,49.93366220235161,3.6937314313043,0.7843561317087108,A,294,Correct
1,new_learn,1000,451,A,32.35633804272756,60.33220224738652,1.6178169021363777,0.9476960167764156,A,376,Correct
1,new_learn,1000,452,A,54.581378225466935,80.81710651827834,2.729068911273347,1.269472140611035,B,427,Incorrect
1,new_learn,1000,453,A,40.474776199042005,71.50980194979958,2.0237388099521003,1.123273342325757,A,322,Correct
1,new_learn,1000,454,B,75.19095738556797,49.45373722237481,3.7595478692783986,0.776817487751864,A,761,Incorrect
1,new_learn,1000,455,A,25.195895434492762,47.40584983898093,1.2597947717246383,0.7446493479566167,B,253,Correct
1,new_learn,1000,456,A,23.155899686075948,50.64296907464519,1.1577949843037973,0.795497898004402,A,612,Incorrect
1,new_learn,1000,457,A,38.099049562812525,64.69628334506264,1.9049524781406262,1.0162468423570623,B,593,Incorrect
1,new_learn,1000,458,A,38.68924519430085,67.90305561648077,1.9344622597150425,1.0666187034051757,A,357,Incorrect
1,new_learn,1000,459,B,56.69232093101504,36.275985614791296,2.8346160465507517,0.5698218495457869,A,509,Incorrect
1,new_learn,1000,460,B,34.155266843795935,17.317121990118146,1.7077633421897969,0.2720167161273671,B,337,Correct
1,new_learn,1000,461,A,17.91749566572261,32.45988070119101,0.8958747832861305,0.5098786137363138,A,519,Incorrect
1,new_learn,1000,462,B,49.182009300328076,34.95912238236994,2.459100465016404,0.5491366102619994,B,1230,Incorrect
1,new_learn,1000,463,A,15.94662756930007,38.859066581912785,0.7973313784650035,0.6103967904954691,A,383,Correct
1,new_learn,1000,464,A,25.947879078007865,38.35541045720998,1.2973939539003934,0.60248537858896,A,486,Incorrect
1,new_learn,1000,465,B,56.17098449718539,25.600764398155547,2.808549224859269,0.40213586679764296,B,730,Correct
1,new_learn,1000,466,A,44.82013538343327,69.27986076954089,2.2410067691716633,1.0882455081765667,B,909,Incorrect
1,new_learn,1000,467,A,43.30082245029459,57.1799829100612,2.1650411225147295,0.8981810712131908,A,1068,Correct
1,new_learn,1000,468,A,59.67358183824338,82.81823037014276,2.983679091912169,1.300905720570738,B,698,Incorrect
1,new_learn,1000,469,B,68.14072155840125,56.177645103173646,3.4070360779200626,0.8824363857605247,A,649,Correct
1,new_learn,1000,470,B,83.88694410428539,68.87188074421994,4.194347205214269,1.0818369729247683,B,1361,Incorrect
1,new_learn,1000,471,A,63.51795735011192,74.72148648742801,3.1758978675055958,1.1737223650710642,B,637,Incorrect
1,new_learn,1000,472,A,12.05869088649641,38.50709170729918,0.6029345443248205,0.6048679820937977,A,590,Correct
1,new_learn,1000,473,B,64.37642287323686,34.43146202736065,3.218821143661843,0.5408481407875608,A,803,Correct
1,new_learn,1000,474,B,67.1619315310332,50.521211133670434,3.35809657655166,0.7935853287399895,A,703,Correct
1,new_learn,1000,475,B,50.990955982858964,21.91515497508442,2.5495477991429483,0.3442424493600351,B,581,Incorrect
1,new_learn,1000,476,A,21.475364514342402,33.37166286470886,1.0737682257171202,0.5242008544692233,A,549,Correct
1,new_learn,1000,477,A,52.41178118611377,81.27092704350096,2.6205890593056886,1.2766007367514731,B,565,Correct
1,new_learn,1000,478,B,81.31473837024322,60.107189821337045,4.065736918512161,0.9441615298531982,B,484,Incorrect
1,new_learn,1000,479,A,22.211178833895204,33.483241387108784,1.11055894169476,0.5259535258005733,A,497,Correct
1,new_learn,1000,480,A,11.5607639418219,34.512354428154325,0.578038197091095,0.542118795647884,A,647,Incorrect
1,new_learn,1000,481,B,47.033024689921724,36.959667385192915,2.351651234496086,0.5805610976822217,107,325,Incorrect
1,new_learn,1000,482,A,67.52226121887594,87.52891041408515,3.376113060943797,1.3749009096680451,B,435,Incorrect
1,new_learn,1000,483,A,28.291268781545142,58.028255134623514,1.414563439077257,0.9115057001578373,A,428,Incorrect
1,new_learn,1000,484,A,26.155376200643197,43.201594510203336,1.3077688100321598,0.6786090596830997,A,562,Incorrect
1,new_learn,1000,485,A,27.138511654066807,49.84283065484979,1.3569255827033404,0.7829293530969813,A,465,Incorrect
1,new_learn,1000,486,A,52.94083642113046,63.437446607479444,2.647041821056523,0.9964730811227608,A,433,Correct
1,new_learn,1000,487,B,55.111716202951236,46.521383874402474,2.7555858101475614,0.7307561890732674,A,778,Incorrect
1,new_learn,1000,488,A,43.87559939615228,67.0589692180512,2.193779969807614,1.0533598252636687,B,804,Correct
1,new_learn,1000,489,B,63.00074624941077,31.64027439512578,3.1500373124705385,0.4970042679864619,B,1780,Correct
1,new_learn,1000,490,B,48.10899820700666,21.97216701054168,2.405449910350333,0.34513799231882875,A,1486,Correct
1,new_learn,1000,491,B,60.67378035414688,47.265653928082344,3.033689017707344,0.7424471557379052,B,714,Correct
1,new_learn,1000,492,B,47.554764080366084,26.256763092906386,2.3777382040183044,0.41244027019861157,B,944,Incorrect
1,new_learn,1000,493,A,53.1688966943789,63.89931822526889,2.658444834718945,1.0037281435295058,B,465,Incorrect
1,new_learn,1000,494,B,63.99080499155138,37.49920772152321,3.1995402495775687,0.5890361774668749,B,520,Incorrect
1,new_learn,1000,495,B,57.93977273496854,28.100064032414245,2.8969886367484268,0.44139477364817686,A,618,Correct
1,new_learn,1000,496,A,56.99443534937939,68.48244175451045,2.8497217674689694,1.0757196795793047,B,441,Correct
1,new_learn,1000,497,B,73.21680358505668,47.10118456206655,3.6608401792528342,0.7398636769778263,B,510,Incorrect
1,new_learn,1000,498,A,68.92135135677827,85.00033309974175,3.4460675678389134,1.33518211009417,B,768,Correct
1,new_learn,1000,499,A,20.09613501261901,42.60860828789522,1.0048067506309506,0.669294453884684,A,561,Incorrect
1,new_learn,1000,500,A,57.57787257140009,69.4022569755609,2.878893628570005,1.0901681032848656,A,593,Incorrect
1,new_learn,1000,501,A,13.541953886486827,38.66530193421761,0.6770976943243413,0.6073531425268462,A,1289,Correct
1,new_learn,1000,502,B,36.347833129123764,23.587895257041836,1.817391656456188,0.3705177922658408,A,2081,Incorrect
1,new_learn,1000,503,B,49.48781394792597,37.72338736190714,2.4743906973962986,0.5925575830234477,A,697,Correct
1,new_learn,1000,504,B,78.89672864233198,48.14898806858348,3.944836432116599,0.7563225359702224,B,583,Correct
1,new_learn,1000,505,A,39.42849210164758,71.23849105288993,1.971424605082379,1.1190116007229058,A,489,Incorrect
1,new_learn,1000,506,A,47.68910586819425,74.90941071510579,2.3844552934097125,1.1766742719365846,A,726,Incorrect
1,new_learn,1000,507,B,35.46439563982945,14.522372302639141,1.7732197819914723,0.22811689069333504,B,514,Incorrect
1,new_learn,1000,508,A,57.179199306599855,65.63052896286648,2.858959965329993,1.0309219382047674,A,1006,Correct
1,new_learn,1000,509,B,49.978240078408405,38.829169311527195,2.4989120039204202,0.6099271652704404,B,1439,Correct
1,new_learn,1000,510,A,34.636296108076984,46.45408969676749,1.7318148054038491,0.7296991346028302,A,511,Incorrect
1,new_learn,1000,511,A,25.11889655484653,48.02761786956447,1.2559448277423264,0.7544160573422082,A,2823,Incorrect
1,new_learn,1000,512,B,30.789739393466757,16.652860985285837,1.5394869696733378,0.26158252866313036,A,820,Incorrect
1,new_learn,1000,513,B,70.80984812247068,54.64872287540368,3.540492406123534,0.8584201315671633,A,1184,Correct
1,new_learn,1000,514,B,41.77422460077025,16.554845146054927,2.0887112300385127,0.260042899460814,A,411,Correct
1,new_learn,1000,515,A,56.27196387548709,74.9912236121193,2.813598193774354,1.177959385917717,B,3548,Incorrect
1,new_learn,1000,516,A,24.82498926990435,39.84765387125443,1.2412494634952176,0.625925483323609,A,477,Correct
1,new_learn,1000,517,B,58.99131624215911,31.659066397817227,2.9495658121079553,0.49729945207447035,B,547,Correct
1,new_learn,1000,518,A,44.297441144325944,70.22257254343525,2.214872057216297,1.1030535900931624,B,541,Correct
1,new_learn,1000,519,B,70.64936430653586,55.10520671095554,3.532468215326793,0.8655905628884244,B,662,Incorrect
1,new_learn,1000,520,A,41.94385168292756,52.18269155156381,2.097192584146378,0.8196838021146753,A,381,Correct
1,new_learn,1000,521,B,68.4550339944623,40.10065085749026,3.4227516997231144,0.6298995506903031,B,418,Correct
1,new_learn,1000,522,A,37.42967817367743,60.75899380933381,1.8714839086838715,0.9544000429545542,A,498,Incorrect
1,new_learn,1000,523,A,32.91265374665515,43.83687100769699,1.6456326873327578,0.6885879595707213,B,305,Incorrect
1,new_learn,1000,524,B,61.95136955094066,44.98981557220324,3.097568477547033,0.7066983704399669,A,142,Correct
1,new_learn,1000,525,A,30.184277952647232,55.38405798791733,1.5092138976323617,0.8699707485041609,A,342,Correct
1,new_learn,1000,526,A,30.366037645798716,62.86425233159805,1.518301882289936,0.9874693664918174,A,611,Correct
1,new_learn,1000,527,A,24.110395334363076,52.05292887043717,1.2055197667181539,0.8176454946859875,A,1040,Correct
1,new_learn,1000,528,B,64.225631888312,38.79835727872119,3.2112815944156,0.6094431709909128,B,958,Incorrect
1,new_learn,1000,529,B,50.79921976875785,29.771104935220716,2.539960988437892,0.46764342276870124,A,1046,Incorrect
1,new_learn,1000,530,A,43.632501940510906,59.2890599555901,2.1816250970255453,0.9313103759736331,A,649,Correct
1,new_learn,1000,531,B,80.24529827469493,56.52470713422841,4.012264913734747,0.8878880233960326,B,537,Correct
1,new_learn,1000,532,B,50.31451462573018,41.29371052519858,2.515725731286509,0.6486400881271368,B,1065,Correct
1,new_learn,1000,533,A,42.16558547647179,51.02120969972853,2.1082792738235896,0.8014392878496573,A,839,Correct
1,new_learn,1000,534,B,58.16443125079652,28.994324001186,2.908221562539826,0.45544177638964084,B,5482,Correct
1,new_learn,1000,535,B,37.66002220060872,17.401266549863628,1.883001110030436,0.2733384557810469,A,490,Correct
1,new_learn,1000,536,A,58.68426566987696,66.94978813431653,2.934213283493848,1.0516448128108098,B,621,Correct
1,new_learn,1000,537,B,37.29742978872656,23.642947680455197,1.864871489436328,0.37138255371062945,A,542,Incorrect
1,new_learn,1000,538,B,34.532177860249064,17.22298200086411,1.7266088930124532,0.2705379686341196,A,627,Incorrect
1,new_learn,1000,539,B,80.96713703082477,59.689586477994965,4.048356851541239,0.9376018318754082,B,546,Incorrect
1,new_learn,1000,540,A,57.77044320363104,85.00364083202038,2.888522160181552,1.3352340678313028,A,494,Incorrect
1,new_learn,1000,541,A,52.95982358818842,66.98886710613488,2.647991179409421,1.0522586638646814,B,512,Incorrect
1,new_learn,1000,542,A,27.66061563034257,53.599889793492366,1.3830307815171283,0.8419451000422907,A,1075,Correct
1,new_learn,1000,543,A,25.272286298874583,56.993171686501356,1.2636143149437291,0.8952466473754724,A,593,Correct
1,new_learn,1000,544,A,14.591829767956884,42.00689580720264,0.7295914883978442,0.6598427763400985,A,534,Incorrect
1,new_learn,1000,545,A,15.57575646010423,32.181547254501474,0.7787878230052115,0.5055065621794731,A,469,Incorrect
1,new_learn,1000,546,A,34.34033615681259,45.42807165310129,1.7170168078406294,0.7135824808606687,A,385,Incorrect
1,new_learn,1000,547,B,81.68394998603603,54.4324289235554,4.084197499301801,0.8550225941164511,A,185,Incorrect
1,new_learn,1000,548,A,17.845254362889786,40.594255951446044,0.8922627181444893,0.6376530813750332,A,756,Correct
1,new_learn,1000,549,B,80.08927885693305,55.34901471089472,4.004463942846653,0.869420289995901,B,1838,Correct
1,new_learn,1000,550,A,54.01095367429002,82.81021401571473,2.7005476837145013,1.3007797999698396,B,586,Correct
1,new_learn,1000,551,A,43.08197121726535,70.75864597896833,2.1540985608632672,1.1114742119274392,B,717,Correct
1,new_learn,1000,552,A,53.74828233815829,64.75008656945943,2.6874141169079144,1.0170919814295842,B,689,Incorrect
1,new_learn,1000,553,A,33.62600851601332,64.83551112387636,1.681300425800666,1.0184338271925464,A,911,Incorrect
1,new_learn,1000,554,B,60.425743479854816,38.72251829727675,3.0212871739927407,0.6082518950561049,A,659,Correct
1,new_learn,1000,555,A,44.883932881803446,54.259534154805856,2.2441966440901724,0.8523067694397127,A,2200,Correct
1,new_learn,1000,556,A,33.43912790246184,61.96843413583856,1.6719563951230922,0.9733978871780669,A,677,Incorrect
1,new_learn,1000,557,B,49.67622459261949,38.34883976730369,2.4838112296309744,0.6023821664332669,A,918,Incorrect
1,new_learn,1000,558,A,33.17316079364727,43.70197851208445,1.6586580396823636,0.6864690732045176,A,1003,Correct
1,new_learn,1000,559,B,75.13640812170152,50.0567394170244,3.7568204060850756,0.7862894240759124,A,1958,Correct
1,new_learn,1000,560,B,49.16802364137871,30.480338707142877,2.4584011820689353,0.4787840408064434,A,1358,Correct
1,new_learn,1000,561,B,71.01827986998205,42.24534471828914,3.5509139934991025,0.6635883230767275,A,1105,Correct
1,new_learn,1000,562,B,47.28358438762341,32.295338953604336,2.3641792193811706,0.5072939980091783,A,2000,Correct
1,new_learn,1000,563,B,68.25417118129138,50.923351689531074,3.412708559064569,0.7999021378200011,B,615,Incorrect
1,new_learn,1000,564,A,25.576068457018344,42.65428788524505,1.2788034228509173,0.6700119873219498,A,1034,Correct
1,new_learn,1000,565,B,55.81639346532117,29.610306610833774,2.790819673266059,0.46511760859568335,B,961,Correct
1,new_learn,1000,566,B,68.32586914194745,42.85793897514079,3.416293457097373,0.6732109311615099,B,701,Correct
1,new_learn,1000,567,B,77.82548763368669,56.72536100765301,3.8912743816843345,0.8910398870693579,B,1158,Correct
1,new_learn,1000,568,B,35.59991575109596,14.007194099163083,1.7799957875547983,0.2200244903966852,B,2450,Correct
1,new_learn,1000,569,B,37.40587199958963,20.44669439929941,1.8702935999794814,0.32117592457517297,A,1029,Incorrect
1,new_learn,1000,570,A,63.41432424840312,83.32713595023294,3.1707162124201558,1.3088995907296488,B,1364,Incorrect
1,new_learn,1000,571,A,60.43900372621353,74.30302098182486,3.021950186310676,1.1671491242801462,A,990,Incorrect
1,new_learn,1000,572,B,51.62485306874902,44.76800562031103,2.581242653437451,0.7032141878631785,107,597,Incorrect
1,new_learn,1000,573,A,66.48120407879111,86.29799445186742,3.3240602039395553,1.3555657269475971,A,1452,Incorrect
1,new_learn,1000,574,B,79.96575437804721,54.75253160113901,3.9982877189023607,0.8600507552179065,A,2879,Incorrect
1,new_learn,1000,575,A,52.48692834962085,60.27790420861606,2.6243464174810422,0.9468431051778874,A,2286,Incorrect
1,new_learn,1000,576,B,69.6889378641725,41.50027931808205,3.484446893208625,0.6518848631380549,B,1379,Correct
1,new_learn,1000,577,B,86.08771323806047,68.52279198487837,4.304385661903024,1.076353499515777,B,496,Correct
1,new_learn,1000,578,B,81.17835851595798,61.75048857860695,4.058917925797899,0.96997440637066,B,609,Incorrect
1,new_learn,1000,579,B,34.887251140641446,12.777069452952198,1.7443625570320722,0.20070173763900595,A,1506,Incorrect
1,new_learn,1000,580,A,52.26365173276217,61.082861192681776,2.613182586638109,0.9594873399158707,B,478,Correct
1,new_learn,1000,581,B,43.774150103548905,28.229829367917233,2.188707505177445,0.4434331227717109,A,822,Correct
1,new_learn,1000,582,A,31.274585898198062,40.45086228429241,1.563729294909903,0.6354006589185274,B,4688,Correct
1,new_learn,1000,583,B,68.90685340906799,54.66221895855254,3.4453426704533996,0.8586321275455269,B,662,Incorrect
1,new_learn,1000,584,B,83.17616877845444,64.81005867821263,4.158808438922722,1.018034021110981,B,732,Correct
1,new_learn,1000,585,A,19.802143991470352,41.76672553827175,0.9901071995735177,0.6560701905776786,A,584,Incorrect
1,new_learn,1000,586,B,37.31694045016337,18.646311683089202,1.8658470225081687,0.2928955790006929,A,675,Correct
1,new_learn,1000,587,B,66.43867738626943,35.19333863524332,3.3219338693134715,0.5528156705588912,A,964,Incorrect
1,new_learn,1000,588,B,52.1670919075013,43.19887672523789,2.608354595375065,0.6785663688166923,A,5094,Incorrect
1,new_learn,1000,589,B,33.6480742670927,10.25420347491854,1.6824037133546352,0.16107265152609507,A,1261,Incorrect
1,new_learn,1000,590,A,59.94520100241509,84.24061532288871,2.9972600501207545,1.3232484911613547,B,861,Incorrect
1,new_learn,1000,591,B,52.812457296649555,30.3569995588197,2.6406228648324777,0.4768466339950829,A,762,Correct
1,new_learn,1000,592,A,38.0635040073246,48.169853873430114,1.9031752003662303,0.7566502952663094,A,846,Incorrect
1,new_learn,1000,593,B,71.9342499330765,54.482487648773755,3.596712496653825,0.8558089147334214,B,2328,Incorrect
1,new_learn,1000,594,B,39.957381012722635,28.67421515086397,1.9978690506361318,0.45041351832703685,A,466,Incorrect
1,new_learn,1000,595,B,48.64523779203914,41.00204923505055,2.432261889601957,0.644058683294809,A,1351,Incorrect
1,new_learn,1000,596,A,44.65561513527249,55.13373534297358,2.2327807567636246,0.8660386895922487,A,1331,Correct
1,new_learn,1000,597,A,48.28797461056701,64.17373884109273,2.4143987305283505,1.0080387324828344,A,2813,Correct
1,new_learn,1000,598,A,13.633293576080284,31.70668478727425,0.6816646788040143,0.4980474399869402,A,599,Incorrect
1,new_learn,1000,599,A,53.9173365543547,63.94334087519133,2.695866827717735,1.0044196496974451,A,640,Correct
1,new_learn,1000,600,A,63.89931822526889,46.8311033056211,3.1949659112634445,0.7356212505222197,A,1098,Correct
1,new_learn,1000,601,B,59.73132510722165,21.59001123488477,2.9865662553610828,0.33913510343217546,A,951,Incorrect
1,new_learn,1000,602,B,46.17601559482207,35.62670997493345,2.3088007797411034,0.5596230516441256,A,670,Incorrect
1,new_learn,1000,603,A,51.02120969972853,57.83441452352821,2.5510604849864267,0.9084608589589152,A,994,Correct
1,new_learn,1000,604,B,48.1965142691281,39.208339941378924,2.409825713456405,0.6158831635964364,B,786,Correct
1,new_learn,1000,605,B,28.256281269410785,59.76640728175409,1.412814063470539,0.938808530239071,B,1468,Correct
1,new_learn,1000,606,B,52.0946989228825,34.831875377566575,2.6047349461441254,0.5471378189845918,A,584,Incorrect
1,new_learn,1000,607,A,70.74646214813943,49.123947587660005,3.537323107406971,0.7716371642836135,B,577,Incorrect
1,new_learn,1000,608,A,48.39409040051597,81.03337757129103,2.4197045200257987,1.2728693183676791,B,776,Incorrect
1,new_learn,1000,609,B,54.622774951984894,33.899664647461094,2.7311387475992444,0.532494687078107,B,446,Correct
1,new_learn,1000,610,B,32.0847831532246,55.8290248941707,1.60423915766123,0.8769602723230419,A,560,Incorrect
1,new_learn,1000,611,B,47.10711661967872,27.412844087738506,2.355355830983936,0.43059994800020845,A,818,Incorrect
1,new_learn,1000,612,B,32.28463125132474,46.508915051568565,1.6142315625662371,0.7305603292621978,A,642,Incorrect
1,new_learn,1000,613,A,76.4056088980669,49.17594592983479,3.820280444903345,0.7724539523324893,A,604,Correct
1,new_learn,1000,614,B,56.65119434286197,20.999035157110598,2.8325597171430985,0.32985207291026225,A,835,Incorrect
1,new_learn,1000,615,A,43.70197851208445,66.82683920635273,2.1850989256042226,1.0497135355665206,A,609,Correct
1,new_learn,1000,616,A,54.684478795409454,71.88115384416643,2.7342239397704726,1.129106524241955,A,476,Correct
1,new_learn,1000,617,B,28.48851799312301,44.05250490130884,1.4244258996561507,0.6919751288509011,A,678,Incorrect
1,new_learn,1000,618,B,49.986367598365334,19.026929133682103,2.4993183799182668,0.29887430393374653,B,1307,Correct
1,new_learn,1000,619,B,30.43748923663442,55.556992217998385,1.5218744618317208,0.8726871930380451,A,799,Incorrect
1,new_learn,1000,620,B,21.371637324730546,48.410125891476085,1.0685818662365272,0.7604244793000915,B,813,Correct
1,new_learn,1000,621,A,81.76048256264853,36.53741540952828,4.088024128132426,0.5739283791586627,B,798,Incorrect
1,new_learn,1000,622,B,60.13815825807032,12.208784890932378,3.0069079129035163,0.19177514461305611,B,612,Correct
1,new_learn,1000,623,B,36.959667385192915,52.966975310078276,1.8479833692596457,0.8320033025850693,B,1422,Correct
1,new_learn,1000,624,A,55.132672082104435,55.11478969040065,2.7566336041052217,0.8657410919775458,A,934,Correct
1,new_learn,1000,625,A,43.24349991083086,73.68691317988221,2.162174995541543,1.1574713255581341,A,703,Correct
1,new_learn,1000,626,A,31.23702241710664,85.45214356799458,1.561851120855332,1.3422791323335603,A,513,Correct
1,new_learn,1000,627,A,30.198110473772765,86.01051630555617,1.5099055236886383,1.3510500307850017,A,384,Correct
1,new_learn,1000,628,A,61.016596266918526,49.88288445796338,3.0508298133459264,0.7835585167650311,B,600,Incorrect
1,new_learn,1000,629,B,50.532585564463865,41.31637703105303,2.526629278223193,0.6489961327685113,B,570,Correct
1,new_learn,1000,630,A,38.35541045720998,74.05212092199213,1.9177705228604989,1.1632079953563674,B,1131,Incorrect
1,new_learn,1000,631,B,35.181569643273086,56.549018620428654,1.7590784821636545,0.8882699073282554,A,582,Incorrect
1,new_learn,1000,632,A,62.276937792889136,50.20595024823357,3.113846889644457,0.7886332223317262,B,451,Incorrect
1,new_learn,1000,633,B,42.85793897514079,31.67413085805255,2.1428969487570395,0.4975360840624983,B,494,Correct
1,new_learn,1000,634,B,39.028480506521284,52.47996781399734,1.9514240253260642,0.8243534067254142,B,1105,Correct
1,new_learn,1000,635,A,81.53420161385087,40.71152368622228,4.076710080692544,0.6394951186454138,B,667,Incorrect
1,new_learn,1000,636,A,85.13858450542386,32.8172999457675,4.256929225271193,0.5154929421013795,B,548,Incorrect
1,new_learn,1000,637,B,39.64731068285231,53.265599412404214,1.9823655341426154,0.8366940790153296,A,762,Incorrect
1,new_learn,1000,638,A,62.74427302085471,51.99223996758113,3.1372136510427358,0.8166921956291524,B,787,Incorrect
1,new_learn,1000,639,B,45.67649172934996,42.43556551748143,2.2838245864674978,0.66657630440324,B,546,Correct
1,new_learn,1000,640,B,50.0567394170244,24.86359187829848,2.50283697085122,0.39055638793358677,B,687,Correct
1,new_learn,1000,641,B,26.120921615040164,45.61724789778105,1.3060460807520082,0.7165540543632668,A,1017,Incorrect
1,new_learn,1000,642,A,83.33112503063123,31.239229656007282,4.166556251531562,0.4907046719555844,B,568,Incorrect
1,new_learn,1000,643,A,53.85753981320384,70.8455487851812,2.692876990660192,1.1128392780153125,A,1692,Correct
1,new_learn,1000,644,A,32.471407876084726,81.70280729141396,1.6235703938042363,1.2833846958218436,A,822,Correct
1,new_learn,1000,645,B,25.84879447711252,59.459578285822175,1.2924397238556258,0.9339888716414306,A,641,Incorrect
1,new_learn,1000,646,A,40.84223353700493,78.1869757524944,2.0421116768502463,1.2281581431521986,A,1843,Correct
1,new_learn,1000,647,A,51.19709826405533,74.10108653963341,2.5598549132027664,1.163977145479669,A,2861,Correct
1,new_learn,1000,648,A,57.29966582754876,73.00855589612556,2.864983291377438,1.1468157142623392,A,1131,Correct
1,new_learn,1000,649,B,48.37888391551942,28.05479209275498,2.4189441957759708,0.4406836436829404,B,689,Correct
1,new_learn,1000,650,B,27.145975924222142,62.626486132242356,1.3572987962111072,0.9837345437659782,B,4784,Correct
1,new_learn,1000,651,A,60.75899380933381,62.57032182632257,3.0379496904666907,0.9828523169116203,B,2377,Incorrect
1,new_learn,1000,652,A,47.63179189305353,73.26269344332444,2.3815895946526764,1.1508076975187458,A,5730,Correct
1,new_learn,1000,653,B,34.21768918803039,40.661653415933365,1.7108844594015196,0.6387117582715528,B,710,Correct
1,new_learn,1000,654,A,62.29158194103363,54.267993483471884,3.114579097051682,0.8524396482636701,B,1062,Incorrect
1,new_learn,1000,655,B,63.267260217412016,14.434129055182993,3.163363010870601,0.22673076900364933,B,540,Correct
1,new_learn,1000,656,B,46.44518728655828,29.16334705391334,2.322259364327914,0.4580967842933184,B,573,Correct
1,new_learn,1000,657,A,56.488189410262265,50.23485204910317,2.8244094705131135,0.7890872107581633,B,1671,Incorrect
1,new_learn,1000,658,A,80.48068745316243,49.5113524511375,4.024034372658122,0.7777225056489427,B,710,Incorrect
1,new_learn,1000,659,A,45.93618322631974,63.67322526841977,2.296809161315987,1.0001766836681776,B,882,Incorrect
1,new_learn,1000,660,B,54.47549481130357,15.809813298548548,2.723774740565178,0.24833996656673168,B,2605,Correct
1,new_learn,1000,661,A,50.16159699123818,76.35013849055132,2.5080798495619088,1.1993051709123965,A,921,Correct
1,new_learn,1000,662,B,61.79430285373202,20.5557636917203,3.0897151426866007,0.3228891810141815,B,1002,Correct
1,new_learn,1000,663,B,42.97861304334191,49.10534973382627,2.1489306521670954,0.7713450298787307,B,623,Correct
1,new_learn,1000,664,A,50.69698520962891,80.06256208622153,2.5348492604814457,1.2576197843882515,A,1222,Correct
1,new_learn,1000,665,A,32.45988070119101,82.08250433427739,1.6229940350595506,1.289348963024091,A,1043,Correct
1,new_learn,1000,666,B,15.945469854229572,58.77077574238581,0.7972734927114786,0.9231691865902625,B,1335,Correct
1,new_learn,1000,667,B,26.07657739787429,47.04182988546904,1.3038288698937146,0.7389313358980517,A,796,Incorrect
1,new_learn,1000,668,A,39.620767461040266,74.70158051108959,1.9810383730520131,1.1734096827259277,A,821,Correct
1,new_learn,1000,669,A,57.42742907258919,74.90576408206825,2.8713714536294592,1.176616990758779,A,899,Correct
1,new_learn,1000,670,A,60.727233446577806,51.4477910139033,3.03636167232889,0.8081400114635078,B,1278,Incorrect
1,new_learn,1000,671,B,50.321644476375155,21.893610542580618,2.5160822238187577,0.34390403020563654,B,422,Correct
1,new_learn,1000,672,B,29.32269268705253,53.68219624308321,1.4661346343526265,0.843237966729179,B,669,Correct
1,new_learn,1000,673,A,43.707047044535415,66.77185449917471,2.185352352226771,1.0488498378058693,B,520,Incorrect
1,new_learn,1000,674,B,60.107189821337045,18.68526162975678,3.0053594910668524,0.2935074033322357,A,515,Incorrect
1,new_learn,1000,675,A,52.83062377670859,75.17167659719672,2.6415311888354296,1.180793934778905,A,1515,Correct
1,new_learn,1000,676,B,35.18048279218685,56.60850337130837,1.7590241396093427,0.8892042916100771,B,655,Correct
1,new_learn,1000,677,A,44.448665847561315,72.62529109390778,2.2224332923780654,1.1407954048272047,B,643,Incorrect
1,new_learn,1000,678,B,36.578009255900355,51.36123654537303,1.8289004627950178,0.8067804170511576,B,548,Correct
1,new_learn,1000,679,A,67.42732339513171,48.56012453382188,3.3713661697565853,0.7627806524643016,B,492,Incorrect
1,new_learn,1000,680,B,46.747404031108935,38.44062893027881,2.337370201555447,0.6038239872336759,A,386,Incorrect
1,new_learn,1000,681,A,58.19952500195958,70.96424218147335,2.909976250097979,1.114703709524418,A,1352,Correct
1,new_learn,1000,682,B,25.615913116099385,42.44224027216788,1.2807956558049693,0.6666811512046773,B,708,Correct
1,new_learn,1000,683,B,66.19704968777104,21.398432618739932,3.3098524843885517,0.33612579356684785,B,479,Correct
1,new_learn,1000,684,A,64.7373315989805,47.210443566011946,3.2368665799490253,0.7415799133984932,B,488,Incorrect
1,new_learn,1000,685,B,46.69503761371261,24.201443592229438,2.3347518806856304,0.3801553869780788,B,444,Correct
1,new_learn,1000,686,B,46.98038189434432,38.548343648761474,2.3490190947172156,0.605515966075019,B,678,Correct
1,new_learn,1000,687,B,37.18993237007262,47.57948783625635,1.859496618503631,0.7473768472397393,A,957,Incorrect
1,new_learn,1000,688,B,30.480338707142877,50.83197635862129,1.524016935357144,0.7984668174784735,B,1505,Correct
1,new_learn,1000,689,A,39.70809382795837,79.22189017602525,1.9854046913979186,1.2444145409024918,A,554,Correct
1,new_learn,1000,690,B,11.39482597946413,67.81876057267593,0.5697412989732065,1.0652945999534191,A,535,Incorrect
1,new_learn,1000,691,B,50.521211133670434,32.838068468966796,2.5260605566835217,0.5158191733009235,A,865,Incorrect
1,new_learn,1000,692,A,40.45086228429241,68.72541410180193,2.0225431142146206,1.0795362802856867,A,642,Correct
1,new_learn,1000,693,B,44.506120545606336,34.544521838776134,2.225306027280317,0.5426240801523564,B,477,Correct
1,new_learn,1000,694,B,27.52068134444862,47.651272306359886,1.3760340672224312,0.748504435059335,A,642,Incorrect
1,new_learn,1000,695,A,46.88882069458475,77.79759094661557,2.3444410347292375,1.2220417009243563,A,672,Correct
1,new_learn,1000,696,A,67.64376905696213,62.77965522547068,3.3821884528481063,0.9861405182561939,A,697,Correct
1,new_learn,1000,697,A,70.08139635321844,62.80503293321672,3.504069817660922,0.9865391503572936,A,785,Correct
1,new_learn,1000,698,B,47.31514650723815,45.36532657166226,2.3657573253619075,0.7125968834261799,B,580,Correct
1,new_learn,1000,699,B,39.57419992416737,40.36826217916072,1.9787099962083685,0.6341031795011901,B,619,Correct
1,new_learn,1000,700,A,80.27184117028358,46.943393029978694,4.013592058514178,0.7373850933877969,B,983,Incorrect
1,new_learn,1000,701,B,38.23748642034545,33.3700667589565,1.9118743210172724,0.5241757828986934,B,374,Correct
1,new_learn,1000,702,B,20.58200053331383,56.22999022119079,1.0291000266656916,0.8832586209515945,B,1360,Correct
1,new_learn,1000,703,B,66.9754982346665,12.45465036634441,3.348774911733325,0.1956371904696851,A,505,Incorrect
1,new_learn,1000,704,A,60.70918372343647,65.77915790604375,3.035459186171823,1.03325659618475,A,1044,Correct
1,new_learn,1000,705,A,58.1833415097134,63.49057260050235,2.9091670754856698,0.997307582269738,A,722,Correct
1,new_learn,1000,706,B,33.01654055938627,43.07975377629619,1.6508270279693136,0.6766951899103463,B,2055,Correct
1,new_learn,1000,707,B,62.99220385726963,13.800871709017514,3.149610192863481,0.2167835858709232,B,463,Correct
1,new_learn,1000,708,B,51.85655832358198,32.344557133632435,2.5928279161790986,0.508067115373175,B,660,Correct
1,new_learn,1000,709,B,49.277629345756814,24.328236031953978,2.4638814672878406,0.38214703796392563,B,442,Correct
1,new_learn,1000,710,A,59.64605722918534,54.89330560326465,2.982302861459267,0.8622620280723783,A,659,Correct
1,new_learn,1000,711,B,52.87296948782985,30.362367194124715,2.643648474391492,0.4769309486132897,B,592,Correct
1,new_learn,1000,712,A,71.93906985881131,60.57395231849433,3.5969534929405653,0.951493418013401,A,630,Correct
1,new_learn,1000,713,B,62.5072047309384,14.87994955610911,3.1253602365469195,0.23373370105629543,B,718,Correct
1,new_learn,1000,714,B,18.774439001224867,57.792320855956234,0.9387219500612433,0.9077996531748814,B,1502,Correct
1,new_learn,1000,715,B,47.321560826630574,32.28779855379359,2.3660780413315283,0.5071755536859256,B,642,Correct
1,new_learn,1000,716,B,34.95912238236994,50.817990699671924,1.7479561191184971,0.7982471312614188,B,881,Correct
1,new_learn,1000,717,A,33.650181758240734,78.72630054421577,1.6825090879120368,1.236629837170052,A,734,Correct
1,new_learn,1000,718,B,47.97978568077563,40.23663619723696,2.398989284038781,0.6320356034120239,B,577,Correct
1,new_learn,1000,719,B,18.87167329913202,67.03612004478896,0.9435836649566011,1.0530009112893624,B,1522,Correct
1,new_learn,1000,720,A,71.2405416995948,55.4684078323872,3.56202708497974,0.8712957127627508,B,537,Incorrect
1,new_learn,1000,721,B,54.364862337657314,18.290572144347692,2.718243116882866,0.2873076353931841,B,460,Correct
1,new_learn,1000,722,A,39.32448538512401,76.449104422527,1.9662242692562004,1.200859724136649,A,663,Correct
1,new_learn,1000,723,A,48.33575001070987,61.620731431354955,2.4167875005354937,0.9679361858678719,A,765,Correct
1,new_learn,1000,724,A,54.336452747309586,65.1208570766614,2.7168226373654796,1.0229160309375518,A,889,Correct
1,new_learn,1000,725,A,45.71771985717127,77.17073274553962,2.2858859928585633,1.2121950353276427,A,787,Correct
1,new_learn,1000,726,A,41.76672553827175,80.19785600852964,2.0883362769135876,1.2597449763502437,A,403,Correct
1,new_learn,1000,727,B,21.676842898438867,50.48858688116721,1.0838421449219433,0.7930728681800245,B,812,Correct
1,new_learn,1000,728,A,49.84283065484979,72.8614883459332,2.4921415327424894,1.1445055825860102,A,2856,Correct
1,new_learn,1000,729,A,52.316473411224266,73.28718516533507,2.615823670561213,1.1511924125884576,A,397,Correct
1,new_learn,1000,730,A,67.32035873087827,51.69322507521842,3.366017936543914,0.8119952806833494,B,672,Incorrect
1,new_learn,1000,731,B,56.72536100765301,22.17451236631331,2.8362680503826505,0.34831642573472954,B,480,Correct
1,new_learn,1000,732,A,79.3670821389245,39.64063752142503,3.968354106946225,0.6226736781046238,B,413,Incorrect
1,new_learn,1000,733,A,70.23269425347296,55.180198069341344,3.511634712673648,0.8667685243913621,B,429,Incorrect
1,new_learn,1000,734,B,25.24485469340501,64.02007541719662,1.2622427346702505,1.005624993064647,B,652,Correct
1,new_learn,1000,735,A,39.16303181481672,73.15909261717111,1.958151590740836,1.1491803395470002,B,1453,Incorrect
1,new_learn,1000,736,A,61.082861192681776,47.73634826723783,3.0541430596340886,0.749840805127791,B,494,Incorrect
1,new_learn,1000,737,A,44.912830295153626,82.08433414363793,2.2456415147576814,1.2893777056023137,A,442,Correct
1,new_learn,1000,738,B,49.45373722237481,24.80904261443203,2.4726868611187403,0.3896995301004789,B,541,Correct
1,new_learn,1000,739,A,86.34015718092554,37.77931318722709,4.317007859046277,0.593436063833303,B,531,Incorrect
1,new_learn,1000,740,B,24.73242471795011,56.0425108632314,1.2366212358975055,0.8803137020832696,B,650,Correct
1,new_learn,1000,741,B,30.3569995588197,47.187542703350445,1.517849977940985,0.7412201874890019,B,526,Correct
1,new_learn,1000,742,A,76.28784080542181,44.552869469403994,3.8143920402710902,0.6998348371071229,B,520,Incorrect
1,new_learn,1000,743,A,41.851493592839205,72.41656965481732,2.0925746796419604,1.1375168161287381,A,714,Correct
1,new_learn,1000,744,A,69.70167154128322,51.837462294517366,3.485083577064161,0.8142609536259683,B,1697,Incorrect
1,new_learn,1000,745,A,71.54024971805332,47.16314035995482,3.5770124859026655,0.7408368763752915,A,1058,Correct
1,new_learn,1000,746,B,32.3278667831834,37.77026942890171,1.61639333915917,0.5932940048097238,B,819,Correct
1,new_learn,1000,747,B,19.403371098658734,58.650427917285256,0.9701685549329367,0.9212787673742053,A,2194,Incorrect
1,new_learn,1000,748,A,85.7787644440217,39.300887354390866,4.288938222201085,0.6173368949605718,B,1322,Incorrect
1,new_learn,1000,749,A,79.64283108550656,40.66103545260977,3.982141554275328,0.6387020513263649,B,839,Incorrect
1,new_learn,1000,750,A,87.4870126061258,38.015472619393094,4.3743506303062905,0.5971456475191464,B,534,Incorrect
1,new_learn,1000,751,A,59.275651869685944,65.1690059652081,2.963782593484297,1.0236723519102358,B,1214,Incorrect
1,new_learn,1000,752,B,50.83887592296388,41.75026042535993,2.5419437961481943,0.6558115571888573,107,504,Incorrect
1,new_learn,1000,753,B,49.35575250504733,26.589930251755874,2.4677876252523663,0.4176736476919063,B,544,Correct
1,new_learn,1000,754,B,52.092179223979315,19.817882287389182,2.6046089611989656,0.3112985670188457,B,653,Correct
1,new_learn,1000,755,B,33.08929601143373,44.530262448469436,1.6544648005716867,0.699479726852685,107,689,Incorrect
1,new_learn,1000,756,B,54.10431059967051,19.1243902317606,2.7052155299835254,0.30040521928241753,B,525,Correct
1,new_learn,1000,757,A,63.34230141435478,56.369768782906114,3.167115070717739,0.8854542574646654,B,938,Incorrect
1,new_learn,1000,758,A,49.98722650557689,70.94640575776658,2.4993613252788447,1.1144235356360004,B,920,Incorrect
1,new_learn,1000,759,B,37.24728579554132,44.782340441245495,1.8623642897770663,0.7034393587038698,B,763,Correct
1,new_learn,1000,760,A,64.98373432921345,62.48979362993873,3.2491867164606725,0.9815873829607887,A,1933,Correct
1,new_learn,1000,761,B,36.256223822980935,41.861764684105296,1.8128111911490468,0.6575630619894492,B,1086,Correct
1,new_learn,1000,762,B,44.13099571884878,46.95261784246105,2.206549785942439,0.7375299964034234,B,538,Correct
1,new_learn,1000,763,A,74.90941071510579,52.31089413180575,3.7454705357552895,0.821697603535972,B,1225,Incorrect
1,new_learn,1000,764,A,39.89641464364466,85.76381605530354,1.994820732182233,1.3471748723158397,A,1642,Correct
1,new_learn,1000,765,B,35.61058599796848,36.57948319068529,1.780529299898424,0.5745891783198411,B,1033,Correct
1,new_learn,1000,766,A,40.05743831665412,82.39586423499432,2.002871915832706,1.2942712088342008,A,827,Correct
1,new_learn,1000,767,A,60.60811602117475,64.26592272901948,3.0304058010587376,1.0094867536082845,A,639,Correct
1,new_learn,1000,768,A,84.53365966918977,34.72640006052809,4.226682983459488,0.545481016578876,B,945,Incorrect
1,new_learn,1000,769,B,48.543063969537116,33.89024319687239,2.427153198476856,0.5323466952783289,A,667,Incorrect
1,new_learn,1000,770,B,40.103885832568146,27.92577670790297,2.0051942916284076,0.4386570747566846,A,562,Incorrect
1,new_learn,1000,771,B,51.84725617301092,33.82235333299664,2.592362808650546,0.5312802837903026,B,1256,Correct
1,new_learn,1000,772,B,37.40687216207961,37.20141404237976,1.8703436081039804,0.5843584452934623,B,754,Correct
1,new_learn,1000,773,A,78.61908941620814,53.12238427549178,3.930954470810407,0.8344444609052947,A,665,Correct
1,new_learn,1000,774,B,42.30929169083125,26.034141743815397,2.1154645845415625,0.4089433422244291,B,545,Correct
1,new_learn,1000,775,A,42.92260016488119,78.57037622390864,2.1461300082440595,1.2341805836740876,A,561,Correct
1,new_learn,1000,776,A,78.16237257897274,43.56365097980008,3.9081186289486367,0.6842962294084486,B,748,Incorrect
1,new_learn,1000,777,A,75.09629185966831,45.08701687130676,3.754814592983416,0.7082252048758819,B,605,Incorrect
1,new_learn,1000,778,B,23.642947680455197,62.70257021127344,1.1821473840227599,0.9849296696846742,A,442,Incorrect
1,new_learn,1000,779,B,58.257073540999066,18.84219262544954,2.9128536770499536,0.2959724696481803,B,617,Correct
1,new_learn,1000,780,B,49.24699801904176,22.97210494220829,2.462349900952088,0.36084498061967674,A,1011,Incorrect
1,new_learn,1000,781,A,68.55873224833601,42.960522169777605,3.4279366124168007,0.6748223042147738,B,363,Incorrect
1,new_learn,1000,782,B,65.79985444955534,14.736352406932568,3.289992722477767,0.23147808231164807,B,444,Correct
1,new_learn,1000,783,B,41.00204923505055,51.35476220796086,2.0501024617525276,0.806678718396903,A,715,Incorrect
1,new_learn,1000,784,B,64.12825779376979,16.363736104191986,3.2064128896884894,0.25704096565105805,B,792,Correct
1,new_learn,1000,785,A,52.18269155156381,58.05614831707244,2.6091345775781907,0.9119438452431711,A,1132,Correct
1,new_learn,1000,786,A,68.05861759478984,59.40413115343425,3.402930879739492,0.9331179101225682,A,960,Correct
1,new_learn,1000,787,A,58.10464160526434,52.11039082960179,2.9052320802632168,0.8185481050298496,A,601,Correct
1,new_learn,1000,788,B,52.641445692915035,22.464554759567747,2.632072284645752,0.35287240099411826,B,629,Correct
1,new_learn,1000,789,A,42.059076396923274,72.45695548666947,2.1029538198461637,1.1381511952920174,A,469,Correct
1,new_learn,1000,790,B,36.299272910459955,53.91056071112403,1.8149636455229978,0.8468251074048688,B,1290,Correct
1,new_learn,1000,791,A,42.97009303695157,67.95953027792346,2.1485046518475786,1.0675058053126874,B,738,Incorrect
1,new_learn,1000,792,A,69.55103258753708,43.50859631011776,3.477551629376854,0.6834314326793496,B,729,Incorrect
1,new_learn,1000,793,B,68.52279198487837,13.912286761939527,3.4261395992439185,0.21853368942971874,B,548,Correct
1,new_learn,1000,794,A,85.54564244737993,38.987478879227695,4.277282122368996,0.6124138861448447,B,1508,Incorrect
1,new_learn,1000,795,B,25.600764398155547,43.82901550281461,1.2800382199077773,0.6884645655885777,A,406,Incorrect
1,new_learn,1000,796,A,32.91353432557595,84.6195250590803,1.6456767162787975,1.3292003913793204,A,537,Correct
1,new_learn,1000,797,A,59.53079606404722,49.539851707230255,2.976539803202361,0.7781701709168116,A,2170,Correct
1,new_learn,1000,798,B,62.7533970211021,27.839871615996174,3.1376698510551053,0.4373076807284829,B,2153,Correct
1,new_learn,1000,799,B,30.124869248659458,60.7914261386955,1.5062434624329728,0.9549094887928615,A,514,Incorrect
1,new_learn,1000,800,A,71.8298479560859,60.1013997196054,3.5914923978042954,0.94407057914788,A,4508,Correct
1,new_learn,1000,801,B,51.80135254157783,20.25881039105147,2.5900676270788914,0.3182246494749793,B,568,Correct
1,new_learn,1000,802,A,84.790666959873,36.37777248108677,4.23953334799365,0.5714207139027158,B,2342,Incorrect
1,new_learn,1000,803,B,61.25346581822453,29.838925812993978,3.0626732909112264,0.46870875062556355,A,1521,Incorrect
1,new_learn,1000,804,B,21.23413363279745,66.4085806716084,1.0617066816398726,1.0431435458662504,A,1732,Incorrect
1,new_learn,1000,805,B,48.14898806858348,21.10327135766802,2.4074494034291742,0.3314894113198088,A,724,Incorrect
1,new_learn,1000,806,B,31.943203868044606,38.038783934493544,1.5971601934022304,0.5975118208004719,A,1083,Incorrect
1,new_learn,1000,807,A,69.75755352981636,47.909410903056795,3.4878776764908186,0.7525592666542897,B,1131,Incorrect
1,new_learn,1000,808,A,72.94247243953343,41.574560913374256,3.6471236219766716,0.6530516757083896,B,446,Incorrect
1,new_learn,1000,809,A,52.20358022838803,58.89797642876435,2.610179011419401,0.9251672502995544,A,1014,Correct
1,new_learn,1000,810,A,52.24745218562259,61.40581234743104,2.6123726092811297,0.9645602447920139,A,411,Correct
1,new_learn,1000,811,A,53.941442513362865,76.85822469803387,2.6970721256681434,1.207286170396484,A,666,Correct
1,new_learn,1000,812,B,68.11836863728786,10.71500936693522,3.405918431864393,0.16831097355154753,B,393,Correct
1,new_learn,1000,813,B,45.58398257390818,23.338344167082454,2.2791991286954087,0.36659785291128216,B,729,Correct
1,new_learn,1000,814,B,43.96085564944216,42.8787378009488,2.198042782472108,0.6735376383533186,A,592,Incorrect
1,new_learn,1000,815,B,39.09124336269927,51.22126719478557,1.9545621681349632,0.804581783633491,B,1323,Correct
1,new_learn,1000,816,B,39.809009217608185,40.13383389865943,1.9904504608804092,0.6304207886821074,B,825,Correct
1,new_learn,1000,817,A,63.77860852362428,64.37941480424765,3.188930426181214,1.011269482957172,A,643,Correct
1,new_learn,1000,818,A,62.62340502749026,58.188474983388055,3.1311702513745128,0.9140224276570268,A,1137,Correct
1,new_learn,1000,819,A,49.99362676038331,72.92675648759557,2.4996813380191654,1.14553081215781,A,502,Correct
1,new_learn,1000,820,B,22.686484082861142,59.888882436490775,1.134324204143057,0.9407323654709111,B,1702,Correct
1,new_learn,1000,821,A,53.78238463878206,63.38212804402791,2.689119231939103,0.9956041391600284,B,1117,Incorrect
1,new_learn,1000,822,A,72.3650884618242,57.461220389778916,3.61825442309121,0.9025987392141674,A,891,Correct
1,new_learn,1000,823,B,38.829169311527195,50.021759921591595,1.9414584655763598,0.7857399674465224,B,712,Correct
1,new_learn,1000,824,A,64.17373884109273,51.71202538943299,3.2086869420546362,0.8122905953284576,B,363,Incorrect
1,new_learn,1000,825,A,60.27790420861606,47.51307165037915,3.0138952104308028,0.7463335842315831,A,686,Correct
1,new_learn,1000,826,A,76.29986607714592,54.68092913464855,3.814993303857296,0.85892602630438,A,354,Correct
1,new_learn,1000,827,A,64.75008656945943,46.25171766184171,3.2375043284729714,0.7265202821117559,A,631,Correct
1,new_learn,1000,828,B,27.318778031017764,57.254529005871916,1.365938901550888,0.8993520385479546,A,862,Incorrect
1,new_learn,1000,829,A,81.27092704350096,47.58821881388623,4.063546352175048,0.7475139931156426,A,666,Correct
1,new_learn,1000,830,A,75.25396053737482,51.03581335832715,3.7626980268687413,0.801668681582502,A,453,Correct
1,new_learn,1000,831,B,55.32761878137217,34.6668989712434,2.766380939068609,0.5445463756539891,A,392,Incorrect
1,new_learn,1000,832,B,58.0281755559312,20.205593216632266,2.9014087777965596,0.3173887160539784,107,286,Incorrect
1,new_learn,1000,833,A,31.70668478727425,86.36670642391971,1.5853342393637124,1.356645052080663,A,689,Correct
1,new_learn,1000,834,A,63.327776361656746,51.25869346318509,3.166388818082837,0.8051696740827672,B,397,Incorrect
1,new_learn,1000,835,A,83.29705854320802,36.19872970700348,4.164852927160402,0.5686083165840237,B,518,Incorrect
1,new_learn,1000,836,A,36.52669009886078,87.7242157921911,1.8263345049430393,1.3779687593733663,B,912,Incorrect
1,new_learn,1000,837,B,21.652544321295082,59.677455798550604,1.082627216064754,0.937411283608281,B,1393,Correct
1,new_learn,1000,838,B,46.52993098894722,28.02354199192503,2.326496549447361,0.4401927682469837,B,866,Correct
1,new_learn,1000,839,A,50.74015673474824,64.5098247592742,2.537007836737412,1.0133179577405038,A,465,Correct
1,new_learn,1000,840,A,31.666707463577907,83.66803020212333,1.5833353731788953,1.314254345116598,A,609,Correct
1,new_learn,1000,841,A,64.78627847942687,65.70187130399543,3.2393139239713435,1.0320425810786704,A,391,Correct
1,new_learn,1000,842,B,40.173969952941434,42.48364539091519,2.008698497647072,0.6673315412890652,A,756,Incorrect
1,new_learn,1000,843,A,67.90305561648077,61.31075480569915,3.3951527808240383,0.9630670844181477,A,612,Correct
1,new_learn,1000,844,A,54.53635205728568,57.273973024397115,2.7268176028642843,0.8996574644767298,A,365,Correct
1,new_learn,1000,845,A,31.908144219608186,88.08570702190603,1.5954072109804094,1.3836470503314142,B,707,Incorrect
1,new_learn,1000,846,B,56.177645103173646,31.859278441598747,2.8088822551586823,0.5004443755039915,B,543,Correct
1,new_learn,1000,847,A,52.49628076028993,61.28108071712861,2.624814038014496,0.9626009649248718,A,1577,Correct
1,new_learn,1000,848,B,48.42585055714904,36.47800638978014,2.4212925278574517,0.5729951844586741,B,598,Correct
1,new_learn,1000,849,A,78.88154660763911,48.91664021789955,3.9440773303819556,0.7683807877342411,A,761,Correct
1,new_learn,1000,850,B,38.12278375317054,45.33862085974136,1.906139187658527,0.712177391084282,B,793,Correct
1,new_learn,1000,851,B,33.23272908126803,41.92229935608532,1.6616364540634014,0.6585139383933487,B,442,Correct
1,new_learn,1000,852,B,59.53316795345992,28.25036756804559,2.9766583976729963,0.44375573606491686,B,758,Correct
1,new_learn,1000,853,B,57.965347155707434,20.31034324652032,2.8982673577853717,0.31903412567577655,B,581,Correct
1,new_learn,1000,854,A,42.121984647742195,72.76239394292469,2.1060992323871095,1.1429490113434932,A,466,Correct
1,new_learn,1000,855,A,80.81710651827834,45.418621774533065,4.040855325913917,0.7134340425152325,A,496,Correct
1,new_learn,1000,856,B,41.29371052519858,49.68548537426982,2.064685526259929,0.7804577792092457,A,852,Incorrect
1,new_learn,1000,857,A,77.560305684823,43.78135158215004,3.87801528424115,0.6877158624735722,B,1333,Incorrect
1,new_learn,1000,858,B,54.64872287540368,29.190151877529317,2.732436143770184,0.458517833478082,B,1024,Correct
1,new_learn,1000,859,A,75.57459689403788,50.28348857618651,3.778729844701894,0.789851191539069,A,816,Correct
1,new_learn,1000,860,B,65.3090449526658,17.538483211075487,3.2654522476332897,0.27549385005511334,B,630,Correct
1,new_learn,1000,861,A,33.37166286470886,78.5246354856576,1.668583143235443,1.2334620898377913,A,812,Correct
1,new_learn,1000,862,B,32.115065730506196,45.21092439053081,1.6057532865253097,0.710171539636476,B,2514,Correct
1,new_learn,1000,863,A,73.87271340563132,52.79169775534128,3.693635670281566,0.8292500491935647,A,961,Correct
1,new_learn,1000,864,A,75.8655844391493,38.28120479620087,3.793279221957465,0.601319758791555,A,787,Correct
1,new_learn,1000,865,A,63.58282335678574,58.30288782442225,3.179141167839287,0.9158196203613738,A,745,Correct
1,new_learn,1000,866,A,36.70500654293305,78.09314708431769,1.8352503271466525,1.2266842858789981,A,2589,Correct
1,new_learn,1000,867,B,55.01870137551251,28.678190499016523,2.750935068775625,0.45047596294979453,B,1130,Correct
1,new_learn,1000,868,B,13.56231079892838,64.74566137317956,0.6781155399464189,1.0170224706089666,B,1671,Correct
1,new_learn,1000,869,A,45.74233278731445,84.05421276027708,2.2871166393657227,1.3203204865547997,B,1431,Incorrect
1,new_learn,1000,870,B,48.2557451579063,39.95853956409404,2.4127872578953147,0.6276672717136746,B,561,Correct
1,new_learn,1000,871,B,34.421411927483135,38.66575880615105,1.7210705963741566,0.607360319054395,B,1614,Correct
1,new_learn,1000,872,A,46.06525947046173,63.686362612228855,2.3032629735230867,1.000383044582169,A,798,Correct
1,new_learn,1000,873,A,86.29799445186742,33.51879592120889,4.314899722593371,0.5265120151162269,107,483,Incorrect
1,new_learn,1000,874,B,26.345755830556435,50.25116923099776,1.3172877915278218,0.789343520452,B,511,Correct
1,new_learn,1000,875,B,55.06135500620591,15.898861915003266,2.7530677503102954,0.24973873896306406,107,640,Incorrect
1,new_learn,1000,876,B,66.77500879881649,15.765863102067584,3.3387504399408243,0.24764959849478957,107,395,Incorrect
1,new_learn,1000,877,B,21.97216701054168,51.89100179299334,1.098608350527084,0.8151019501014133,B,2291,Correct
1,new_learn,1000,878,B,62.70945089093073,27.811608163734903,3.135472544546537,0.4368637194585374,B,1237,Correct
1,new_learn,1000,879,A,37.649005893145464,74.6660719763177,1.8824502946572732,1.172851915966032,A,572,Correct
1,new_learn,1000,880,B,19.33323917512264,65.87022454327933,0.966661958756132,1.0346870675773823,B,1230,Correct
1,new_learn,1000,881,B,36.43996688685572,43.215265561528184,1.821998344342786,0.6788238040551446,B,730,Correct
1,new_learn,1000,882,A,48.444822140963105,73.05626492569891,2.4222411070481553,1.147565125946427,A,658,Correct
1,new_learn,1000,883,A,56.920956723788905,57.14809775684377,2.8460478361894452,0.8976802203976586,B,932,Incorrect
1,new_learn,1000,884,B,31.64027439512578,36.99925375058923,1.582013719756289,0.5811829188557787,107,455,Incorrect
1,new_learn,1000,885,A,41.952762151019016,67.31209019740379,2.0976381075509507,1.0573358403096864,B,587,Incorrect
1,new_learn,1000,886,B,36.80389711338027,41.699445475990856,1.8401948556690138,0.655013357830705,B,655,Correct
1,new_learn,1000,887,B,12.375613604376817,68.14099622660677,0.6187806802188408,1.0703562657689882,B,725,Correct
1,new_learn,1000,888,B,44.36662968094227,27.04067140650112,2.218331484047113,0.42475387319399743,B,594,Correct
1,new_learn,1000,889,A,54.324601485692014,59.879645237918965,2.716230074284601,0.9405872678950463,A,1101,Correct
1,new_learn,1000,890,B,55.82567637464287,21.841109702371654,2.7912838187321434,0.34307934893609776,B,562,Correct
1,new_learn,1000,891,A,74.30302098182486,39.56099627378647,3.7151510490912427,0.6214226763121038,B,649,Incorrect
1,new_learn,1000,892,A,31.275613500748065,86.06858022622261,1.5637806750374035,1.3519620967180235,B,444,Incorrect
1,new_learn,1000,893,B,25.206327418498073,50.54662797366821,1.2603163709249037,0.793984575529062,B,756,Correct
