experiment,condition,subject,trial,cat,x,y,xt,yt,resp,rt,fb
1,relearn,1001,0,B,76.38178802834298,52.73071714937444,3.819089401417149,0.8282921680749804,B,1237,Correct
1,relearn,1001,1,A,59.74505299245958,78.39147442708503,2.987252649622979,1.2313704008210122,A,622,Correct
1,relearn,1001,2,B,68.72951266992065,55.05784682504176,3.4364756334960327,0.8648466355401164,B,603,Correct
1,relearn,1001,3,B,74.26367727795068,49.19990042625429,3.7131838638975343,0.7728302286823491,B,496,Correct
1,relearn,1001,4,B,41.08000791039174,24.73155519080486,2.054000395519587,0.38848236049641527,B,507,Correct
1,relearn,1001,5,B,66.36105719019832,34.20065122694677,3.3180528595099164,0.5372225732128136,B,1068,Correct
1,relearn,1001,6,B,64.8090269751566,52.698839422522965,3.24045134875783,0.8277914339125317,B,989,Correct
1,relearn,1001,7,B,33.71215122097476,15.254537302577926,1.685607561048738,0.23961771161845136,A,674,Incorrect
1,relearn,1001,8,A,21.69724151099298,51.95452505840656,1.084862075549649,0.8160997712211843,A,2022,Correct
1,relearn,1001,9,A,59.170567143269174,71.4719549304341,2.9585283571634586,1.1226788427357626,A,1754,Correct
1,relearn,1001,10,A,38.24425073687459,45.50410964686242,1.9122125368437295,0.714776882873637,B,2125,Incorrect
1,relearn,1001,11,A,30.199415406039158,39.950226205111356,1.5099707703019578,0.6275366857761414,B,1247,Incorrect
1,relearn,1001,12,B,49.0375087442618,20.76344394924651,2.45187543721309,0.32615141487088145,B,709,Correct
1,relearn,1001,13,B,75.34677013631553,52.830422715163834,3.767338506815776,0.8298583394400102,A,1140,Incorrect
1,relearn,1001,14,B,62.93167505542199,52.90795697762718,3.1465837527710994,0.8310762447867919,B,516,Correct
1,relearn,1001,15,B,52.67833069981034,25.18024441604688,2.633916534990517,0.3955303543652414,B,728,Correct
1,relearn,1001,16,A,53.65206975453013,74.97809318296663,2.6826034877265066,1.1777531336188942,B,1161,Incorrect
1,relearn,1001,17,B,36.00902091039127,23.17622906973596,1.8004510455195635,0.3640513549169835,B,868,Correct
1,relearn,1001,18,A,52.43784130966108,61.870102564188514,2.621892065483054,0.9718532984625083,A,899,Correct
1,relearn,1001,19,B,56.393102530160384,38.60234914441437,2.819655126508019,0.6063642824170021,B,658,Correct
1,relearn,1001,20,B,82.0691706136309,55.886076974629354,4.103458530681545,0.8778564443072464,A,1013,Incorrect
1,relearn,1001,21,B,53.911326997831814,33.27356659227039,2.6955663498915907,0.5226599618250372,B,709,Correct
1,relearn,1001,22,A,29.400099331202114,55.507436679872214,1.4700049665601056,0.8719087764654359,B,1014,Incorrect
1,relearn,1001,23,A,19.656022610691,48.339723643786584,0.98280113053455,0.7593186033794037,A,604,Correct
1,relearn,1001,24,B,33.7345956473609,11.649699020167525,1.6867297823680447,0.18299304429145252,B,721,Correct
1,relearn,1001,25,B,53.89930037710733,23.837191659777986,2.6949650188553664,0.3744337310028521,B,517,Correct
1,relearn,1001,26,B,42.155611211405855,26.14680713173866,2.107780560570293,0.4107130859994969,B,590,Correct
1,relearn,1001,27,B,47.4810856760011,35.81127038728294,2.374054283800055,0.5625221198220289,B,572,Correct
1,relearn,1001,28,B,74.27921377701037,59.89630119596082,3.713960688850518,0.9408488990721603,A,2108,Incorrect
1,relearn,1001,29,B,45.0930327622041,35.95587349304471,2.254651638110205,0.5647935400957661,B,602,Correct
1,relearn,1001,30,B,69.95936970475596,49.16731209735977,3.4979684852377977,0.7723183324091101,B,573,Correct
1,relearn,1001,31,B,59.863907389278666,28.607139161075747,2.9931953694639333,0.44935989114328223,B,525,Correct
1,relearn,1001,32,B,80.1539620215241,67.63365940734734,4.007698101076205,1.062387037647583,A,843,Incorrect
1,relearn,1001,33,B,33.31051684236162,20.048353659427022,1.665525842118081,0.31491880286512985,B,1797,Correct
1,relearn,1001,34,A,34.10743662602108,65.63168250716832,1.7053718313010537,1.0309400580362886,B,1208,Incorrect
1,relearn,1001,35,A,34.55375830184798,56.45506455553916,1.727687915092399,0.8867940803280967,A,582,Correct
1,relearn,1001,36,B,67.3579283584353,42.465281958013186,3.3678964179217648,0.6670430891595671,B,838,Correct
1,relearn,1001,37,B,70.55247659334387,37.34814216870019,3.5276238296671933,0.5866632453120784,B,972,Correct
1,relearn,1001,38,A,42.98504153163255,56.93669214227316,2.149252076581627,0.8943594687693452,B,768,Incorrect
1,relearn,1001,39,B,52.05310377443651,29.796900014275646,2.6026551887218257,0.4680486109229899,B,471,Correct
1,relearn,1001,40,B,37.83625126044093,25.129837448369145,1.8918125630220464,0.3947385635685109,B,382,Correct
1,relearn,1001,41,A,57.260701792842035,71.51787974160769,2.8630350896421017,1.1234002279827648,A,673,Correct
1,relearn,1001,42,B,37.66451606291354,14.868485299333088,1.8832258031456772,0.23355362093196333,B,382,Correct
1,relearn,1001,43,A,51.33762731843501,63.78754729732181,2.5668813659217506,1.0019724498988885,A,513,Correct
1,relearn,1001,44,A,44.57848111658352,58.275340930593444,2.228924055829176,0.9153869147649647,B,1404,Incorrect
1,relearn,1001,45,A,36.597064602858104,45.257224996178756,1.8298532301429051,0.7108988278492776,B,765,Incorrect
1,relearn,1001,46,A,50.76617245459698,69.0938741494039,2.5383086227298493,1.0853240371791248,A,745,Correct
1,relearn,1001,47,B,65.3361293758616,50.479583002601466,3.2668064687930802,0.7929314355862448,B,438,Correct
1,relearn,1001,48,A,68.90356522587585,85.5663933551065,3.4451782612937927,1.3440737637928852,A,1385,Correct
1,relearn,1001,49,A,58.87992827536159,74.42074542474269,2.9439964137680796,1.1689983355052393,A,1252,Correct
1,relearn,1001,50,B,59.62994099316331,39.48667538951579,2.9814970496581656,0.6202552465919383,B,392,Correct
1,relearn,1001,51,A,31.97851299056211,61.00802286042651,1.5989256495281055,0.9583117821417703,A,1040,Correct
1,relearn,1001,52,A,38.66976176075402,47.46740384844612,1.9334880880377012,0.7456162360762909,B,517,Incorrect
1,relearn,1001,53,B,66.0405797930072,53.52473681328077,3.3020289896503594,0.8407645997896501,B,598,Correct
1,relearn,1001,54,A,64.76849268772989,81.09440715650815,3.2384246343864946,1.273827968850528,A,770,Correct
1,relearn,1001,55,A,33.48443438257928,62.93084421316248,1.6742217191289641,0.988515389321375,A,1096,Correct
1,relearn,1001,56,A,26.60356243514481,54.257362684514504,1.3301781217572404,0.8522726600641387,A,631,Correct
1,relearn,1001,57,B,53.24317935590191,29.288388435560442,2.6621589677950954,0.46006092972320467,B,468,Correct
1,relearn,1001,58,B,68.09490347999234,36.6818299069143,3.404745173999617,0.5761968367789617,B,552,Correct
1,relearn,1001,59,B,69.40561729821863,53.28579447481932,3.4702808649109316,0.8370113023139399,B,862,Correct
1,relearn,1001,60,B,52.23325456704184,31.645258424887945,2.6116627283520923,0.49708255694289233,B,601,Correct
1,relearn,1001,61,A,56.67116520737156,76.10486635547787,2.8335582603685783,1.1954524452240114,A,561,Correct
1,relearn,1001,62,B,70.6879911655645,41.87842921662386,3.5343995582782246,0.6578248278541282,B,553,Correct
1,relearn,1001,63,B,59.86168772141317,32.893884010171824,2.9930843860706586,0.5166959217719528,B,367,Correct
1,relearn,1001,64,B,43.94845575460765,30.163954495556496,2.1974227877303827,0.4738142892322855,B,437,Correct
1,relearn,1001,65,B,67.3415210916615,41.426990370716986,3.367076054583075,0.6507336430448979,B,404,Correct
1,relearn,1001,66,A,23.80691240908343,55.52514569545169,1.1903456204541714,0.8721869490316697,A,954,Correct
1,relearn,1001,67,A,67.12015436488173,86.27939648999538,3.3560077182440864,1.3552735908456524,B,568,Incorrect
1,relearn,1001,68,A,11.801426775957964,36.89587861979459,0.5900713387978982,0.5795591060984369,A,754,Correct
1,relearn,1001,69,B,53.96185444643996,35.15970160058395,2.6980927223219977,0.5522873012540191,B,522,Correct
1,relearn,1001,70,A,51.91818329992384,63.693423165346175,2.595909164996192,1.0004939514911875,B,1566,Incorrect
1,relearn,1001,71,B,64.55490691705894,37.83440483457213,3.227745345852947,0.5943014414061699,B,721,Correct
1,relearn,1001,72,B,70.67972443388854,50.63342148187641,3.5339862216944264,0.7953479247678927,B,605,Correct
1,relearn,1001,73,B,64.8738460054456,48.544976718510874,3.24369230027228,0.7625427111378064,B,442,Correct
1,relearn,1001,74,A,50.250378620081825,79.58883595603686,2.512518931004091,1.2501785117362427,A,623,Correct
1,relearn,1001,75,B,39.11889903937828,26.232657139877816,1.9559449519689138,0.4120616147738999,B,869,Correct
1,relearn,1001,76,B,64.1214628953234,31.768970614220493,3.2060731447661706,0.4990258234687256,B,533,Correct
1,relearn,1001,77,A,14.896888565743549,43.215835886378116,0.7448444282871775,0.6788327626969382,A,577,Correct
1,relearn,1001,78,B,35.96982341253316,23.38039840564068,1.7984911706266582,0.36725843934581637,B,878,Correct
1,relearn,1001,79,B,79.62749541079589,52.6589055126434,3.981374770539794,0.8271641535229978,B,1360,Correct
1,relearn,1001,80,A,45.44679085420697,53.32701258111148,2.2723395427103483,0.8376587548135517,B,553,Incorrect
1,relearn,1001,81,B,51.91551997702945,42.9141247734774,2.595775998851473,0.6740934956179616,B,515,Correct
1,relearn,1001,82,A,25.33695385223664,49.93328001811067,1.266847692611832,0.7843501283726925,A,428,Correct
1,relearn,1001,83,A,45.978983093045194,77.4007151959234,2.29894915465226,1.2158075912105442,A,404,Correct
1,relearn,1001,84,B,51.8735166279346,36.843622184404225,2.59367583139673,0.5787382639308112,B,413,Correct
1,relearn,1001,85,A,64.13499491004171,76.39425159461865,3.2067497455020857,1.1999980979307214,B,498,Incorrect
1,relearn,1001,86,B,34.48328485170104,19.482630280102587,1.7241642425850523,0.3060324408028817,B,766,Correct
1,relearn,1001,87,A,66.13022804776256,83.37917709949112,3.3065114023881277,1.309717051190618,A,678,Correct
1,relearn,1001,88,A,64.92536336778258,83.86862346261944,3.2462681683891286,1.3174052566842689,A,649,Correct
1,relearn,1001,89,A,30.782712377957367,63.051188787602406,1.5391356188978682,0.9904057574761743,A,1303,Correct
1,relearn,1001,90,B,71.73493236821267,47.2424102748935,3.586746618410633,0.7420820452874017,B,822,Correct
1,relearn,1001,91,A,58.98778806817103,79.37112851792072,2.9493894034085515,1.2467587712951553,A,729,Correct
1,relearn,1001,92,B,56.68295991727228,46.56899793205011,2.8341479958636135,0.7315041089418344,B,569,Correct
1,relearn,1001,93,A,33.41582900139359,50.054964317910674,1.6707914500696797,0.786261540884237,B,617,Incorrect
1,relearn,1001,94,A,39.18538247798295,65.32149138036496,1.9592691238991475,1.0260675872104177,A,542,Correct
1,relearn,1001,95,B,68.28780383418263,50.92733702551702,3.4143901917091313,0.7999647393312787,B,1042,Correct
1,relearn,1001,96,A,45.557964879239805,68.98461857045119,2.2778982439619906,1.0836078545581174,A,716,Correct
1,relearn,1001,97,B,48.61823632478159,24.41478794007095,2.43091181623908,0.3835065921573979,B,448,Correct
1,relearn,1001,98,B,68.9371037229228,42.746520528385346,3.44685518614614,0.6714607742925034,B,516,Correct
1,relearn,1001,99,B,63.983051481040064,51.79774038672281,3.1991525740520035,0.8136370033573984,B,587,Correct
1,relearn,1001,100,A,40.29479059932481,49.557782400898034,2.0147395299662407,0.7784518255943139,B,614,Incorrect
1,relearn,1001,101,A,61.57740698838175,72.72630222832672,3.0788703494190877,1.142382084016311,A,751,Correct
1,relearn,1001,102,A,47.0164662165121,54.13012535602748,2.350823310825605,0.8502740207819525,B,572,Incorrect
1,relearn,1001,103,A,20.112820244187628,39.69932151278245,1.0056410122093815,0.6235954840852829,A,415,Correct
1,relearn,1001,104,A,59.35341927927367,77.9468134513736,2.9676709639636836,1.2243856825478467,A,644,Correct
1,relearn,1001,105,A,30.570366925674392,58.426006209333345,1.5285183462837195,0.9177535594291665,A,470,Correct
1,relearn,1001,106,B,75.98561395824181,65.17015150180643,3.7992806979120903,1.0236903459570446,B,1443,Correct
1,relearn,1001,107,A,55.6986867213466,63.59033537987491,2.7849343360673298,0.9988746523436305,B,716,Incorrect
1,relearn,1001,108,B,60.33098422905992,37.54312563871953,3.0165492114529964,0.5897260384969994,B,461,Correct
1,relearn,1001,109,A,27.195375479884987,48.569610595999336,1.3597687739942494,0.7629296591805425,A,627,Correct
1,relearn,1001,110,A,23.80337299808241,42.21682341178175,1.1901686499041204,0.6631403114417557,A,678,Correct
1,relearn,1001,111,B,62.095568047169465,45.31795377616342,3.1047784023584732,0.7118527532945842,B,806,Correct
1,relearn,1001,112,B,61.75908159062444,51.641556972861245,3.087954079531222,0.8111836800293981,B,423,Correct
1,relearn,1001,113,B,44.48847892347122,30.67427660277338,2.224423946173561,0.4818304101472706,B,689,Correct
1,relearn,1001,114,B,79.87375987490455,62.54963478112694,3.9936879937452274,0.982527365565565,B,789,Correct
1,relearn,1001,115,A,60.47735289883904,75.47289018533965,3.023867644941952,1.185525386757261,A,540,Correct
1,relearn,1001,116,A,67.63469775528597,88.58902784928786,3.3817348877642983,1.3915531953999216,B,814,Incorrect
1,relearn,1001,117,B,63.393849052581906,43.81162425236924,3.169692452629095,0.6881913844653981,B,692,Correct
1,relearn,1001,118,A,31.896407878465375,64.9526177516373,1.5948203939232686,1.0202733337998486,A,899,Correct
1,relearn,1001,119,B,60.591087328886026,32.37324780625486,3.029554366444301,0.5085177874048608,B,591,Correct
1,relearn,1001,120,A,62.42086915538985,88.30803306847712,3.1210434577694923,1.3871393397044611,A,806,Correct
1,relearn,1001,121,B,53.41929673562793,31.564030685248873,2.6709648367813963,0.49580663459230334,B,1992,Correct
1,relearn,1001,122,A,22.727957878631507,47.69147131739215,1.1363978939315755,0.7491358796480376,B,1372,Incorrect
1,relearn,1001,123,A,34.58449028863936,56.7274193414659,1.729224514431968,0.891072219301284,A,483,Correct
1,relearn,1001,124,A,38.4112346432412,61.75316783020458,1.9205617321620598,0.9700164919563412,A,994,Correct
1,relearn,1001,125,B,64.81926688553145,55.19136521383116,3.240963344276572,0.8669439374868162,A,2534,Incorrect
1,relearn,1001,126,B,50.19570595925488,42.666404874522875,2.509785297962744,0.670202320544444,B,2430,Correct
1,relearn,1001,127,B,63.58198130172666,49.729756934009465,3.179099065086333,0.781153195243451,B,611,Correct
1,relearn,1001,128,A,40.57161969271495,66.53997648712404,2.028580984635747,1.0452075065099322,A,1200,Correct
1,relearn,1001,129,A,52.32069782110179,68.87802731721389,2.6160348910550897,1.0819335230675813,A,755,Correct
1,relearn,1001,130,A,37.06946260052818,57.80191693664459,1.8534731300264093,0.9079503880578503,A,776,Correct
1,relearn,1001,131,A,25.370032755183352,45.04078046550471,1.2685016377591678,0.7074989251119013,B,530,Incorrect
1,relearn,1001,132,B,53.32409337634512,37.07757872329821,2.666204668817256,0.5824132446500544,B,564,Correct
1,relearn,1001,133,B,62.508680949415115,37.111918784660034,3.1254340474707556,0.5829526570725451,B,445,Correct
1,relearn,1001,134,A,33.67340532553988,54.04710837102368,1.683670266276994,0.8489699930308969,A,1006,Correct
1,relearn,1001,135,A,44.98422916742466,67.27287052523737,2.249211458371233,1.0567197791399152,B,574,Incorrect
1,relearn,1001,136,A,44.06098918857761,71.91933397105696,2.2030494594288803,1.1297062562727167,A,476,Correct
1,relearn,1001,137,B,59.54343403075704,52.23439790200275,2.977171701537852,0.8204960035680896,B,582,Correct
1,relearn,1001,138,B,88.65566486353504,67.67859368145835,4.432783243176752,1.063092863574791,B,517,Correct
1,relearn,1001,139,A,51.697461441923565,71.38276676060445,2.5848730720961783,1.1212778782401431,A,1429,Correct
1,relearn,1001,140,B,72.91489864839542,59.57513756277916,3.6457449324197713,0.9358040725191417,B,680,Correct
1,relearn,1001,141,A,46.55358698443262,65.44312358087733,2.327679349221631,1.0279781813482658,A,524,Correct
1,relearn,1001,142,B,64.3771659167441,43.00580188964174,3.2188582958372054,0.6755335563911827,B,528,Correct
1,relearn,1001,143,A,65.11979157720796,80.74088064182216,3.255989578860398,1.2682747873435942,A,514,Correct
1,relearn,1001,144,B,68.84601861397266,53.22457760138376,3.442300930698633,0.8360497099146355,B,566,Correct
1,relearn,1001,145,A,14.616371060380828,38.11736170504439,0.7308185530190414,0.5987461175339618,A,531,Correct
1,relearn,1001,146,B,78.57104498180522,63.34466144378222,3.928552249090261,0.9950156151795944,B,1048,Correct
1,relearn,1001,147,A,48.19170706080857,57.61865131545212,2.4095853530404283,0.9050716584118812,A,430,Correct
1,relearn,1001,148,B,72.60826109864885,40.123678624719545,3.630413054932443,0.6302612700120837,B,436,Correct
1,relearn,1001,149,B,80.649585131436,51.50429872883122,4.0324792565718,0.8090276325739514,B,1005,Correct
1,relearn,1001,150,A,18.815861220932042,44.66009703022236,0.9407930610466022,0.7015191636937695,A,462,Correct
1,relearn,1001,151,B,37.924483848445256,12.14224620930527,1.8962241924222627,0.19072995744615973,B,479,Correct
1,relearn,1001,152,B,83.32699269750937,54.873552369349945,4.166349634875468,0.861951744999623,B,981,Correct
1,relearn,1001,153,B,36.382455411417794,19.83250893151061,1.8191227705708897,0.31152832180743845,A,554,Incorrect
1,relearn,1001,154,A,25.761857742655668,52.380092963036,1.2880928871327832,0.8227845762351215,A,468,Correct
1,relearn,1001,155,A,38.60956859442324,56.2735071834654,1.930478429721162,0.8839421837965367,A,456,Correct
1,relearn,1001,156,A,37.73141680098443,47.3159385754321,1.8865708400492212,0.743237025131417,A,391,Correct
1,relearn,1001,157,A,24.675863687775397,50.81839200142808,1.23379318438877,0.7982534348946637,A,404,Correct
1,relearn,1001,158,A,55.392478984448104,72.52122267667404,2.769623949222405,1.1391607019519434,A,1057,Correct
1,relearn,1001,159,A,35.49229595598898,47.298330820481766,1.774614797799449,0.742960443163426,A,1024,Correct
1,relearn,1001,160,B,39.837670124178004,22.87171165117617,1.9918835062089002,0.3592680064917957,B,618,Correct
1,relearn,1001,161,A,16.109398983578377,32.39904063838878,0.8054699491789188,0.5089229402645967,A,507,Correct
1,relearn,1001,162,A,61.37247098599263,73.09640166029595,3.0686235492996317,1.1481955922991725,A,1163,Correct
1,relearn,1001,163,A,12.17392049392329,32.380405037740864,0.6086960246961646,0.5086302129341432,A,1079,Correct
1,relearn,1001,164,B,78.08231938571407,58.73472241068438,3.9041159692857037,0.9226028621802091,B,4316,Correct
1,relearn,1001,165,A,52.03977507629366,77.8485445105215,2.6019887538146826,1.2228420776345619,A,471,Correct
1,relearn,1001,166,A,26.51028892138431,57.83918636141715,1.3255144460692154,0.9085358148131953,A,570,Correct
1,relearn,1001,167,A,35.990721038608214,65.46096378440609,1.7995360519304109,1.0282584146099885,A,492,Correct
1,relearn,1001,168,B,80.20063008863696,53.10146134958792,4.010031504431848,0.8341158043537388,B,1258,Correct
1,relearn,1001,169,A,43.66446618251057,64.73137908647914,2.1832233091255286,1.016798124974094,A,749,Correct
1,relearn,1001,170,A,41.363662545502365,51.775473045567736,2.0681831272751183,0.8132872287804598,A,1558,Correct
1,relearn,1001,171,A,37.53367222205976,65.67020521260636,1.8766836111029876,1.0315451712782913,A,472,Correct
1,relearn,1001,172,A,25.196214384606158,50.354505263532424,1.2598107192303079,0.7909667190553102,A,888,Correct
1,relearn,1001,173,A,44.46886560271973,69.61984684436554,2.223443280135987,1.0935859969515265,A,640,Correct
1,relearn,1001,174,B,59.67273432618151,42.788210546319185,2.983636716309076,0.6721156395628483,B,604,Correct
1,relearn,1001,175,B,63.571988351172344,34.52755005230829,3.178599417558617,0.5423574879539281,B,638,Correct
1,relearn,1001,176,B,71.7362982781662,60.30924180106049,3.5868149139083103,0.9473353549289104,B,1539,Correct
1,relearn,1001,177,A,51.467499334152194,67.23648629029766,2.57337496670761,1.0561482569139498,A,1755,Correct
1,relearn,1001,178,B,78.46911176344547,46.82245109041551,3.9234555881722737,0.7354853418435839,B,611,Correct
1,relearn,1001,179,B,79.96666256739005,64.79313275913891,3.998333128369502,1.017768149395895,B,544,Correct
1,relearn,1001,180,B,62.00827376775065,37.80026998413528,3.100413688387533,0.5937652524293507,B,432,Correct
1,relearn,1001,181,A,49.36578128873304,59.91824213304187,2.468289064436652,0.9411935465058938,A,421,Correct
1,relearn,1001,182,A,47.11843553990395,73.43808832267077,2.3559217769951974,1.1535627938409043,A,585,Correct
1,relearn,1001,183,B,61.03746204411405,33.39202123651275,3.051873102205702,0.524520643025714,B,502,Correct
1,relearn,1001,184,B,50.022243289611765,31.335980105542568,2.5011121644805883,0.4922244244630422,B,5655,Correct
1,relearn,1001,185,B,58.480526870929495,25.69781817029063,2.924026343546475,0.40366038388535674,B,2650,Correct
1,relearn,1001,186,A,55.056136498374244,73.72683632373213,2.7528068249187125,1.1580984368352698,A,536,Correct
1,relearn,1001,187,A,24.829468337999437,51.61782146726047,1.2414734168999717,0.8108108435792748,A,539,Correct
1,relearn,1001,188,A,26.54157022584303,43.25838715355634,1.3270785112921515,0.6795011564387784,A,496,Correct
1,relearn,1001,189,A,36.18691813121723,52.51610791770331,1.8093459065608615,0.8249210941469274,A,774,Correct
1,relearn,1001,190,B,74.13546427344369,56.656524680915325,3.7067732136721845,0.889958608577462,B,510,Correct
1,relearn,1001,191,A,23.441925975191065,40.96393276891318,1.1720962987595533,0.6434599512448193,A,570,Correct
1,relearn,1001,192,A,47.834267849802806,72.79929533564774,2.3917133924901406,1.1435286570649232,A,663,Correct
1,relearn,1001,193,A,63.42084042014391,89.13894729187471,3.1710420210071955,1.400191309804407,A,1007,Correct
1,relearn,1001,194,B,86.5034676569768,64.51294579039856,4.32517338284884,1.0133669827827634,B,727,Correct
1,relearn,1001,195,A,56.495119301965644,69.73556644747835,2.8247559650982823,1.0954037162266042,A,952,Correct
1,relearn,1001,196,B,33.95771634308172,19.119465120039074,1.697885817154086,0.3003278558084052,A,476,Incorrect
1,relearn,1001,197,A,10.636360164143888,33.97031051227303,0.5318180082071944,0.5336043897276053,A,778,Correct
1,relearn,1001,198,B,64.43423518208722,45.66380018006355,3.2217117591043607,0.7172852959033995,B,670,Correct
1,relearn,1001,199,A,44.78945161884284,55.77722717566617,2.239472580942142,0.8761466356634091,A,1783,Correct
1,relearn,1001,200,A,41.73713596580113,62.59522084420393,2.0868567982900568,0.9832434297699086,A,586,Correct
1,relearn,1001,201,A,51.713410219665455,64.6713934339353,2.585670510983273,1.0158558725473315,A,646,Correct
1,relearn,1001,202,A,49.18367791257137,72.2683858652993,2.4591838956285685,1.1351891506060836,A,508,Correct
1,relearn,1001,203,B,39.64613502199593,19.126106313773143,1.9823067510997965,0.30043217543563533,B,410,Correct
1,relearn,1001,204,A,55.54957569777585,67.20559531450533,2.777478784888792,1.0556630226008927,B,526,Incorrect
1,relearn,1001,205,A,51.93824062840659,67.24891933500636,2.596912031420329,1.056343554723543,A,557,Correct
1,relearn,1001,206,A,42.55368137381605,56.98219875395324,2.1276840686908027,0.8950742849540649,A,2753,Correct
1,relearn,1001,207,A,65.82774248316086,80.84295563117884,3.2913871241580432,1.269878177526985,A,596,Correct
1,relearn,1001,208,A,21.790664094131866,33.847355395806815,1.0895332047065933,0.5316730152745477,A,597,Correct
1,relearn,1001,209,B,46.43628084995409,31.815612124575107,2.3218140424977043,0.49975846660013745,A,1207,Incorrect
1,relearn,1001,210,A,16.38662191747061,31.161613201825727,0.8193310958735305,0.4894854755443121,A,555,Correct
1,relearn,1001,211,B,78.93761638438566,63.29237433314087,3.946880819219283,0.9941942911662527,B,614,Correct
1,relearn,1001,212,A,48.458723360600196,66.50578189477085,2.42293616803001,1.0446703791092857,A,1297,Correct
1,relearn,1001,213,A,63.56380155755258,83.60909473730194,3.1781900778776286,1.3133285890000042,A,597,Correct
1,relearn,1001,214,A,34.33608939907417,64.29081619706479,1.7168044699537086,1.009877779289952,A,446,Correct
1,relearn,1001,215,A,25.823135056525416,54.818291963172854,1.2911567528262708,0.8610837165692211,A,516,Correct
1,relearn,1001,216,B,59.17901601975166,46.06382832347307,2.9589508009875827,0.7235689232862221,B,1117,Correct
1,relearn,1001,217,B,61.8714430924927,53.421547996959134,3.093572154624635,0.8391437136532066,B,628,Correct
1,relearn,1001,218,A,57.985198750023955,70.52113220034886,2.899259937501198,1.107743354217253,A,812,Correct
1,relearn,1001,219,A,25.391003611096338,51.4533578060674,1.2695501805548168,0.8082274544303418,A,587,Correct
1,relearn,1001,220,B,48.84022129685736,19.31889771755753,2.442011064842868,0.3034605357246568,B,584,Correct
1,relearn,1001,221,A,35.8182914703194,61.747340862510406,1.79091457351597,0.9699249621618377,A,504,Correct
1,relearn,1001,222,B,61.887001186322244,35.86359644776526,3.094350059316112,0.5633440556580418,B,2419,Correct
1,relearn,1001,223,A,41.73042769044611,67.83395083862925,2.0865213845223054,1.0655332080930444,A,574,Correct
1,relearn,1001,224,B,45.05608027064705,21.107032856454573,2.2528040135323524,0.3315484968045804,A,1504,Incorrect
1,relearn,1001,225,B,69.93591261566513,44.005609209013215,3.4967956307832564,0.6912384930388963,B,946,Correct
1,relearn,1001,226,A,38.1996828307511,69.60775516002955,1.9099841415375551,1.0933960612181293,A,500,Correct
1,relearn,1001,227,B,42.68850658087334,16.222934915169237,2.1344253290436668,0.25482926574580517,B,925,Correct
1,relearn,1001,228,B,73.85137483719413,58.160790173693925,3.6925687418597066,0.9135875556832712,A,456,Incorrect
1,relearn,1001,229,B,75.35758368895745,53.164831833940845,3.7678791844478723,0.8351112255942266,B,587,Correct
1,relearn,1001,230,A,34.06483496061009,43.06582303291697,1.7032417480305044,0.6764763663050501,A,517,Correct
1,relearn,1001,231,A,32.870385274685695,51.67724337538572,1.6435192637342848,0.8117442407294179,A,550,Correct
1,relearn,1001,232,A,56.49713538254359,71.05598765851772,2.8248567691271798,1.1161448441078314,A,1206,Correct
1,relearn,1001,233,B,61.92544853420765,43.27344739242492,3.096272426710383,0.6797377221177325,B,767,Correct
1,relearn,1001,234,A,34.970058737521526,64.92285807004221,1.7485029368760763,1.0198058698144872,A,554,Correct
1,relearn,1001,235,A,59.65113980985885,70.67757238751157,2.982556990492942,1.1102007109308358,A,1431,Correct
1,relearn,1001,236,A,50.32761693325375,58.94230280379064,2.5163808466626874,0.9258635273702687,A,588,Correct
1,relearn,1001,237,A,41.39192826498867,58.54402050999263,2.0695964132494336,0.919607323729015,A,715,Correct
1,relearn,1001,238,B,53.25836169633866,29.19815682297811,2.662918084816933,0.4586435748671537,B,684,Correct
1,relearn,1001,239,A,20.622091508733455,41.40488384778488,1.0311045754366728,0.6503863945946984,A,365,Correct
1,relearn,1001,240,A,16.90147293560103,39.38904886318193,0.8450736467800516,0.6187217327023087,A,408,Correct
1,relearn,1001,241,B,32.51283982812136,12.020783404141827,1.6256419914060678,0.18882202416423036,B,586,Correct
1,relearn,1001,242,A,45.70335363289403,69.963853866443,2.2851676816447015,1.0989896466182358,A,767,Correct
1,relearn,1001,243,B,52.33355799069194,24.224013774268087,2.616677899534597,0.3805099185684929,B,460,Correct
1,relearn,1001,244,A,45.514083715537495,54.32063982230646,2.2757041857768745,0.8532666150202758,A,1868,Correct
1,relearn,1001,245,A,21.34037747931832,47.65667206364312,1.067018873965916,0.7485892542483958,A,513,Correct
1,relearn,1001,246,A,31.63792126262036,50.50343554194277,1.581896063131018,0.7933061103980653,A,469,Correct
1,relearn,1001,247,A,31.67692528582373,55.04592316936806,1.5838462642911866,0.8646593391947744,A,521,Correct
1,relearn,1001,248,A,62.545149211043395,72.84043499598421,3.12725746055217,1.1441748773383442,A,925,Correct
1,relearn,1001,249,A,22.729672631778847,39.715691768751356,1.1364836315889422,0.6238526274647294,A,647,Correct
1,relearn,1001,250,A,49.12319822002519,61.56286139396029,2.4561599110012593,0.9670271654461616,A,928,Correct
1,relearn,1001,251,B,37.726842949015236,13.220753955463962,1.8863421474507618,0.20767111750701892,B,608,Correct
1,relearn,1001,252,A,53.45317109942413,69.7318092416524,2.6726585549712065,1.0953446981755002,A,1537,Correct
1,relearn,1001,253,B,39.79380348075736,21.165846878993673,1.989690174037868,0.33247234531026487,B,941,Correct
1,relearn,1001,254,B,43.08731873675627,18.72601061129428,2.154365936837814,0.29414748683743314,B,561,Correct
1,relearn,1001,255,B,44.24812271796567,28.51468383619392,2.2124061358982834,0.44790760629611215,B,626,Correct
1,relearn,1001,256,A,63.61155144116529,75.67407050862715,3.1805775720582643,1.1886855198856954,A,757,Correct
1,relearn,1001,257,B,46.42180381457487,20.495967715420417,2.321090190728744,0.32194990801489176,B,630,Correct
1,relearn,1001,258,A,42.08346957514503,66.24911308454148,2.104173478757252,1.0406386348661747,A,656,Correct
1,relearn,1001,259,A,60.23199571977277,68.68960303053981,3.0115997859886385,1.0789737612937151,A,380,Correct
1,relearn,1001,260,B,76.30649061396244,61.38809866213119,3.815324530698122,0.9642819988739839,A,805,Incorrect
1,relearn,1001,261,B,44.88945661496362,18.850684836305746,2.244472830748181,0.29610586498437325,B,488,Correct
1,relearn,1001,262,A,39.70348518258292,64.40755001645076,1.9851742591291457,1.0117114298369942,A,703,Correct
1,relearn,1001,263,B,39.9914990795979,26.769275206443968,1.999574953979895,0.42049079165243886,B,811,Correct
1,relearn,1001,264,A,52.991054409533064,72.01145775761232,2.649552720476653,1.131153333328033,A,477,Correct
1,relearn,1001,265,A,50.21390159035199,80.82237100168048,2.5106950795175993,1.2695548349229406,A,517,Correct
1,relearn,1001,266,A,42.91195329247061,68.62591304553006,2.145597664623531,1.077973321348646,A,510,Correct
1,relearn,1001,267,A,66.14035278118611,87.66451871403652,3.307017639059305,1.3770310398625105,A,481,Correct
1,relearn,1001,268,B,84.34525531198162,67.2679045523257,4.217262765599081,1.056641773819829,A,689,Incorrect
1,relearn,1001,269,A,58.26714053003225,83.6436693452549,2.9133570265016124,1.313871685671733,A,505,Correct
1,relearn,1001,270,A,65.52166270254598,76.80398169842988,3.2760831351272994,1.206434123351161,A,410,Correct
1,relearn,1001,271,B,32.90081880314368,20.206874186479787,1.6450409401571842,0.3174088374812906,A,700,Incorrect
1,relearn,1001,272,A,13.692412554670089,36.97272252219477,0.6846206277335044,0.580766167294705,A,453,Correct
1,relearn,1001,273,B,40.53410229567008,14.312816853676232,2.0267051147835042,0.2248252013984271,A,585,Incorrect
1,relearn,1001,274,B,52.574646850365006,44.867987126928725,2.62873234251825,0.7047846936966035,A,408,Incorrect
1,relearn,1001,275,A,62.49178682906522,80.50534481408738,3.124589341453261,1.2645749992132502,B,700,Incorrect
1,relearn,1001,276,B,31.058212658401096,14.230476756660494,1.5529106329200548,0.22353180617902457,A,509,Incorrect
1,relearn,1001,277,B,55.24428821065432,24.580219160628538,2.7622144105327155,0.3861051796932884,A,484,Incorrect
1,relearn,1001,278,B,76.16958131863586,49.8330197719496,3.8084790659317935,0.7827752441087589,B,1169,Correct
1,relearn,1001,279,B,45.402151181246325,20.97922732282024,2.2701075590623163,0.3295409321768117,B,417,Correct
1,relearn,1001,280,A,26.99506509338432,42.96188217666922,1.349753254669216,0.6748436671530714,A,839,Correct
1,relearn,1001,281,A,36.05363584596976,46.70043069354473,1.802681792298488,0.7335686499315971,A,475,Correct
1,relearn,1001,282,A,30.1247580930822,49.012469373611,1.50623790465411,0.7698860685921554,A,359,Correct
1,relearn,1001,283,B,35.804759531098114,17.11464245692285,1.7902379765549057,0.26883617505742397,B,1190,Correct
1,relearn,1001,284,B,84.74793062975792,68.61153251966455,4.237396531487896,1.0777474325765768,A,994,Incorrect
1,relearn,1001,285,B,40.7310644052734,27.160917474264856,2.03655322026367,0.4266426940095456,B,1108,Correct
1,relearn,1001,286,A,55.41614620264134,81.49345999567157,2.770807310132067,1.2800962761900774,A,789,Correct
1,relearn,1001,287,A,37.77003588202726,65.3793004023516,1.8885017941013629,1.02697564920434,A,724,Correct
1,relearn,1001,288,B,41.08885504410784,17.721453468550976,2.054442752205392,0.27836794013866556,B,1550,Correct
1,relearn,1001,289,A,43.53216880520532,75.71895353966566,2.176608440260266,1.1893905408886025,A,476,Correct
1,relearn,1001,290,B,48.597131224382224,29.161530991209638,2.429856561219111,0.45806825764707637,B,826,Correct
1,relearn,1001,291,A,40.55376183703533,58.22670988794181,2.0276880918517666,0.9146230201333108,A,538,Correct
1,relearn,1001,292,A,20.902140688423643,45.41025698348037,1.0451070344211821,0.7133026486846327,A,1311,Correct
1,relearn,1001,293,B,67.87395843862816,43.02624952565466,3.393697921931408,0.67585474710659,B,1772,Correct
1,relearn,1001,294,A,37.569124058936616,52.73548416088235,1.8784562029468308,0.8283670481166445,B,1365,Incorrect
1,relearn,1001,295,A,31.07859894634862,57.64480867416358,1.553929947317431,0.9054825372417074,B,963,Incorrect
1,relearn,1001,296,B,43.75146495426276,33.66035575222196,2.187573247713138,0.5287356317419972,B,2460,Correct
1,relearn,1001,297,B,68.94697089036156,36.03588202628884,3.447348544518078,0.5660503111970874,B,2275,Correct
1,relearn,1001,298,B,65.47924617264309,53.6877421019604,3.2739623086321545,0.8433250808767111,B,1546,Correct
1,relearn,1001,299,B,60.79038531312641,46.05397202085488,3.0395192656563204,0.7234141008467379,B,863,Correct
1,relearn,1001,300,B,73.7913201665015,60.07993125472838,3.6895660083250754,0.9437333532901724,B,1303,Incorrect
1,relearn,1001,301,A,45.53202366764853,52.83414100724204,2.2766011833824265,0.8299167462353941,A,8195,Incorrect
1,relearn,1001,302,A,25.82192131120952,52.37385181482563,1.291096065560476,0.8226865405082832,A,3252,Correct
1,relearn,1001,303,A,17.11143448074264,34.50529289172843,0.8555717240371321,0.5420078732930906,A,2510,Incorrect
1,relearn,1001,304,A,40.004006845369375,70.28544569692197,2.0002003422684687,1.104041199278672,A,2904,Correct
1,relearn,1001,305,A,31.29569612185552,63.92974452418732,1.564784806092776,1.004206078715296,A,1505,Correct
1,relearn,1001,306,A,36.46961040264955,62.98395105271507,1.8234805201324775,0.9893495896063439,A,1012,Incorrect
1,relearn,1001,307,B,40.898605925889,30.527645962501087,2.0449302962944502,0.4795271414359176,B,721,Incorrect
1,relearn,1001,308,B,64.15567865977494,51.88662399634943,3.2077839329887468,0.8150331838325362,A,871,Correct
1,relearn,1001,309,A,38.114320072103965,45.34842416504512,1.9057160036051983,0.712331381043898,A,2117,Correct
1,relearn,1001,310,A,19.342980822744497,43.18834589001864,0.9671490411372248,0.6784009508438874,A,481,Correct
1,relearn,1001,311,B,35.04599112045041,12.343104468246931,1.7522995560225205,0.19388503159967954,B,679,Incorrect
1,relearn,1001,312,B,70.50471201717164,49.69634485983487,3.525235600858582,0.7806283596096105,B,1411,Correct
1,relearn,1001,313,B,37.70075089339545,14.371015004460176,1.8850375446697725,0.22573937581320389,B,1016,Incorrect
1,relearn,1001,314,B,67.5824949465044,57.20262139051191,3.37912474732522,0.898536675632553,A,1813,Correct
1,relearn,1001,315,B,41.58912536807355,31.248903730713586,2.0794562684036775,0.4908566319657225,A,2223,Incorrect
1,relearn,1001,316,B,68.88764107316342,35.53825609360388,3.4443820536581713,0.5582336213252932,B,1459,Incorrect
1,relearn,1001,317,A,65.59055203827434,89.2204024066157,3.279527601913717,1.4014708037547448,A,781,Incorrect
1,relearn,1001,318,A,51.91628353825429,70.80794254404586,2.5958141769127145,1.1122485605609131,A,926,Incorrect
1,relearn,1001,319,A,32.36294517113255,54.14441981823745,1.6181472585566274,0.850498557669282,A,637,Incorrect
1,relearn,1001,320,B,56.897222407207686,28.462861263149733,2.844861120360384,0.44709357922228343,B,554,Correct
1,relearn,1001,321,B,79.68798038388681,66.70641200762579,3.9843990191943406,1.0478218695524557,1073741902,470,Correct
1,relearn,1001,322,A,34.646905317543656,67.55725002977942,1.7323452658771827,1.0611868019514195,A,684,Incorrect
1,relearn,1001,323,B,73.53529591363878,49.126848468919455,3.676764795681939,0.7716827312198816,B,578,Correct
1,relearn,1001,324,B,51.732869159139305,40.36608260539649,2.5866434579569653,0.6340689428365618,B,1347,Correct
1,relearn,1001,325,A,27.354748628648576,44.56856352321441,1.3677374314324289,0.7000813587279021,A,772,Incorrect
1,relearn,1001,326,A,63.29006059031135,84.9207576957857,3.1645030295155676,1.3339321425717963,A,924,Correct
1,relearn,1001,327,B,87.29131448686447,63.77542942679437,4.364565724343223,1.0017821028337577,A,716,Correct
1,relearn,1001,328,B,73.41465561032278,60.88762543539221,3.670732780516139,0.956420583811776,A,2025,Correct
1,relearn,1001,329,B,37.64202852277869,21.9817002129135,1.8821014261389342,0.3452877395115112,A,1630,Incorrect
1,relearn,1001,330,B,76.97254594997867,63.56277510257037,3.8486272974989335,0.9984417365200764,A,787,Incorrect
1,relearn,1001,331,A,56.84903240577253,85.05448493308153,2.8424516202886263,1.3360327251031632,A,665,Correct
1,relearn,1001,332,A,27.689858485120638,50.67014770479331,1.3844929242560318,0.795924818928442,A,1412,Incorrect
1,relearn,1001,333,B,58.70867054938566,43.84567635735428,2.935433527469283,0.6887262736796994,B,2503,Incorrect
1,relearn,1001,334,A,23.22779519153804,47.625216534821504,1.1613897595769018,0.748095151957092,A,1400,Correct
1,relearn,1001,335,A,58.7506093411252,70.94826540841404,2.93753046705626,1.114452746960062,A,1053,Incorrect
1,relearn,1001,336,A,45.425277163360676,68.45971989070782,2.2712638581680338,1.0753627653773135,A,601,Incorrect
1,relearn,1001,337,B,54.38695137391754,34.36772397734688,2.719347568695877,0.5398469458391737,B,691,Incorrect
1,relearn,1001,338,B,55.97049150427064,48.62595698301304,2.798524575213532,0.7638147461580354,108,667,Correct
1,relearn,1001,339,B,58.9055457860889,37.02542392420378,2.9452772893044448,0.5815939989816319,B,720,Correct
1,relearn,1001,340,A,33.28600281016946,58.899531928708264,1.664300140508473,0.9251916840355366,A,1063,Correct
1,relearn,1001,341,B,56.51011166112116,38.03339243276746,2.8255055830560583,0.5974271312893994,B,1962,Incorrect
1,relearn,1001,342,B,77.56324735697837,64.46059735171309,3.878162367848918,1.0125446954307578,A,816,Correct
1,relearn,1001,343,A,23.619468105185955,55.74417502524867,1.1809734052592977,0.8756274536987243,A,668,Incorrect
1,relearn,1001,344,B,77.53175785171285,52.50440048925246,3.876587892585643,0.8247371942908595,A,3291,Incorrect
1,relearn,1001,345,A,19.76397890677077,46.31417983763172,0.9881989453385386,0.7275014356747017,A,599,Incorrect
1,relearn,1001,346,B,67.96845957102862,34.61180420729491,3.398422978551431,0.5436809491256299,A,815,Incorrect
1,relearn,1001,347,A,53.43674939460776,60.60631479618667,2.671837469730388,0.9520017666242521,A,640,Correct
1,relearn,1001,348,A,12.092307502378965,36.40533766498774,0.6046153751189483,0.5718537067989063,B,1002,Correct
1,relearn,1001,349,B,53.66140630650584,30.96694767367631,2.683070315325292,0.4864276765786052,B,1172,Incorrect
1,relearn,1001,350,A,38.416712231138234,65.37376843211166,1.9208356115569116,1.0268887532190116,A,587,Correct
1,relearn,1001,351,A,51.67468309907032,80.88796541813988,2.583734154953516,1.2705851896072675,A,1936,Incorrect
1,relearn,1001,352,B,59.91381838741886,31.48590547729455,2.995690919370943,0.49457944669545595,B,768,Incorrect
1,relearn,1001,353,B,31.161338938024347,14.34731221472946,1.5580669469012174,0.2253670532627659,A,461,Correct
1,relearn,1001,354,B,74.92991221681513,46.97046468443661,3.746495610840756,0.7378103339416242,B,1186,Incorrect
1,relearn,1001,355,A,38.93717569804504,54.35643500004234,1.946858784902252,0.8538288843573206,B,1086,Correct
1,relearn,1001,356,B,51.942612901231215,25.820359665433553,2.5971306450615605,0.40558526118986127,B,6373,Incorrect
1,relearn,1001,357,B,57.924164439428566,33.89589472945894,2.8962082219714285,0.5324354693446058,B,1113,Correct
1,relearn,1001,358,A,58.80105326797025,77.60876502404602,2.9400526633985122,1.2190756302685974,A,2797,Incorrect
1,relearn,1001,359,B,77.81006486153555,51.85945235401074,3.8905032430767776,0.8146063726727503,B,835,Incorrect
1,relearn,1001,360,B,47.49064620099128,19.682191784413572,2.374532310049564,0.3091671455822953,B,802,Incorrect
1,relearn,1001,361,A,47.635523674629894,76.67013005702464,2.381776183731495,1.2043315866846127,B,1406,Correct
1,relearn,1001,362,A,54.52938559039732,79.0735977016028,2.7264692795198657,1.2420851681613503,A,951,Correct
1,relearn,1001,363,B,35.90618762881216,23.688645039791567,1.7953093814406083,0.3721003661525274,A,3000,Correct
1,relearn,1001,364,B,41.005555590153136,19.51034583616236,2.050277779507657,0.30646779573941946,A,4778,Correct
1,relearn,1001,365,B,67.01610712474177,55.32767073009584,3.3508053562370885,0.8690850195295204,A,2135,Incorrect
1,relearn,1001,366,A,29.96903597436779,59.3413284585868,1.4984517987183894,0.932131407698776,A,4581,Incorrect
1,relearn,1001,367,B,66.51682682995515,40.491450476296016,3.3258413414977577,0.6360382167476325,A,512,Correct
1,relearn,1001,368,B,43.528533416704235,32.048577565702104,2.176426670835212,0.5034178791920619,A,2461,Correct
1,relearn,1001,369,A,21.187185280147713,44.7090979250831,1.0593592640073857,0.7022888679503386,A,3895,Correct
1,relearn,1001,370,A,42.86647439588687,61.09312283449941,2.1433237197943438,0.9596485294086109,A,1841,Incorrect
1,relearn,1001,371,A,41.12075682644736,54.2585784752403,2.056037841322368,0.852291757660201,A,3903,Correct
1,relearn,1001,372,A,43.14704338621371,69.94240921880466,2.1573521693106854,1.0986527948808384,52,428,Incorrect
1,relearn,1001,373,B,61.62338750729121,41.00030904391857,3.081169375364561,0.6440313484364286,B,530,Correct
1,relearn,1001,374,A,63.243973068405694,73.33042923625544,3.1621986534202846,1.1518716888660314,A,1045,Correct
1,relearn,1001,375,A,49.656201042786805,65.6254263283623,2.48281005213934,1.0308417862094057,A,662,Correct
1,relearn,1001,376,B,59.02573581151881,41.33048276976528,2.9512867905759403,0.6492177051940706,B,1616,Incorrect
1,relearn,1001,377,A,38.873460243605265,56.8793460191076,1.9436730121802634,0.8934586779731014,A,2747,Incorrect
1,relearn,1001,378,B,70.1076024414897,51.48346318620022,3.505380122074485,0.8087003486356358,A,1647,Incorrect
1,relearn,1001,379,B,79.27724360804544,51.85267094444153,3.9638621804022716,0.814499850540332,B,1010,Correct
1,relearn,1001,380,A,35.25235214934903,51.150991746066325,1.7626176074674516,0.8034778994663706,A,2359,Incorrect
1,relearn,1001,381,A,47.961022949484494,66.8852873540389,2.3980511474742245,1.0506316369234543,B,10041,Incorrect
1,relearn,1001,382,A,43.052820766500105,60.10043662361822,2.1526410383250054,0.9440554508714898,A,3023,Correct
1,relearn,1001,383,A,21.301387926428777,44.392744166778634,1.0650693963214388,0.6973195947352145,B,1445,Correct
1,relearn,1001,384,B,76.13933069846661,43.93296314733347,3.8069665349233306,0.6900973713704697,B,1594,Incorrect
1,relearn,1001,385,A,33.03714899892843,59.026932731877956,1.6518574499464216,0.9271928911720334,A,711,Incorrect
1,relearn,1001,386,A,29.87923486286277,51.53147200732897,1.4939617431431385,0.8094544694344639,A,882,Incorrect
1,relearn,1001,387,B,73.8862200743794,42.542029867714746,3.6943110037189695,0.668248642506051,A,3666,Incorrect
1,relearn,1001,388,B,68.95754909462694,52.94721311300972,3.447877454731347,0.8316928787194225,A,2587,Correct
1,relearn,1001,389,B,86.57705195271083,67.65668641046115,4.328852597635541,1.0627487449666657,A,2047,Correct
1,relearn,1001,390,A,54.25095252471276,81.658509574398,2.7125476262356383,1.2826888689101026,A,3794,Correct
1,relearn,1001,391,B,77.72509380863687,66.37346097732771,3.8862546904318434,1.0425918869985078,A,6060,Incorrect
1,relearn,1001,392,A,40.80906616808389,72.62074079365689,2.0404533084041945,1.1407239288780056,B,2114,Correct
1,relearn,1001,393,A,30.635676606231513,41.4652791208583,1.5317838303115758,0.6513350813256933,A,1973,Correct
1,relearn,1001,394,B,87.01736451123722,69.31980106381491,4.350868225561861,1.0888728888519341,A,586,Correct
1,relearn,1001,395,B,40.14544248384782,31.34932150396888,2.0072721241923914,0.4924339906594658,100,1333,Incorrect
1,relearn,1001,396,B,59.498727975210286,43.3745420633647,2.974936398760514,0.6813257134954401,A,648,Incorrect
1,relearn,1001,397,B,30.73010458651338,14.683670766229366,1.536505229325669,0.2306505610345869,B,1890,Correct
1,relearn,1001,398,B,86.39927507364564,62.722272633791135,4.319963753682282,0.9852391546138719,A,786,Correct
1,relearn,1001,399,A,49.52127128846416,79.96082311147968,2.476063564423208,1.2560216723100877,A,609,Correct
1,relearn,1001,400,B,84.94949327354817,68.25131550085018,4.247474663677409,1.0720891568765505,A,582,Incorrect
1,relearn,1001,401,A,44.11168235654948,73.50118980765396,2.205584117827474,1.1545539896491732,A,593,Correct
1,relearn,1001,402,A,65.794856059464,77.97951059698602,3.2897428029732,1.2248992881100933,A,1352,Correct
1,relearn,1001,403,B,35.51000795328072,12.515010549926227,1.7755003976640358,0.19658532601623496,B,779,Incorrect
1,relearn,1001,404,A,65.92402255012627,80.08398699063002,3.2962011275063134,1.257956325999719,A,522,Correct
1,relearn,1001,405,A,34.61893578451427,55.24503559573147,1.7309467892257135,0.8677869898742832,A,2150,Incorrect
1,relearn,1001,406,A,14.539225019272205,37.92982192131268,0.7269612509636103,0.595800249499825,A,837,Incorrect
1,relearn,1001,407,B,72.60201187045686,62.32202747564878,3.630100593522843,0.9789521183715973,A,789,Correct
1,relearn,1001,408,A,37.843050190943956,45.81897411303641,1.8921525095471978,0.7197227623426804,A,2054,Incorrect
1,relearn,1001,409,B,66.46304259104423,54.64323301676457,3.323152129552211,0.8583338970693138,B,977,Correct
1,relearn,1001,410,B,39.45714146594564,19.636659495921116,1.972857073297282,0.3084519260671501,B,758,Correct
1,relearn,1001,411,B,37.000851682252424,17.624127700622687,1.8500425841126213,0.276839150551023,B,481,Incorrect
1,relearn,1001,412,B,31.77963236198591,17.134894355073463,1.5889816180992955,0.26915429112968003,107,531,Correct
1,relearn,1001,413,A,30.57223611044038,53.05391680206108,1.5286118055220188,0.833368976347596,A,933,Correct
1,relearn,1001,414,B,50.50676236006028,20.539429149783466,2.525338118003014,0.32263259862943894,B,3037,Correct
1,relearn,1001,415,B,71.04601929947565,53.42595597632328,3.552300964973782,0.8392129540311446,B,2748,Incorrect
1,relearn,1001,416,B,53.56424155873918,36.72547863538364,2.6782120779369585,0.5768824694024507,B,645,Incorrect
1,relearn,1001,417,A,61.88009737353083,80.76310222973038,3.0940048686765413,1.2686238432302122,A,1783,Incorrect
1,relearn,1001,418,B,49.09620097224024,34.994884561229206,2.454810048612012,0.5496983612539027,B,936,Incorrect
1,relearn,1001,419,A,22.5792544661038,54.49182238957949,1.1289627233051902,0.8559555444991136,A,876,Correct
1,relearn,1001,420,B,62.91209544344712,50.84334080608428,3.145604772172356,0.7986453298017826,B,672,Incorrect
1,relearn,1001,421,B,71.56050441737625,46.22204270870434,3.5780252208688124,0.726054149037896,B,668,Correct
1,relearn,1001,422,A,34.044098776515256,44.41241099750027,1.7022049388257627,0.6976285205897869,A,553,Incorrect
1,relearn,1001,423,A,66.74094662091066,82.91665597904353,3.3370473310455333,1.302451786419977,A,1022,Incorrect
1,relearn,1001,424,A,60.575988637540526,74.32958914593287,3.0287994318770264,1.1675664560260517,A,782,Correct
1,relearn,1001,425,A,20.761004948269907,33.607793311829056,1.0380502474134954,0.5279099828590318,A,728,Incorrect
1,relearn,1001,426,A,58.84325556856507,81.24323747068641,2.942162778428253,1.276165789958797,A,1052,Incorrect
1,relearn,1001,427,A,41.52199991265525,62.60005885073937,2.076099995632762,0.9833194249988577,A,657,Correct
1,relearn,1001,428,B,76.00826497522607,57.44247951217726,3.800413248761304,0.9023043581971912,A,603,Correct
1,relearn,1001,429,B,34.35597908789745,17.689511798509358,1.7177989543948726,0.2778662015589348,B,1395,Incorrect
1,relearn,1001,430,B,37.618443784322196,12.252702432147391,1.8809221892161099,0.1924649997372802,B,2577,Incorrect
1,relearn,1001,431,A,38.61689609845091,53.49950832997219,1.9308448049225455,0.8403683117005327,A,956,Incorrect
1,relearn,1001,432,B,78.2492414319556,59.033341905955155,3.9124620715977803,0.9272935662430161,A,780,Correct
1,relearn,1001,433,A,22.64417850675266,54.00252567581814,1.132208925337633,0.8482696896922224,A,676,Correct
1,relearn,1001,434,A,33.486435697971096,64.74836130848396,1.674321784898555,1.017064881093554,A,2409,Incorrect
1,relearn,1001,435,B,79.76609338998843,53.682883170168765,3.9883046694994215,0.8432487569546065,B,3902,Incorrect
1,relearn,1001,436,B,84.51967064050123,58.437288969079475,4.225983532025062,0.9179307886048197,A,1509,Correct
1,relearn,1001,437,A,44.06807638151316,55.295951101156774,2.2034038190756577,0.8685867687632729,A,2891,Correct
1,relearn,1001,438,B,77.11617373620106,63.03883140292881,3.855808686810053,0.9902116481316334,107,1688,Incorrect
1,relearn,1001,439,A,59.3453288845683,78.55563613054446,2.967266444228415,1.2339490468289571,A,1705,Incorrect
1,relearn,1001,440,A,44.28952477027733,70.11022547039802,2.2144762385138663,1.101288846396632,A,604,Correct
1,relearn,1001,441,B,65.7391484559785,43.83218401580254,3.2869574227989244,0.688514336474206,B,2505,Correct
1,relearn,1001,442,A,28.55628532554513,45.07131586903574,1.4278142662772564,0.7079785741089387,A,1771,Incorrect
1,relearn,1001,443,A,19.62074313154643,50.1520911302074,0.9810371565773215,0.787787205284127,107,577,Incorrect
1,relearn,1001,444,A,19.665469672052936,37.83477666816786,0.9832734836026468,0.5943072821546334,A,547,Correct
1,relearn,1001,445,A,24.833801971503803,55.20494516878727,1.2416900985751902,0.8671572509204473,A,553,Correct
1,relearn,1001,446,B,33.57531183222898,10.934490327061287,1.6787655916114488,0.17175857241122194,B,2005,Correct
1,relearn,1001,447,A,31.7271770214588,49.50713599753521,1.58635885107294,0.7776562737506371,B,1954,Correct
1,relearn,1001,448,A,67.40733901495261,85.93655477704186,3.370366950747631,1.3498882458118577,A,703,Incorrect
1,relearn,1001,449,B,75.97080014113371,53.83259336336383,3.7985400070566855,0.8456003991701523,44,914,Incorrect
1,relearn,1001,450,A,50.501989393301066,69.64994355485942,2.5250994696650535,1.0940587549744505,A,1342,Incorrect
1,relearn,1001,451,B,41.0898097638118,26.731949937110926,2.0544904881905897,0.4199044876927891,107,2938,Correct
1,relearn,1001,452,B,71.17368056810275,56.80242199476629,3.5586840284051378,0.8922503582243255,107,1409,Incorrect
1,relearn,1001,453,A,20.607564707844976,50.892095383850446,1.0303782353922488,0.7994111649184779,113,862,Incorrect
1,relearn,1001,454,B,73.4960644459086,43.564682484288085,3.67480322229543,0.6843124322430569,B,1094,Correct
1,relearn,1001,455,B,68.38742870989711,49.677234959840476,3.4193714354948552,0.7803281820024442,B,766,Correct
1,relearn,1001,456,A,55.025624569945165,69.22148499112988,2.7512812284972585,1.0873285435935487,A,902,Correct
1,relearn,1001,457,B,41.19836738002743,18.521917596363437,2.0599183690013714,0.29094160125565444,B,594,Correct
1,relearn,1001,458,B,82.22596150886153,67.64872961942157,4.111298075443076,1.0626237599852855,A,825,Incorrect
1,relearn,1001,459,B,75.12824969364357,62.75250710020302,3.7564124846821785,0.9857140765016956,B,916,Correct
1,relearn,1001,460,A,36.53790117487168,50.049857134961776,1.826895058743584,0.786181317442073,A,525,Incorrect
1,relearn,1001,461,B,76.46921179166971,61.26072005159814,3.823460589583485,0.9622811403386082,A,3584,Incorrect
1,relearn,1001,462,B,65.40028772223174,34.91020844743917,3.270014386111587,0.5483682719688161,B,3675,Incorrect
1,relearn,1001,463,A,17.061700100989743,36.22308061768321,0.8530850050494871,0.5689908197945219,A,759,Correct
1,relearn,1001,464,A,44.41531814873724,58.52006920162824,2.220765907436862,0.919231097457008,A,1303,Correct
1,relearn,1001,465,A,24.44510994148999,45.45981581611714,1.2222554970744994,0.7140811170072935,A,544,Incorrect
1,relearn,1001,466,B,53.74479133872359,30.074220143969463,2.6872395669361793,0.4724047453336832,B,1093,Incorrect
1,relearn,1001,467,B,56.58449289435988,31.27705330441816,2.829224644717994,0.49129880443548235,B,2088,Correct
1,relearn,1001,468,B,45.23107560758611,16.966109740415796,2.2615537803793053,0.26650302860244246,B,631,Correct
1,relearn,1001,469,A,38.146339465798675,57.532243788075675,1.907316973289934,0.9037143721457778,A,667,Incorrect
1,relearn,1001,470,A,43.189173057685196,50.10864461358032,2.15945865288426,0.7871047489968285,A,956,Correct
1,relearn,1001,471,B,81.15913766888401,66.27949026150847,4.0579568834442,1.0411157984461563,A,1209,Incorrect
1,relearn,1001,472,B,54.457717171298285,45.66409852159646,2.722885858564914,0.7172899822412397,B,847,Correct
1,relearn,1001,473,B,48.10008997643628,34.50706383195883,2.405004498821814,0.5420356911571795,B,1312,Incorrect
1,relearn,1001,474,B,75.44881637499391,63.71671052814344,3.772440818749695,1.0008597485306143,A,1042,Incorrect
1,relearn,1001,475,B,61.72794119876946,31.040872321849506,3.086397059938473,0.4875888822367057,B,583,Correct
1,relearn,1001,476,A,67.54628468530002,89.53485275662851,3.377314234265001,1.4064101783023397,A,658,Correct
1,relearn,1001,477,B,84.92294548175006,68.18254934174057,4.246147274087503,1.0710089805751788,B,2430,Correct
1,relearn,1001,478,A,50.46535665163335,66.07073164889869,2.5232678325816678,1.0378366258274139,A,704,Correct
1,relearn,1001,479,B,76.18164035907982,60.853702742809816,3.8090820179539913,0.9558877274027417,A,1312,Correct
1,relearn,1001,480,B,79.5701232857155,60.67678810379708,3.978506164285775,0.9531087587515673,B,967,Incorrect
1,relearn,1001,481,A,44.53574484005209,69.016418924202,2.2267872420026045,1.0841073733467428,A,1664,Correct
1,relearn,1001,482,A,15.876137676145195,39.299499417688324,0.7938068838072597,0.61731509330183,B,722,Incorrect
1,relearn,1001,483,B,71.71091299156194,41.35121382890855,3.585545649578097,0.6495433479095987,B,1393,Correct
1,relearn,1001,484,B,64.1522915494578,35.192214841929356,3.20761457747289,0.5527980180547948,B,593,Correct
1,relearn,1001,485,A,67.78438197045017,87.9624469108539,3.3892190985225086,1.3817108850346038,A,692,Correct
1,relearn,1001,486,B,68.91392122396059,47.17777232707289,3.445696061198029,0.7410667147773201,B,1201,Incorrect
1,relearn,1001,487,B,67.24766653741851,58.557348047654244,3.362383326870926,0.919816672201056,A,655,Correct
1,relearn,1001,488,B,44.14318111843686,35.34072999457685,2.207159055921843,0.5551308886173153,B,640,Correct
1,relearn,1001,489,B,76.68051123511619,56.49908682684877,3.834025561755809,0.8874855805487997,B,1337,Incorrect
1,relearn,1001,490,A,41.12852741146646,67.56010458208652,2.056426370573323,1.0612316411542058,A,726,Incorrect
1,relearn,1001,491,A,21.62931548126611,48.57252567279053,1.0814657740633056,0.7629754490997017,A,1002,Correct
1,relearn,1001,492,B,53.49749205352748,35.93976111996623,2.674874602676374,0.56454044753129,B,2423,Correct
1,relearn,1001,493,A,65.26813685547117,83.01587822534623,3.2634068427735587,1.3040103658202629,A,2311,Correct
1,relearn,1001,494,B,49.399368175066535,20.716743549846864,2.469968408753327,0.3254178467125132,108,778,Incorrect
1,relearn,1001,495,B,70.29122396398924,57.533182364511845,3.5145611981994618,0.9037291152699614,1073741898,914,Incorrect
1,relearn,1001,496,B,86.20962385027246,60.48407043902158,4.310481192513623,0.9500815567521887,B,809,Correct
1,relearn,1001,497,A,38.99835674111816,50.25993544481182,1.9499178370559078,0.7894812198165903,108,745,Incorrect
1,relearn,1001,498,B,57.43550223448784,49.40920464933994,2.871775111724392,0.7761179717304051,B,722,Incorrect
1,relearn,1001,499,B,41.472149348374764,17.556622721997115,2.073607467418738,0.27577878482636886,B,1598,Correct
1,relearn,1001,500,B,31.71588489544408,17.55346167475668,1.5857942447722042,0.27572913121242787,B,1803,Correct
1,relearn,1001,501,A,11.84995165839928,38.13723143004681,0.592497582919964,0.5990582304444442,A,1091,Incorrect
1,relearn,1001,502,B,86.03434760071937,61.632477552711684,4.301717380035968,0.9681206935106843,B,733,Correct
1,relearn,1001,503,B,81.99079438655171,67.91066081050727,4.099539719327586,1.0667381655135892,B,701,Correct
1,relearn,1001,504,A,54.902826998179364,65.9811329152227,2.7451413499089683,1.0364292122099765,B,541,Correct
1,relearn,1001,505,B,31.67904331096589,17.66008417576626,1.5839521655482947,0.27740395354182323,108,984,Correct
1,relearn,1001,506,B,42.7702352477403,22.44310070117575,2.138511762387015,0.35253540143294837,B,569,Incorrect
1,relearn,1001,507,B,49.47497281835478,25.720095311649544,2.473748640917739,0.40401031240353746,B,631,Incorrect
1,relearn,1001,508,B,50.38906466227686,41.5420962610497,2.519453233113843,0.6525417221421687,107,436,Incorrect
1,relearn,1001,509,B,75.21360515803863,47.38197027545826,3.760680257901931,0.7442742486499481,B,527,Correct
1,relearn,1001,510,B,34.6776605262136,10.799084940054584,1.73388302631068,0.16963162956583827,B,644,Incorrect
1,relearn,1001,511,B,46.45068752044156,32.793678728561844,2.322534376022078,0.5151219008891688,B,518,Correct
1,relearn,1001,512,B,75.44839637092969,46.220601999757925,3.772419818546484,0.726031518434686,B,375,Correct
1,relearn,1001,513,A,36.644616772655866,62.04650749221503,1.8322308386327932,0.9746242605922338,B,504,Correct
1,relearn,1001,514,A,29.91812784867718,61.454178690697,1.4959063924338591,0.9653199815354406,B,596,Correct
1,relearn,1001,515,B,75.62375289739002,63.52462745059947,3.781187644869501,0.9978425146041588,B,652,Incorrect
1,relearn,1001,516,B,85.56915527441471,67.56917601451705,4.278457763720735,1.061374134881612,107,640,Correct
1,relearn,1001,517,B,52.56398666541239,21.25846482646818,2.6281993332706195,0.33392718462714727,B,637,Correct
1,relearn,1001,518,B,53.9455943055693,37.145493109423526,2.6972797152784653,0.5834800413326762,B,522,Correct
1,relearn,1001,519,B,60.61926716312856,36.060923960454275,3.0309633581564284,0.5664436689791165,B,332,Correct
1,relearn,1001,520,B,39.30645648563044,21.98374265256995,1.965322824281522,0.3453198220786118,B,1001,Correct
1,relearn,1001,521,B,42.827403263455636,15.767296019917968,2.1413701631727817,0.24767210671574935,B,688,Incorrect
1,relearn,1001,522,B,56.0687258971685,34.14377413977343,2.803436294858425,0.5363291500167068,107,297,Correct
1,relearn,1001,523,B,41.06788373738783,18.848541012460963,2.0533941868693915,0.29607218987816636,107,2901,Correct
1,relearn,1001,524,A,27.69751381513899,56.890153620239055,1.3848756907569495,0.8936284433746889,A,603,Correct
1,relearn,1001,525,A,67.51714067625734,82.53963206584956,3.375857033812867,1.2965295086403874,107,249,Incorrect
1,relearn,1001,526,B,42.86426091240918,23.13851947241587,2.143213045620459,0.36345901394743035,107,59,Correct
1,relearn,1001,527,B,42.77054913565105,22.511259057129866,2.1385274567825525,0.3536060303846794,100,516,Incorrect
1,relearn,1001,528,B,54.300584585530714,25.55689090189993,2.715029229276536,0.4014467035300233,B,1730,Incorrect
1,relearn,1001,529,A,48.291618804151796,59.08583415920597,2.41458094020759,0.9281181126289316,A,848,Incorrect
1,relearn,1001,530,B,74.97413176930972,49.4437516396968,3.7487065884654864,0.7766606345859488,107,329,Correct
1,relearn,1001,531,B,76.34976637683738,55.08278047104514,3.817488318841869,0.8652382923356736,107,891,Incorrect
1,relearn,1001,532,B,45.79984156598087,31.067001903134337,2.2899920782990435,0.48799932473973473,B,350,Correct
1,relearn,1001,533,A,65.92621909192994,85.2241941778012,3.296310954596497,1.3386985116854513,A,750,Incorrect
1,relearn,1001,534,A,24.883307413777118,45.76513867278748,1.2441653706888558,0.7188771172247365,B,924,Correct
1,relearn,1001,535,A,46.73297746719682,76.09195641052102,2.3366488733598407,1.195249656282838,A,799,Incorrect
1,relearn,1001,536,A,58.75943617278058,83.12064949543898,2.9379718086390287,1.3056561090824164,A,539,Correct
1,relearn,1001,537,B,87.66491840081619,66.82615338785764,4.383245920040809,1.049702762754791,A,798,Correct
1,relearn,1001,538,A,19.063223206853223,43.51619484690985,0.9531611603426612,0.6835507902161699,100,1166,Correct
1,relearn,1001,539,A,64.80609612474902,89.39523912544931,3.240304806237451,1.404217132512072,A,815,Incorrect
1,relearn,1001,540,A,60.002635255160186,81.04977561270158,3.000131762758009,1.2731268981998223,A,942,Incorrect
1,relearn,1001,541,A,41.867975632813454,63.28149777779691,2.0933987816406727,0.9940234426344279,108,2676,Incorrect
1,relearn,1001,542,B,68.25582518128235,39.009882869723874,3.4127912590641176,0.6127658072046143,100,662,Incorrect
1,relearn,1001,543,A,30.34263476174623,51.92486398068253,1.5171317380873115,0.8156338561018076,100,420,Correct
1,relearn,1001,544,A,19.30657245312556,44.62560636082187,0.9653286226562782,0.7009773855257396,100,941,Incorrect
1,relearn,1001,545,B,56.65232407870455,28.8072699568866,2.8326162039352276,0.45250353833266443,B,770,Correct
1,relearn,1001,546,A,19.710260304864875,49.66059637197803,0.9855130152432438,0.7800668236754706,B,784,Incorrect
1,relearn,1001,547,A,23.47697447382211,43.994943402506316,1.1738487236911055,0.6910709549420628,107,374,Correct
1,relearn,1001,548,B,75.97118532741634,51.15650582620777,3.7985592663708165,0.803564514434689,100,688,Correct
1,relearn,1001,549,A,52.05296609316753,60.106805457315474,2.602648304658376,0.9441554922772659,100,603,Incorrect
1,relearn,1001,550,A,20.08091209138659,38.72534064284787,1.0040456045693296,0.6082962283566655,100,287,Incorrect
1,relearn,1001,551,A,23.915795929708,38.45636132184775,1.1957897964854,0.6040711110625578,100,322,Incorrect
1,relearn,1001,552,A,17.566179101130384,46.98047844048844,0.8783089550565193,0.7379676296538606,100,671,Correct
1,relearn,1001,553,A,39.63041555674833,47.07778846550113,1.9815207778374166,0.7394961719523633,B,565,Incorrect
1,relearn,1001,554,A,46.519030602581736,69.76699422607643,2.3259515301290867,1.0958973826184162,100,334,Correct
1,relearn,1001,555,B,58.36577187387558,34.83116432698001,2.918288593693779,0.5471266498280963,100,705,Correct
1,relearn,1001,556,B,50.50391363370004,20.62432016200746,2.525195681685002,0.3239660635312325,107,668,Incorrect
1,relearn,1001,557,A,58.56313828439458,72.28885643615118,2.9281569142197292,1.135510701581099,107,480,Correct
1,relearn,1001,558,A,17.58646064567138,45.36609893392926,0.879323032283569,0.7126090156642995,107,1562,Correct
1,relearn,1001,559,A,56.91911710694741,67.37512847958578,2.8459558553473703,1.0583260433306758,107,4972,Correct
1,relearn,1001,560,A,45.73472649106312,73.02500886686184,2.2867363245531562,1.147074156922313,107,507,Incorrect
1,relearn,1001,561,A,33.780812125217246,57.544723795133045,1.6890406062608623,0.9039104076382187,107,630,Incorrect
1,relearn,1001,562,A,42.86467107944229,73.45185459438652,2.143233553972115,1.1537790339313518,107,866,Incorrect
1,relearn,1001,563,A,31.00673433177007,59.90324908902659,1.5503367165885036,0.940958036321227,107,315,Correct
1,relearn,1001,564,A,43.097706096340964,57.992455484023736,2.154885304817048,0.9109433605612105,107,389,Incorrect
1,relearn,1001,565,A,20.471504308987114,40.88755244250381,1.0235752154493556,0.6422601718831867,100,441,Incorrect
1,relearn,1001,566,B,60.010358975220576,46.686871413425564,3.0005179487610287,0.7333556612575453,A,535,Incorrect
1,relearn,1001,567,A,39.29281832775763,71.4410679865477,1.9646409163878815,1.122193671755736,107,92,Incorrect
1,relearn,1001,568,A,25.47858445994223,55.81595159395982,1.2739292229971115,0.8767549174035384,100,417,Correct
1,relearn,1001,569,B,75.46030798773081,45.23229504817057,3.7730153993865407,0.7105072291416932,100,1679,Correct
1,relearn,1001,570,A,29.675025931323503,51.13140181462488,1.483751296566175,0.8031701815428666,100,4313,Incorrect
1,relearn,1001,571,B,46.17888357170893,21.862656152418165,2.3089441785854463,0.343417799781983,B,252,Correct
1,relearn,1001,572,A,51.15129594356743,80.48978843303126,2.557564797178372,1.2643306401510388,A,932,Correct
1,relearn,1001,573,B,62.024547485069405,47.47409919256725,3.1012273742534706,0.7457214062958122,B,508,Incorrect
1,relearn,1001,574,B,41.134779183304886,13.884703027704273,2.0567389591652443,0.2181004051455585,107,620,Incorrect
1,relearn,1001,575,B,38.992964307907584,16.223519453966386,1.9496482153953791,0.25483844765975944,100,717,Incorrect
1,relearn,1001,576,B,32.00763458156554,16.473784627053625,1.600381729078277,0.2587696038058607,B,1345,Incorrect
1,relearn,1001,577,A,42.085875476431625,72.80476352765203,2.1042937738215812,1.1436145512240685,A,24319,Correct
1,relearn,1001,578,B,55.62772211521413,37.68724235414394,2.7813861057607063,0.5919898185691836,B,932,Incorrect
1,relearn,1001,579,B,35.53743606852714,21.74495961521189,1.776871803426357,0.34156902689878205,B,753,Incorrect
1,relearn,1001,580,B,45.29216852815991,34.26331671447968,2.2646084264079955,0.5382069203891486,B,516,Incorrect
1,relearn,1001,581,B,60.49740336964576,36.568338530775236,3.024870168482288,0.5744141184113403,B,692,Correct
1,relearn,1001,582,B,84.77584876108308,61.4673897317995,4.238792438054154,0.9655275000838099,A,547,Correct
1,relearn,1001,583,B,44.627533487614144,21.437385306383476,2.231376674380707,0.3367376609535405,B,699,Incorrect
1,relearn,1001,584,A,50.782781661628974,74.44021875092119,2.539139083081449,1.169304221797556,A,519,Correct
1,relearn,1001,585,B,67.05373846663177,49.157642160677845,3.352686923331589,0.772166437398907,B,604,Incorrect
1,relearn,1001,586,B,44.90424735666437,32.245650290191996,2.2452123678332185,0.5065134903094638,A,786,Incorrect
1,relearn,1001,587,B,46.457272485479855,27.011379909042198,2.322863624273993,0.42429376342784947,B,912,Incorrect
1,relearn,1001,588,B,74.28937697196037,42.89124045299485,3.714468848598018,0.6737340295524099,A,1378,Incorrect
1,relearn,1001,589,B,69.37051612883147,45.838391652891296,3.4685258064415736,0.720027772345475,A,441,Correct
1,relearn,1001,590,A,10.926850826136633,32.31599917482558,0.5463425413068316,0.5076185280052292,A,2716,Incorrect
1,relearn,1001,591,A,48.6483249825167,65.83003898118834,2.432416249125835,1.0340558342441548,A,893,Correct
1,relearn,1001,592,A,62.44384503917664,84.17380327706792,3.1221922519588317,1.3221990099997454,A,475,Incorrect
1,relearn,1001,593,A,46.67788214527333,75.95001504154853,2.3338941072636663,1.1930200464728158,A,405,Incorrect
1,relearn,1001,594,B,75.29909510285736,54.9703899349492,3.764954755142868,0.8634728659230136,100,2756,Incorrect
1,relearn,1001,595,B,52.116410061553445,21.54151591108536,2.6058205030776724,0.338373340667267,100,554,Correct
1,relearn,1001,596,A,51.70989629504329,81.71311714911063,2.5854948147521646,1.2835466426878406,A,1657,Correct
1,relearn,1001,597,A,65.17649098872543,88.40407957517164,3.2588245494362718,1.3886480347036334,A,1275,Incorrect
1,relearn,1001,598,B,47.75920658629246,30.383073964629205,2.3879603293146228,0.47725620980377204,B,2302,Correct
1,relearn,1001,599,A,54.68602888818873,67.43368410693986,2.7343014444094367,1.0592458329742853,A,1899,Incorrect
1,relearn,1001,600,A,38.40021459730813,70.21526294570904,1.9200107298654063,1.1029387712005758,A,1033,Correct
1,relearn,1001,601,B,50.76545098599687,20.14237515878687,2.5382725492998435,0.3163956891234719,B,1576,Correct
1,relearn,1001,602,A,32.212579336000324,55.96543112172961,1.6106289668000162,0.8791029363350567,A,630,Correct
1,relearn,1001,603,A,38.80618548679003,50.432479645323205,1.9403092743395012,0.7921915377803207,A,737,Correct
1,relearn,1001,604,A,20.96253237550665,45.72066235386663,1.0481266187753326,0.7181784848408341,A,499,Correct
1,relearn,1001,605,B,42.156783266799664,16.77480313094946,2.107839163339983,0.26349799140802943,B,651,Correct
1,relearn,1001,606,A,16.303290438158097,45.615678549715085,0.8151645219079049,0.7165294031014922,A,515,Correct
1,relearn,1001,607,A,31.667793043360362,51.85283714228992,1.583389652168018,0.8145024611700298,A,778,Correct
1,relearn,1001,608,A,29.266189996676005,59.17925642080909,1.4633094998338003,0.9295855860826022,A,850,Correct
1,relearn,1001,609,B,31.298961482396003,11.093965618105337,1.5649480741198003,0.17426360442508734,B,549,Correct
1,relearn,1001,610,B,71.97720413294311,47.45070827787556,3.598860206647156,0.7453539826670313,A,2194,Incorrect
1,relearn,1001,611,A,46.5844520727663,70.06941587539308,2.3292226036383146,1.1006478107773146,A,794,Correct
1,relearn,1001,612,A,36.75845867629208,60.693434835057616,1.8379229338146041,0.9533702449947392,A,1128,Correct
1,relearn,1001,613,B,46.341029343306715,30.596863338032115,2.317051467165336,0.4806144054282628,B,534,Correct
1,relearn,1001,614,A,50.24819407393467,65.47480894948507,2.512409703696733,1.0284758939544878,A,595,Correct
1,relearn,1001,615,B,44.14331484892289,24.44093937710649,2.207165742446145,0.3839173779697561,B,542,Correct
1,relearn,1001,616,A,44.21863270124153,64.8194093533032,2.2109316350620762,1.0181809011718344,A,700,Correct
1,relearn,1001,617,B,32.18158608612484,13.01786225132859,1.609079304306242,0.2044841020710889,B,661,Correct
1,relearn,1001,618,B,41.322542938270374,33.03802173898402,2.0661271469135185,0.5189600319216604,B,731,Correct
1,relearn,1001,619,B,67.17080720012821,33.8396932406941,3.35854036000641,0.5315526584234839,B,757,Correct
1,relearn,1001,620,A,27.609263250377168,49.99222393158359,1.3804631625188586,0.7852760172003943,A,726,Correct
1,relearn,1001,621,A,29.532885885579446,53.06136027874546,1.4766442942789724,0.83348589820594,A,602,Correct
1,relearn,1001,622,B,53.21838246953183,22.08172027830815,2.6609191234765914,0.34685885102478825,B,574,Correct
1,relearn,1001,623,B,37.132828412707426,11.23984543380583,1.8566414206353712,0.17655507921164587,B,657,Correct
1,relearn,1001,624,B,76.66545373291268,61.4346393133347,3.833272686645634,0.9650130577135548,A,641,Incorrect
1,relearn,1001,625,A,59.581317768932166,68.21169690401719,2.9790658884466086,1.0714668294127703,A,756,Correct
1,relearn,1001,626,B,62.299751941799705,39.59444300047175,3.114987597089985,0.6219480562663093,B,717,Correct
1,relearn,1001,627,A,43.55916737857033,51.379803983444205,2.1779583689285165,0.8070720736863594,A,6363,Correct
1,relearn,1001,628,B,77.4775499637297,59.6088670966834,3.873877498186485,0.9363338947987545,A,948,Incorrect
1,relearn,1001,629,B,59.812970536649466,27.765465927895995,2.9906485268324734,0.43613891891287887,B,576,Correct
1,relearn,1001,630,A,36.995090628202995,67.33939481277864,1.8497545314101498,1.0577647402050399,A,531,Correct
1,relearn,1001,631,B,76.17388862507258,61.80041252310561,3.808694431253629,0.9707586098570361,A,471,Incorrect
1,relearn,1001,632,A,41.401523276871515,73.06925976137576,2.0700761638435754,1.1477692483479118,A,543,Correct
1,relearn,1001,633,A,42.403862490428025,59.19212772713881,2.120193124521401,0.9297877680896399,B,566,Incorrect
1,relearn,1001,634,B,65.69857879265035,40.30246446571163,3.2849289396325174,0.6330696314352167,B,1511,Correct
1,relearn,1001,635,B,73.70271378636991,62.770900698376465,3.685135689318496,0.9860030024661697,B,642,Correct
1,relearn,1001,636,A,61.667356421284794,82.50698259719947,3.0833678210642397,1.2960166519861136,A,831,Correct
1,relearn,1001,637,A,27.269236333936682,51.65730730428611,1.363461816696834,0.8114310856568779,B,1120,Incorrect
1,relearn,1001,638,B,65.37010692629458,52.6210934046536,3.268505346314729,0.8265702023196103,B,1589,Correct
1,relearn,1001,639,B,65.74500054875737,57.57106434537637,3.287250027437869,0.9043241640338985,B,621,Correct
1,relearn,1001,640,B,69.23274566403659,41.36527780098314,3.4616372832018296,0.6497642642663479,B,534,Correct
1,relearn,1001,641,B,36.02846033967582,15.920546890725472,1.8014230169837908,0.25007936576517487,B,572,Correct
1,relearn,1001,642,B,53.09727743514033,40.39689657983287,2.654863871757016,0.6345529676151479,B,783,Correct
1,relearn,1001,643,B,54.84719904039309,37.84593720833083,2.7423599520196547,0.5944825915095636,B,603,Correct
1,relearn,1001,644,B,69.05661306823364,48.11388410002039,3.4528306534116826,0.755771124121474,B,1292,Correct
1,relearn,1001,645,B,58.69436354837612,48.421469565956954,2.934718177418806,0.7606026653221606,B,509,Correct
1,relearn,1001,646,A,27.217108113044603,46.73558142405603,1.3608554056522302,0.73412079631531,A,711,Correct
1,relearn,1001,647,B,71.23802746443974,38.0136351689329,3.561901373221987,0.5971167849148109,B,688,Correct
1,relearn,1001,648,A,55.13048176286813,68.30977899615107,2.7565240881434065,1.0730074993132528,A,707,Correct
1,relearn,1001,649,A,53.570054048042365,76.29443789672598,2.6785027024021186,1.1984302280305852,A,541,Correct
1,relearn,1001,650,B,49.9800242305449,42.73540672441543,2.499001211527245,0.6712861990679768,B,701,Correct
1,relearn,1001,651,A,18.652454722715984,33.61689595283573,0.9326227361357993,0.528052966809606,A,643,Correct
1,relearn,1001,652,B,70.2738676581488,53.991300316864795,3.51369338290744,0.8480933621661135,B,908,Correct
1,relearn,1001,653,B,77.17889962916418,48.34197469651685,3.8589449814582086,0.759353962833005,B,636,Correct
1,relearn,1001,654,B,37.08708525897433,16.971064601596847,1.8543542629487164,0.26658085937987225,B,1803,Correct
1,relearn,1001,655,B,65.83064366280122,33.98471930170942,3.291532183140061,0.5338307224628078,B,958,Correct
1,relearn,1001,656,A,55.360611498194146,65.36453371594494,2.7680305749097074,1.0267436946366748,A,569,Correct
1,relearn,1001,657,A,28.928379756379044,49.010149327736315,1.4464189878189524,0.7698496253967758,A,991,Correct
1,relearn,1001,658,A,56.54376653076411,67.11326524899673,2.8271883265382054,1.0542127053233563,A,924,Correct
1,relearn,1001,659,A,50.83123665215324,74.05845862325802,2.5415618326076617,1.1633075477350552,A,431,Correct
1,relearn,1001,660,A,36.10688057864524,62.49312846269297,1.805344028932262,0.9816397663911972,A,838,Correct
1,relearn,1001,661,A,42.790233646760186,54.20728224154712,2.1395116823380094,0.8514859983055645,A,717,Correct
1,relearn,1001,662,A,19.24932736820975,32.02357796000264,0.9624663684104875,0.5030251863040216,A,765,Correct
1,relearn,1001,663,B,72.97578746125981,61.689954836366,3.6487893730629906,0.9690235445710678,A,889,Incorrect
1,relearn,1001,664,A,13.788447193798685,41.14465585252243,0.6894223596899343,0.6462987428038238,A,775,Correct
1,relearn,1001,665,A,36.889987976033886,54.20635924602649,1.8444993988016944,0.8514714999258298,A,428,Correct
1,relearn,1001,666,A,46.456156767929784,58.01713848710507,2.322807838396489,0.9113310802669545,B,1378,Incorrect
1,relearn,1001,667,B,74.80045000810708,50.430305742713244,3.740022500405354,0.7921573901979754,B,725,Correct
1,relearn,1001,668,B,81.52270435303822,63.56956310080626,4.076135217651911,0.9985483621470288,A,842,Incorrect
1,relearn,1001,669,B,79.48177055562375,50.03035055678487,3.9740885277811877,0.7858749088285868,B,770,Correct
1,relearn,1001,670,A,63.59664516048046,89.29007288037039,3.1798322580240233,1.4025651849973442,A,1121,Correct
1,relearn,1001,671,A,28.504944616740943,50.61557993190614,1.4252472308370472,0.7950676703563164,B,894,Incorrect
1,relearn,1001,672,B,76.30564909356987,62.66435021129167,3.8152824546784934,0.9843293113288596,A,788,Incorrect
1,relearn,1001,673,B,68.33156691493318,42.63782369610798,3.416578345746659,0.6697533684437481,B,739,Correct
1,relearn,1001,674,A,31.593892493698654,56.57186014735536,1.5796946246849328,0.8886287011942039,A,655,Correct
1,relearn,1001,675,A,65.30788626634344,77.78920440719847,3.265394313317172,1.2219099654712473,A,681,Correct
1,relearn,1001,676,B,44.23982720073798,22.297490364913518,2.211991360036899,0.3502481596195075,B,1028,Correct
1,relearn,1001,677,A,46.52064063387194,77.18538425888022,2.326032031693597,1.2124251807610167,A,595,Correct
1,relearn,1001,678,B,39.699993376113085,30.549936866942588,1.9849996688056541,0.47987728614409403,108,2351,Correct
1,relearn,1001,679,A,33.29130557358979,42.80572377934158,1.6645652786794896,0.6723907367838671,A,772,Correct
1,relearn,1001,680,A,12.066283095074123,38.04999002587357,0.6033141547537062,0.5976878456722464,A,539,Correct
1,relearn,1001,681,A,35.00894728270419,62.25853666547911,1.7504473641352094,0.9779548070575999,A,815,Correct
1,relearn,1001,682,A,58.290112895276735,76.58750333785942,2.9145056447638367,1.2030336892150149,A,563,Correct
1,relearn,1001,683,B,83.28722144465152,64.75000314087326,4.164361072232577,1.0170906709364171,A,610,Incorrect
1,relearn,1001,684,B,73.5514967248753,49.83835808815446,3.6775748362437652,0.7828590981836173,B,2450,Correct
1,relearn,1001,685,B,41.75566407704597,16.59247765117236,2.0877832038522985,0.26063402946887954,B,754,Correct
1,relearn,1001,686,A,47.756369436716575,56.69421415385144,2.387818471835829,0.8905506334339307,A,609,Correct
1,relearn,1001,687,A,51.5611683370193,71.39083304196173,2.5780584168509653,1.1214045830914123,A,457,Correct
1,relearn,1001,688,B,53.19226756337247,27.495621571315006,2.6596133781686233,0.43190021367164133,B,1111,Correct
1,relearn,1001,689,B,52.73620953483294,22.885332968934634,2.6368104767416467,0.3594819696508067,B,462,Correct
1,relearn,1001,690,B,57.43962949758831,47.576120430875825,2.8719814748794152,0.7473239521597138,A,1023,Incorrect
1,relearn,1001,691,B,55.60837787786782,37.64809236261795,2.780418893893391,0.5913748519403528,B,555,Correct
1,relearn,1001,692,B,83.61279570678032,62.93140409070479,4.180639785339016,0.988524183857244,B,778,Correct
1,relearn,1001,693,B,49.49669973458187,22.34378313690239,2.474834986729093,0.3509753247814802,A,904,Incorrect
1,relearn,1001,694,A,41.5690563709246,63.040602206800315,2.0784528185462303,0.9902394638538018,A,548,Correct
1,relearn,1001,695,B,84.9030455583853,59.84957657560727,4.245152277919265,0.9401149504519379,B,1535,Correct
1,relearn,1001,696,B,55.95663973152455,45.92141340134268,2.7978319865762273,0.7213318749205903,A,1654,Incorrect
1,relearn,1001,697,A,12.632266241580137,36.77140968821662,0.6316133120790068,0.5776039526932094,B,338,Incorrect
1,relearn,1001,698,B,72.7830578081978,56.718757386123144,3.6391528904098895,0.8909361576249315,A,498,Incorrect
1,relearn,1001,699,B,41.830279704395764,22.216228189653123,2.0915139852197884,0.34897169635544356,B,1605,Correct
1,relearn,1001,700,A,41.441192082796235,64.24627327411089,2.072059604139812,1.0091781006923453,A,760,Correct
1,relearn,1001,701,B,81.83832279877339,56.3433307088992,4.09191613993867,0.8850389691692895,B,1400,Correct
1,relearn,1001,702,A,43.75861709564435,61.57340165232727,2.1879308547822176,0.9671927314374249,A,698,Correct
1,relearn,1001,703,A,63.771769454239134,86.46339241760947,3.1885884727119564,1.3581637921180667,A,509,Correct
1,relearn,1001,704,B,65.34016768352697,35.16285793303582,3.267008384176348,0.5523368808082346,B,813,Correct
1,relearn,1001,705,A,67.60566047987251,84.50148393495769,3.3802830239936257,1.327346205737495,A,714,Correct
1,relearn,1001,706,B,32.29136076306112,18.201229199221405,1.6145680381530558,0.28590423969288997,107,822,Incorrect
1,relearn,1001,707,B,47.25206187237139,27.83642852256365,2.36260309361857,0.43725359674331665,B,621,Correct
1,relearn,1001,708,A,49.219654194704454,59.12408193257047,2.4609827097352226,0.928718907248022,A,790,Correct
1,relearn,1001,709,B,41.7454365697745,33.15860992666212,2.0872718284887246,0.5208542267442566,B,722,Correct
1,relearn,1001,710,A,56.99506582552709,74.75972985756682,2.849753291276355,1.1743230905244473,1073741902,764,Correct
1,relearn,1001,711,A,50.35119814394186,57.66518281297431,2.517559907197093,0.9058025734657625,A,1127,Correct
1,relearn,1001,712,B,46.00779405873131,19.063323961027066,2.300389702936565,0.29944599254482457,B,620,Correct
1,relearn,1001,713,B,59.55183212647479,44.892697117205344,2.9775916063237395,0.7051728373162198,B,576,Correct
1,relearn,1001,714,A,29.264971873375977,40.95330037655014,1.4632485936687987,0.6432929380161301,A,503,Correct
1,relearn,1001,715,B,44.69940920483075,22.23988185522365,2.2349704602415374,0.3493432472653778,B,791,Correct
1,relearn,1001,716,A,42.38679608987442,58.7761272516234,2.119339804493721,0.9232532479007945,A,357,Correct
1,relearn,1001,717,A,35.10938624251589,53.217439174412746,1.7554693121257943,0.8359375797659838,A,344,Correct
1,relearn,1001,718,A,29.34186777608761,52.57082127608352,1.4670933888043804,0.8257805295706301,A,361,Correct
1,relearn,1001,719,A,35.24355609512083,54.85179586020968,1.7621778047560415,0.8616099945532086,A,375,Correct
1,relearn,1001,720,B,43.4302219620948,31.376870931720482,2.17151109810474,0.49286673605864095,B,604,Correct
1,relearn,1001,721,A,17.157002690346893,35.52664879178534,0.8578501345173447,0.5580512942546877,A,575,Correct
1,relearn,1001,722,A,44.3983143886878,62.71019881417076,2.21991571943439,0.9850494994987712,A,513,Correct
1,relearn,1001,723,A,37.91876282448084,68.25000620098311,1.895938141224042,1.0720685904423317,A,378,Correct
1,relearn,1001,724,B,45.61173828658258,36.90879649808414,2.280586914329129,0.5797620196561091,107,958,Incorrect
1,relearn,1001,725,B,72.3220658150099,41.9809908435227,3.6161032907504955,0.6594358621221564,B,595,Correct
1,relearn,1001,726,A,49.86890746836909,58.52036416112151,2.4934453734184543,0.919235730669894,A,704,Correct
1,relearn,1001,727,A,26.16428554257984,45.30254076589884,1.3082142771289922,0.7116106462954996,A,459,Correct
1,relearn,1001,728,A,48.15379220669505,63.44263307076276,2.4076896103347525,0.9965545498975058,A,530,Correct
1,relearn,1001,729,A,34.75234671443856,67.28778755571871,1.7376173357219278,1.056954095306783,A,555,Correct
1,relearn,1001,730,B,86.02585352737876,57.97876005635783,4.301292676368938,0.9107282332864954,B,959,Correct
1,relearn,1001,731,A,55.68122060539345,63.6024231962338,2.7840610302696724,0.9990645273189857,B,1000,Incorrect
1,relearn,1001,732,B,52.60467247147016,40.16950832407909,2.630233623573508,0.6309811612462046,B,610,Correct
1,relearn,1001,733,B,79.87558808553584,53.34097593629863,3.9937794042767916,0.8378780906839286,B,577,Correct
1,relearn,1001,734,A,41.105016024487504,52.699473405276244,2.0552508012243753,0.8278013924903326,B,453,Incorrect
1,relearn,1001,735,A,19.99677124837339,35.178830557586394,0.9998385624186694,0.5525877782079677,A,602,Correct
1,relearn,1001,736,A,13.788663881270185,36.286457801946725,0.6894331940635092,0.5699863462769593,A,513,Correct
1,relearn,1001,737,B,43.37524154627755,26.321262317721043,2.1687620773138776,0.41345342165281135,A,1025,Incorrect
1,relearn,1001,738,A,28.762650406070435,43.9372890917299,1.4381325203035218,0.690165323146148,A,540,Correct
1,relearn,1001,739,B,40.84287613956984,17.273497797553354,2.0421438069784923,0.2713314689129654,A,538,Incorrect
1,relearn,1001,740,A,52.02599367338893,78.62393626640487,2.6012996836694464,1.2350219028542484,A,2418,Correct
1,relearn,1001,741,A,23.950638518253232,50.88099134564112,1.1975319259126616,0.7992367430941598,A,410,Correct
1,relearn,1001,742,A,52.964638963984626,78.29830067447475,2.648231948199231,1.229906830937473,A,365,Correct
1,relearn,1001,743,A,30.67053382234983,52.458787142566095,1.5335266911174914,0.8240207015165816,A,339,Correct
1,relearn,1001,744,B,61.051674074738685,48.28599378544317,3.0525837037369343,0.7584746167381533,A,348,Incorrect
1,relearn,1001,745,B,42.241212347665396,14.505203375119716,2.11206061738327,0.22784720181050985,A,563,Incorrect
1,relearn,1001,746,B,50.490881411371326,36.02041158975145,2.5245440705685662,0.565807302148219,A,422,Incorrect
1,relearn,1001,747,B,47.316942526289694,25.636159294478524,2.3658471263144847,0.40269184852895723,A,476,Incorrect
1,relearn,1001,748,A,51.78417774894652,65.16229182263127,2.5892088874473256,1.0235668864052632,A,509,Correct
1,relearn,1001,749,A,58.28017919819006,71.5867625672952,2.914008959909503,1.1244822368784568,A,823,Correct
1,relearn,1001,750,A,28.09930595315263,41.230642944614615,1.4049652976576315,0.6476494248879257,A,1044,Correct
1,relearn,1001,751,A,36.505828648994274,66.18272529776577,1.8252914324497138,1.0395958179500615,A,513,Correct
1,relearn,1001,752,B,35.86592356361304,23.97149168832159,1.7932961781806518,0.3765433109180994,B,1489,Correct
1,relearn,1001,753,A,38.683282905069134,64.64188592547879,1.9341641452534566,1.015392369688368,A,920,Correct
1,relearn,1001,754,B,65.53603635735422,51.066604989670935,3.2768018178677107,0.8021523553966103,B,1427,Correct
1,relearn,1001,755,B,42.72055114705135,14.008591621224927,2.136027557352568,0.22004644262189876,A,439,Incorrect
1,relearn,1001,756,B,42.0648221168138,19.637639875798133,2.1032411058406897,0.308467325838247,B,606,Correct
1,relearn,1001,757,B,52.40502261929895,42.88779016093639,2.6202511309649474,0.673679832491492,B,906,Correct
1,relearn,1001,758,A,40.97284350766742,63.24214875454125,2.048642175383371,0.9934053496224984,A,692,Correct
1,relearn,1001,759,B,37.411257765767786,12.672042045219069,1.8705628882883893,0.19905197097620603,B,495,Correct
1,relearn,1001,760,A,26.5950450707172,43.92321356927943,1.3297522535358601,0.6899442253565189,A,662,Correct
1,relearn,1001,761,B,57.56588606909524,38.79748221228901,2.878294303454762,0.6094294254795392,B,517,Correct
1,relearn,1001,762,A,36.852575318265444,55.11397338521273,1.8426287659132723,0.8657282694856383,A,582,Correct
1,relearn,1001,763,B,58.85936692551315,32.93315645603294,2.9429683462756575,0.5173128119089817,B,539,Correct
1,relearn,1001,764,B,64.79027917419361,38.906930422461485,3.239513958709681,0.6111486339446711,B,713,Correct
1,relearn,1001,765,B,48.36898255563102,30.047593265637204,2.418449127781551,0.47198649130689996,107,3052,Incorrect
1,relearn,1001,766,B,46.029984226536634,29.286987515859963,2.3014992113268318,0.46003892412800823,B,1227,Correct
1,relearn,1001,767,B,71.7189976048843,41.737598681977815,3.5859498802442147,0.6556126669889027,B,392,Correct
1,relearn,1001,768,B,76.64787136910545,46.02359937668716,3.8323935684552723,0.7229370084678008,B,405,Correct
1,relearn,1001,769,B,63.124744219815916,45.330903405664216,3.156237210990796,0.7120561655991161,B,418,Correct
1,relearn,1001,770,B,48.443316968368315,30.57218684428486,2.4221658484184156,0.48022678797089924,B,708,Correct
1,relearn,1001,771,B,51.83552742551025,31.68718799335802,2.5917763712755124,0.49774118506426124,B,406,Correct
1,relearn,1001,772,B,59.262551703456474,48.4785484570973,2.9631275851728236,0.7614992584475684,B,1267,Correct
1,relearn,1001,773,A,39.04517185717099,55.772849226476886,1.9522585928585496,0.8760778669983547,A,919,Correct
1,relearn,1001,774,B,36.8728378172824,27.475466219246904,1.8436418908641201,0.4315836141417031,A,475,Incorrect
1,relearn,1001,775,A,58.48809547584749,74.99995724178615,2.9244047737923746,1.1780965734517197,A,719,Correct
1,relearn,1001,776,B,48.3540421977127,41.152421001149285,2.417702109885635,0.6464207174732246,B,815,Correct
1,relearn,1001,777,B,84.02497573881455,55.40200387878004,4.201248786940727,0.8702526418986432,B,548,Correct
1,relearn,1001,778,B,79.14919476599344,47.8074667132032,3.957459738299672,0.7509579310646888,B,756,Correct
1,relearn,1001,779,A,44.96500384077541,54.52298317300212,2.2482501920387703,0.8564450169405168,B,588,Incorrect
1,relearn,1001,780,A,27.711206621255872,48.67944699356601,1.3855603310627935,0.7646549652790037,A,745,Correct
1,relearn,1001,781,B,39.217239956157414,21.41554757949113,1.9608619978078707,0.33639463474166004,B,532,Correct
1,relearn,1001,782,B,51.17451970988016,35.50651246042091,2.5587259854940076,0.5577349935012639,B,437,Correct
1,relearn,1001,783,B,42.578405038707,19.05035932394499,2.12892025193535,0.29924234450175696,B,652,Correct
1,relearn,1001,784,B,71.8211765295039,48.4570755747628,3.591058826475195,0.7611619632006009,A,461,Incorrect
1,relearn,1001,785,A,25.161495594021467,35.44393276819918,1.2580747797010732,0.5567519939945255,A,1230,Correct
1,relearn,1001,786,A,20.406742295529313,50.81426274602061,1.0203371147764657,0.7981885727023993,A,451,Correct
1,relearn,1001,787,A,26.248074875064077,57.12212771484283,1.312403743753204,0.8972722839318408,A,801,Correct
1,relearn,1001,788,B,65.02574500767562,51.47820523154865,3.251287250383781,0.8086177568771045,B,503,Correct
1,relearn,1001,789,A,58.65684652276846,85.64366477651964,2.932842326138423,1.3452875404421054,A,499,Correct
1,relearn,1001,790,A,53.97390319976273,62.97845501386965,2.6986951599881364,0.9892632580300409,B,1720,Incorrect
1,relearn,1001,791,B,52.224756745705875,24.79905699464995,2.6112378372852936,0.38954267635173423,B,677,Correct
1,relearn,1001,792,B,65.82257337724805,57.76449387413258,3.2911286688624024,0.9073625479665376,B,685,Correct
1,relearn,1001,793,A,64.84905948406977,89.54915435867471,3.242452974203488,1.4066348273419544,A,600,Correct
1,relearn,1001,794,B,79.90993487986789,49.364169231336625,3.995496743993394,0.7754105570386522,B,586,Correct
1,relearn,1001,795,A,31.782411602485162,53.98892850000308,1.589120580124258,0.8480561057539712,A,1199,Correct
1,relearn,1001,796,B,48.24032287772599,25.13947816051449,2.4120161438862993,0.3948899995207668,B,606,Correct
1,relearn,1001,797,A,30.575459127559526,41.27267077433255,1.5287729563779764,0.6483095964933666,B,468,Incorrect
1,relearn,1001,798,B,33.2137588227982,11.729353110037511,1.6606879411399098,0.18424424780927223,B,589,Correct
1,relearn,1001,799,A,35.20541086712624,58.68123154998822,1.760270543356312,0.9217626297052228,A,603,Correct
1,relearn,1001,800,B,38.54536030143481,12.771351834216155,1.9272680150717405,0.20061192549392,B,510,Correct
1,relearn,1001,801,A,32.92875430080205,43.581672036691145,1.6464377150401024,0.684579303508143,B,503,Incorrect
1,relearn,1001,802,B,66.34795627737523,38.76834989146605,3.317397813868762,0.608971816054142,B,515,Correct
1,relearn,1001,803,A,34.32904156392132,66.05133746430651,1.7164520781960662,1.037531982688228,A,415,Correct
1,relearn,1001,804,B,64.50060698348776,51.47730035159212,3.2250303491743875,0.8086035430559855,B,547,Correct
1,relearn,1001,805,B,74.44417558353841,47.85797056865187,3.7222087791769205,0.7517512437709664,B,649,Correct
1,relearn,1001,806,B,85.71039693522775,58.191592339563655,4.285519846761388,0.9140713949733261,B,624,Correct
1,relearn,1001,807,B,54.941414324140354,41.57752632363613,2.7470707162070176,0.6530982562638575,B,442,Correct
1,relearn,1001,808,B,49.18032129177227,19.919540361510617,2.4590160645886137,0.31289540831303564,B,527,Correct
1,relearn,1001,809,A,25.868419082716844,45.82615937035722,1.2934209541358421,0.7198356281007464,A,1342,Correct
1,relearn,1001,810,B,52.98962071137351,29.655646036944585,2.6494810355686758,0.4658297986356218,B,551,Correct
1,relearn,1001,811,A,36.76664166854298,54.90026544533835,1.838332083427149,0.8623713530160226,A,482,Correct
1,relearn,1001,812,A,39.83281186629734,52.836081942671,1.9916405933148669,0.8299472343778177,A,433,Correct
1,relearn,1001,813,A,14.06878464702023,39.95632494558467,0.7034392323510116,0.6276324845674769,A,1028,Correct
1,relearn,1001,814,A,65.5790790997182,88.77402821157881,3.2789539549859104,1.3944591742953452,B,496,Incorrect
1,relearn,1001,815,A,65.49299994438304,80.06547126081797,3.274649997219152,1.2576654815959523,A,355,Correct
1,relearn,1001,816,B,85.54267044992503,56.81537051273295,4.277133522496252,0.8924537530689199,B,516,Correct
1,relearn,1001,817,B,84.82376223778557,64.96050518931413,4.2411881118892785,1.0203972293811545,B,449,Correct
1,relearn,1001,818,B,61.61782407582283,36.0492156693917,3.0808912037911416,0.5662597555731751,B,377,Correct
1,relearn,1001,819,B,51.60355387622411,27.25680538986558,2.5801776938112058,0.4281488978656419,B,463,Correct
1,relearn,1001,820,B,62.57059038471156,54.30279057844317,3.128529519235578,0.8529862397533106,A,1242,Incorrect
1,relearn,1001,821,A,26.563980283069967,36.30653851712634,1.3281990141534983,0.5703017734133948,B,401,Incorrect
1,relearn,1001,822,B,59.862883162101966,48.04290068912334,2.9931441581050984,0.7546561193104695,107,516,Correct
1,relearn,1001,823,B,70.01245070829769,53.54846724454402,3.5006225354148848,0.8411373565322658,B,521,Correct
1,relearn,1001,824,B,54.19400932153133,45.60557951775589,2.709700466076567,0.7163707678784353,B,635,Correct
1,relearn,1001,825,B,58.33361872160837,43.83290586219518,2.9166809360804185,0.6885256752108269,B,427,Correct
1,relearn,1001,826,A,38.87635926011469,50.19779087374128,1.9438179630057346,0.7885050551769118,107,578,Correct
1,relearn,1001,827,B,32.53203524391503,19.299947060221267,1.6266017621957516,0.3031628594953153,107,564,Incorrect
1,relearn,1001,828,A,37.663908278588444,59.96022289478029,1.8831954139294222,0.9418529787692413,A,447,Correct
1,relearn,1001,829,B,50.264371233711294,41.67465998089512,2.513218561685565,0.6546240281841633,A,409,Incorrect
1,relearn,1001,830,A,53.35165193712879,80.8702199177605,2.6675825968564397,1.2703064439391365,A,1339,Correct
1,relearn,1001,831,B,64.92686495388077,48.46873123555923,3.2463432476940386,0.761345049892255,B,588,Correct
1,relearn,1001,832,A,47.99254412693271,76.9202835398264,2.399627206346635,1.2082609884038125,A,598,Correct
1,relearn,1001,833,A,24.28413483896717,55.9304944309301,1.2142067419483584,0.8785541520792741,A,595,Correct
1,relearn,1001,834,A,14.251880158802198,40.34699173773794,0.7125940079401099,0.6337690641886279,A,402,Correct
1,relearn,1001,835,A,25.617271518951625,36.27086709654418,1.280863575947581,0.5697414480491747,A,328,Correct
1,relearn,1001,836,A,40.97823121747035,56.48068987963044,2.048911560873518,0.8871966019776519,A,669,Correct
1,relearn,1001,837,B,51.89064275832349,44.0950063587037,2.594532137916174,0.6926427401824939,A,458,Incorrect
1,relearn,1001,838,B,48.93388528992283,28.3693707174888,2.4466942644961414,0.4456250331651411,B,490,Correct
1,relearn,1001,839,A,39.974122310180675,63.66045756579999,1.998706115509034,0.99997612906441,A,739,Correct
1,relearn,1001,840,A,25.11933157620851,44.15978969022049,1.2559665788104255,0.6936603543743349,A,408,Correct
1,relearn,1001,841,A,19.868833377352864,34.201376834831144,0.9934416688676433,0.5372339710348083,A,333,Correct
1,relearn,1001,842,A,40.34630782355314,72.61915999589326,2.017315391177657,1.1406990977648002,A,523,Correct
1,relearn,1001,843,A,17.71925518471612,32.92690805552064,0.8859627592358059,0.5172146622632512,A,540,Correct
1,relearn,1001,844,A,44.36211995559733,60.48250044989764,2.2181059977798667,0.9500568954206989,A,499,Correct
1,relearn,1001,845,A,48.64620174660016,57.796715349071654,2.432310087330008,0.9078686817113197,A,591,Correct
1,relearn,1001,846,A,63.57106554224939,87.9965291134472,3.1785532771124694,1.3822462470210302,A,496,Correct
1,relearn,1001,847,A,58.79221514401061,71.05640792920663,2.9396107572005303,1.1161514457043753,A,341,Correct
1,relearn,1001,848,A,47.79676619580395,70.38888258463207,2.389838309790197,1.1056659821113732,A,650,Correct
1,relearn,1001,849,A,21.278489754241868,52.64644027971369,1.0639244877120932,0.8269683501020114,A,420,Correct
1,relearn,1001,850,A,55.801188805699965,70.10616786122237,2.790059440284998,1.1012251096207455,A,328,Correct
1,relearn,1001,851,B,77.13291740832341,55.945293033830076,3.8566458704161706,0.878786607990044,B,1860,Correct
1,relearn,1001,852,B,59.83083861171815,29.922367718190884,2.9915419305859077,0.47001945300740433,B,2640,Correct
1,relearn,1001,853,A,38.20994478471804,66.33096080342328,1.9104972392359019,1.0419242958279356,A,1258,Correct
1,relearn,1001,854,A,58.61065357697749,68.71766787237695,2.930532678848875,1.079414602798414,A,660,Correct
1,relearn,1001,855,A,26.658790280734127,56.977164212307834,1.3329395140367064,0.8949952025588279,A,2070,Correct
1,relearn,1001,856,A,44.018887129768714,76.49774293536794,2.2009443564884354,1.201623736109762,A,460,Correct
1,relearn,1001,857,A,30.51441689943413,44.21683942368568,1.5257208449717066,0.6945564894920524,B,626,Incorrect
1,relearn,1001,858,B,32.172743087156135,11.30104669174355,1.6086371543578069,0.17751642632328385,B,513,Correct
1,relearn,1001,859,B,83.90301211227464,64.67006515797539,4.1951506056137315,1.0158350080373437,A,477,Incorrect
1,relearn,1001,860,A,33.57485692057268,53.92564637740164,1.6787428460286338,0.8470620724966301,A,389,Correct
1,relearn,1001,861,B,50.34182628029072,26.875885238315284,2.517091314014536,0.4221654181170683,B,498,Correct
1,relearn,1001,862,A,65.78311583657437,81.58082134122648,3.2891557918287186,1.2814685449970926,A,470,Correct
1,relearn,1001,863,A,38.00778174500222,69.42254687971777,1.9003890872501108,1.0904868163540717,A,398,Correct
1,relearn,1001,864,B,54.710229590935,29.158249185924955,2.73551147954675,0.4580167071702119,A,445,Incorrect
1,relearn,1001,865,A,14.792669568327803,39.2518459691114,0.73963347841639,0.6165665546819926,A,532,Correct
1,relearn,1001,866,B,87.87467372222513,63.788731051913594,4.393733686111256,1.0019910442725342,A,812,Incorrect
1,relearn,1001,867,B,61.484300173990896,44.979433211073854,3.074215008699545,0.7065352846927119,B,666,Correct
1,relearn,1001,868,B,67.28036081750886,50.47334457183251,3.3640180408754428,0.7928334425448764,B,612,Correct
1,relearn,1001,869,B,67.94929913372258,51.06753191706339,3.3974649566861284,0.8021669155380432,B,502,Correct
1,relearn,1001,870,A,33.94560755331703,57.761883704728966,1.6972803776658514,0.9073215475214225,A,573,Correct
1,relearn,1001,871,B,40.79586548941525,24.58225156888954,2.039793274470762,0.38613710468759777,B,877,Correct
1,relearn,1001,872,B,36.28475826708886,12.267230757021427,1.8142379133544433,0.19269321013074633,B,651,Correct
1,relearn,1001,873,B,81.41134693476603,64.89443491791802,4.070567346738302,1.0193593999849608,B,647,Correct
1,relearn,1001,874,B,47.36846920584122,36.44621180073113,2.3684234602920613,0.5724957562217727,B,1135,Correct
1,relearn,1001,875,A,48.87414558241794,56.750831325574794,2.443707279120897,0.8914399738876965,B,1152,Incorrect
1,relearn,1001,876,A,36.046710354050724,48.02964111698043,1.8023355177025362,0.7544478384382998,A,440,Correct
1,relearn,1001,877,A,29.217918755510112,45.498018586258326,1.4608959377755055,0.714681204717405,A,499,Correct
1,relearn,1001,878,B,85.54596031704719,69.39821962111004,4.2772980158523595,1.0901046846694518,B,605,Correct
1,relearn,1001,879,A,32.233512451996816,53.539085027348726,1.611675622599841,0.8409899810091902,A,480,Correct
1,relearn,1001,880,B,51.88424966516663,36.44289756105582,2.5942124832583313,0.5724436962666917,B,551,Correct
1,relearn,1001,881,B,38.061082970079354,13.141653277122042,1.9030541485039678,0.20642860695715418,A,769,Incorrect
1,relearn,1001,882,B,49.80355736499835,21.046563014861647,2.4901778682499174,0.33059863875402,A,508,Incorrect
1,relearn,1001,883,A,19.24132329149571,36.934878960975325,0.9620661645747856,0.5801717220251414,A,566,Correct
1,relearn,1001,884,A,37.83937627374849,56.70962309754634,1.8919688136874244,0.8907926765554881,A,574,Correct
1,relearn,1001,885,A,55.7083917200979,70.92191281941726,2.7854195860048954,1.1140388014600853,B,686,Incorrect
1,relearn,1001,886,A,61.711106223958694,85.11824617516922,3.085555311197935,1.3370342843517955,A,931,Correct
1,relearn,1001,887,B,52.36001423762365,24.51112191271618,2.6180007118811823,0.38501980266116476,B,439,Correct
1,relearn,1001,888,A,47.10584380552492,58.792980943673555,2.3552921902762463,0.9235179850764477,B,796,Incorrect
1,relearn,1001,889,A,19.82570097714337,42.89002006326618,0.9912850488571685,0.6737148597153793,B,401,Incorrect
1,relearn,1001,890,B,43.33607763276405,28.43399271186769,2.1668038816382027,0.4466401130791462,A,493,Incorrect
1,relearn,1001,891,A,63.39959576077794,73.28028287784079,3.1699797880388974,1.1510839917100326,B,249,Incorrect
1,relearn,1001,892,A,25.8965614252409,39.473898165496365,1.294828071262045,0.6200545424263749,100,4212,Incorrect
1,relearn,1001,893,B,76.67481779210013,58.65080062582308,3.8337408896050067,0.9212846218662272,B,985,Correct
1,relearn,1001,894,A,51.940786799555895,70.18160335419269,2.597039339977795,1.1024100475734226,B,1165,Incorrect
1,relearn,1001,895,B,78.04837506748953,52.58944811483457,3.9024187533744765,0.8260731192695293,B,8444,Correct
1,relearn,1001,896,A,22.994459407763216,47.286701731978226,1.1497229703881608,0.7427777738683727,A,659,Correct
1,relearn,1001,897,A,54.740668896918436,76.28653936177695,2.737033444845922,1.198306158133735,A,736,Correct
1,relearn,1001,898,B,69.55602096963943,60.320847505196625,3.477801048481972,0.9475176569031796,B,685,Correct
