condition,subject,trial,sub_task,cat,x,y,xt,yt,resp,rt,fb
incongruent_pinky_thumb,4,0,1,99,49.8,60.41,0.06,0.95,99,7236,Correct
incongruent_pinky_thumb,4,1,1,109,77.55,57.02,0.09,0.9,109,1364,Correct
incongruent_pinky_thumb,4,2,1,109,53.19,29.21,0.06,0.46,99,1532,Incorrect
incongruent_pinky_thumb,4,3,1,109,69.95,48.59,0.08,0.76,109,2572,Correct
incongruent_pinky_thumb,4,4,1,109,72.49,48.39,0.08,0.76,109,879,Correct
incongruent_pinky_thumb,4,5,1,99,49.88,68.71,0.06,1.08,109,2683,Incorrect
incongruent_pinky_thumb,4,6,2,112,46.24,60.96,0.05,0.96,112,1024,Correct
incongruent_pinky_thumb,4,7,2,113,51.37,37.85,0.06,0.59,112,1266,Incorrect
incongruent_pinky_thumb,4,8,1,99,29.77,57.09,0.03,0.9,99,4727,Correct
incongruent_pinky_thumb,4,9,1,99,30.29,44.23,0.03,0.69,99,808,Correct
incongruent_pinky_thumb,4,10,1,109,39.77,15.12,0.04,0.24,99,3359,Incorrect
incongruent_pinky_thumb,4,11,2,112,48.26,78.21,0.05,1.23,112,1725,Correct
incongruent_pinky_thumb,4,12,1,99,25.28,39.78,0.03,0.62,99,728,Correct
incongruent_pinky_thumb,4,13,2,112,57.86,69.18,0.06,1.09,112,764,Correct
incongruent_pinky_thumb,4,14,2,112,32.0,43.37,0.04,0.68,113,767,Incorrect
incongruent_pinky_thumb,4,15,1,109,48.18,24.81,0.05,0.39,109,1513,Correct
incongruent_pinky_thumb,4,16,1,109,57.31,48.47,0.06,0.76,99,3196,Incorrect
incongruent_pinky_thumb,4,17,2,112,46.4,68.8,0.05,1.08,112,1247,Correct
incongruent_pinky_thumb,4,18,1,109,79.44,58.68,0.09,0.92,109,1694,Correct
incongruent_pinky_thumb,4,19,1,109,55.86,37.62,0.06,0.59,109,1403,Correct
incongruent_pinky_thumb,4,20,2,112,32.0,63.93,0.04,1.0,113,601,Incorrect
incongruent_pinky_thumb,4,21,2,112,19.0,34.17,0.02,0.54,113,2004,Incorrect
incongruent_pinky_thumb,4,22,2,113,81.59,55.6,0.09,0.87,113,1475,Correct
incongruent_pinky_thumb,4,23,1,99,51.07,57.85,0.06,0.91,99,4933,Correct
incongruent_pinky_thumb,4,24,2,113,57.49,44.79,0.06,0.7,112,949,Incorrect
incongruent_pinky_thumb,4,25,1,109,62.7,49.66,0.07,0.78,99,1533,Incorrect
incongruent_pinky_thumb,4,26,1,109,44.95,27.08,0.05,0.43,109,2381,Correct
incongruent_pinky_thumb,4,27,2,112,46.27,71.86,0.05,1.13,112,1066,Correct
incongruent_pinky_thumb,4,28,1,109,79.26,53.15,0.09,0.83,99,559,Incorrect
incongruent_pinky_thumb,4,29,2,112,49.82,57.22,0.06,0.9,112,768,Correct
incongruent_pinky_thumb,4,30,1,99,66.14,88.56,0.07,1.39,99,4152,Correct
incongruent_pinky_thumb,4,31,1,109,78.05,61.86,0.09,0.97,99,1089,Incorrect
incongruent_pinky_thumb,4,32,2,113,39.51,27.7,0.04,0.44,112,1487,Incorrect
incongruent_pinky_thumb,4,33,2,113,88.62,65.71,0.1,1.03,112,1397,Incorrect
incongruent_pinky_thumb,4,34,2,113,52.44,40.67,0.06,0.64,112,3763,Incorrect
incongruent_pinky_thumb,4,35,1,109,31.91,17.23,0.04,0.27,99,1181,Incorrect
incongruent_pinky_thumb,4,36,1,99,50.98,76.56,0.06,1.2,109,2111,Incorrect
incongruent_pinky_thumb,4,37,2,112,61.67,72.55,0.07,1.14,113,1046,Incorrect
incongruent_pinky_thumb,4,38,1,99,25.95,38.46,0.03,0.6,109,640,Incorrect
incongruent_pinky_thumb,4,39,2,113,37.64,25.93,0.04,0.41,113,1632,Correct
incongruent_pinky_thumb,4,40,1,99,45.36,55.94,0.05,0.88,99,2209,Correct
incongruent_pinky_thumb,4,41,1,109,61.24,49.56,0.07,0.78,99,1669,Incorrect
incongruent_pinky_thumb,4,42,2,113,86.84,62.23,0.1,0.98,113,2040,Correct
incongruent_pinky_thumb,4,43,2,113,40.11,15.28,0.04,0.24,113,1396,Correct
incongruent_pinky_thumb,4,44,1,109,56.45,26.62,0.06,0.42,109,1689,Correct
incongruent_pinky_thumb,4,45,1,99,29.41,47.4,0.03,0.74,99,3368,Correct
incongruent_pinky_thumb,4,46,2,112,29.03,53.95,0.03,0.85,112,3525,Correct
incongruent_pinky_thumb,4,47,1,99,46.98,67.46,0.05,1.06,109,2310,Incorrect
incongruent_pinky_thumb,4,48,2,113,50.76,33.7,0.06,0.53,112,1693,Incorrect
incongruent_pinky_thumb,4,49,1,109,39.05,29.25,0.04,0.46,109,3941,Correct
incongruent_pinky_thumb,4,50,2,113,41.34,15.35,0.05,0.24,113,1718,Correct
incongruent_pinky_thumb,4,51,2,112,49.92,75.68,0.06,1.19,113,1142,Incorrect
incongruent_pinky_thumb,4,52,2,113,54.6,28.28,0.06,0.44,113,2639,Correct
incongruent_pinky_thumb,4,53,1,109,35.32,18.59,0.04,0.29,109,821,Correct
incongruent_pinky_thumb,4,54,2,113,80.02,67.43,0.09,1.06,113,3672,Correct
incongruent_pinky_thumb,4,55,1,99,41.57,71.96,0.05,1.13,109,698,Incorrect
incongruent_pinky_thumb,4,56,1,99,48.97,73.98,0.05,1.16,99,3423,Correct
incongruent_pinky_thumb,4,57,2,112,20.49,42.26,0.02,0.66,113,5587,Incorrect
incongruent_pinky_thumb,4,58,1,99,45.78,61.62,0.05,0.97,109,1352,Incorrect
incongruent_pinky_thumb,4,59,1,109,85.12,60.51,0.1,0.95,109,1479,Correct
incongruent_pinky_thumb,4,60,2,112,30.36,52.32,0.03,0.82,113,2429,Incorrect
incongruent_pinky_thumb,4,61,2,112,44.96,76.02,0.05,1.19,112,3632,Correct
incongruent_pinky_thumb,4,62,1,99,40.0,51.98,0.04,0.82,109,6722,Incorrect
incongruent_pinky_thumb,4,63,2,112,39.58,67.57,0.04,1.06,113,1362,Incorrect
incongruent_pinky_thumb,4,64,2,113,65.78,39.1,0.07,0.61,112,1332,Incorrect
incongruent_pinky_thumb,4,65,1,109,79.06,63.5,0.09,1.0,99,1977,Incorrect
incongruent_pinky_thumb,4,66,1,109,39.42,12.79,0.04,0.2,109,1049,Correct
incongruent_pinky_thumb,4,67,1,109,52.18,27.57,0.06,0.43,109,886,Correct
incongruent_pinky_thumb,4,68,2,112,31.85,60.12,0.04,0.94,112,1516,Correct
incongruent_pinky_thumb,4,69,1,99,30.04,43.26,0.03,0.68,109,2336,Incorrect
incongruent_pinky_thumb,4,70,2,113,59.77,27.1,0.07,0.43,112,1696,Incorrect
incongruent_pinky_thumb,4,71,2,113,49.16,32.26,0.06,0.51,113,2565,Correct
incongruent_pinky_thumb,4,72,1,109,82.94,60.71,0.09,0.95,109,5133,Correct
incongruent_pinky_thumb,4,73,2,112,21.09,42.79,0.02,0.67,112,2335,Correct
incongruent_pinky_thumb,4,74,1,109,72.81,55.88,0.08,0.88,99,1746,Incorrect
incongruent_pinky_thumb,4,75,2,112,39.19,65.73,0.04,1.03,112,1633,Correct
incongruent_pinky_thumb,4,76,1,109,34.54,16.59,0.04,0.26,99,6016,Incorrect
incongruent_pinky_thumb,4,77,1,99,27.95,47.87,0.03,0.75,109,2491,Incorrect
incongruent_pinky_thumb,4,78,1,99,38.3,58.04,0.04,0.91,109,2466,Incorrect
incongruent_pinky_thumb,4,79,2,112,29.91,53.97,0.03,0.85,112,1558,Correct
incongruent_pinky_thumb,4,80,1,99,15.89,30.68,0.02,0.48,109,1862,Incorrect
incongruent_pinky_thumb,4,81,1,99,12.0,37.83,0.01,0.59,99,882,Correct
incongruent_pinky_thumb,4,82,1,99,54.36,64.63,0.06,1.02,109,4019,Incorrect
incongruent_pinky_thumb,4,83,2,113,33.88,18.18,0.04,0.29,112,1938,Incorrect
incongruent_pinky_thumb,4,84,2,113,84.92,60.31,0.1,0.95,112,3327,Incorrect
incongruent_pinky_thumb,4,85,1,99,16.59,45.18,0.02,0.71,99,3292,Correct
incongruent_pinky_thumb,4,86,1,109,45.27,25.5,0.05,0.4,109,3052,Correct
incongruent_pinky_thumb,4,87,1,99,34.63,52.52,0.04,0.82,99,1993,Correct
incongruent_pinky_thumb,4,88,1,99,52.7,67.67,0.06,1.06,109,1397,Incorrect
incongruent_pinky_thumb,4,89,2,113,46.69,37.16,0.05,0.58,112,1863,Incorrect
incongruent_pinky_thumb,4,90,1,99,46.41,58.27,0.05,0.92,99,2636,Correct
incongruent_pinky_thumb,4,91,1,99,42.08,49.49,0.05,0.78,109,4335,Incorrect
incongruent_pinky_thumb,4,92,1,99,16.63,38.99,0.02,0.61,99,819,Correct
incongruent_pinky_thumb,4,93,2,113,87.56,60.03,0.1,0.94,113,1855,Correct
incongruent_pinky_thumb,4,94,2,113,85.44,57.52,0.1,0.9,113,1083,Correct
incongruent_pinky_thumb,4,95,1,109,51.14,33.71,0.06,0.53,109,1052,Correct
incongruent_pinky_thumb,4,96,2,112,59.41,79.99,0.07,1.26,112,4337,Correct
incongruent_pinky_thumb,4,97,1,109,58.44,44.0,0.07,0.69,109,1187,Correct
incongruent_pinky_thumb,4,98,1,109,79.94,49.19,0.09,0.77,109,1079,Correct
incongruent_pinky_thumb,4,99,1,99,17.28,34.8,0.02,0.55,99,633,Correct
incongruent_pinky_thumb,4,100,1,109,42.94,28.67,0.05,0.45,109,931,Correct
incongruent_pinky_thumb,4,101,1,99,17.13,41.67,0.02,0.65,99,667,Correct
incongruent_pinky_thumb,4,102,2,113,47.26,33.06,0.05,0.52,112,7135,Incorrect
incongruent_pinky_thumb,4,103,2,113,61.31,48.5,0.07,0.76,113,1291,Correct
incongruent_pinky_thumb,4,104,2,112,59.25,78.85,0.07,1.24,113,1204,Incorrect
incongruent_pinky_thumb,4,105,2,113,41.0,22.05,0.05,0.35,113,3204,Correct
incongruent_pinky_thumb,4,106,1,99,51.3,67.56,0.06,1.06,109,3139,Incorrect
incongruent_pinky_thumb,4,107,2,112,42.36,57.6,0.05,0.9,112,4145,Correct
incongruent_pinky_thumb,4,108,2,112,42.21,63.39,0.05,1.0,112,663,Correct
incongruent_pinky_thumb,4,109,1,109,69.91,42.64,0.08,0.67,109,857,Correct
incongruent_pinky_thumb,4,110,1,99,61.03,84.1,0.07,1.32,109,765,Incorrect
incongruent_pinky_thumb,4,111,2,112,17.38,31.9,0.02,0.5,113,5661,Incorrect
incongruent_pinky_thumb,4,112,1,109,51.81,42.84,0.06,0.67,109,1989,Correct
incongruent_pinky_thumb,4,113,2,113,47.67,22.31,0.05,0.35,112,1049,Incorrect
incongruent_pinky_thumb,4,114,2,112,40.06,58.07,0.04,0.91,113,666,Incorrect
incongruent_pinky_thumb,4,115,2,112,40.17,63.94,0.04,1.0,112,2327,Correct
incongruent_pinky_thumb,4,116,1,109,54.42,31.33,0.06,0.49,109,1153,Correct
incongruent_pinky_thumb,4,117,2,113,51.44,26.51,0.06,0.42,112,866,Incorrect
incongruent_pinky_thumb,4,118,2,112,56.25,77.4,0.06,1.22,112,1739,Correct
incongruent_pinky_thumb,4,119,1,99,15.95,31.95,0.02,0.5,99,701,Correct
incongruent_pinky_thumb,4,120,2,112,32.38,42.62,0.04,0.67,113,2331,Incorrect
incongruent_pinky_thumb,4,121,2,113,64.16,54.77,0.07,0.86,112,4351,Incorrect
incongruent_pinky_thumb,4,122,1,109,43.02,20.12,0.05,0.32,99,1970,Incorrect
incongruent_pinky_thumb,4,123,2,113,37.86,17.39,0.04,0.27,113,2381,Correct
incongruent_pinky_thumb,4,124,2,113,46.5,28.17,0.05,0.44,113,2183,Correct
incongruent_pinky_thumb,4,125,2,113,36.89,19.12,0.04,0.3,113,1690,Correct
incongruent_pinky_thumb,4,126,2,112,34.3,57.96,0.04,0.91,113,1773,Incorrect
incongruent_pinky_thumb,4,127,1,99,29.13,39.87,0.03,0.63,99,1362,Correct
incongruent_pinky_thumb,4,128,2,113,73.24,53.31,0.08,0.84,112,3797,Incorrect
incongruent_pinky_thumb,4,129,2,112,39.2,65.83,0.04,1.03,113,2443,Incorrect
incongruent_pinky_thumb,4,130,1,99,21.14,37.08,0.02,0.58,99,1194,Correct
incongruent_pinky_thumb,4,131,1,109,40.08,15.26,0.04,0.24,99,1694,Incorrect
incongruent_pinky_thumb,4,132,1,99,59.76,70.78,0.07,1.11,109,1637,Incorrect
incongruent_pinky_thumb,4,133,1,99,31.03,42.13,0.03,0.66,99,1009,Correct
incongruent_pinky_thumb,4,134,2,112,53.41,65.16,0.06,1.02,112,3095,Correct
incongruent_pinky_thumb,4,135,2,113,53.93,22.22,0.06,0.35,112,2958,Incorrect
incongruent_pinky_thumb,4,136,2,113,56.62,29.69,0.06,0.47,112,2558,Incorrect
incongruent_pinky_thumb,4,137,1,109,82.47,63.82,0.09,1.0,109,1578,Correct
incongruent_pinky_thumb,4,138,1,99,54.3,62.62,0.06,0.98,109,1016,Incorrect
incongruent_pinky_thumb,4,139,2,112,50.43,66.71,0.06,1.05,112,3704,Correct
incongruent_pinky_thumb,4,140,2,113,36.61,21.4,0.04,0.34,113,1289,Correct
incongruent_pinky_thumb,4,141,2,112,51.49,63.29,0.06,0.99,112,2720,Correct
incongruent_pinky_thumb,4,142,2,112,36.43,51.98,0.04,0.82,112,1017,Correct
incongruent_pinky_thumb,4,143,2,113,67.38,45.07,0.08,0.71,113,819,Correct
incongruent_pinky_thumb,4,144,1,99,14.99,37.7,0.02,0.59,99,996,Correct
incongruent_pinky_thumb,4,145,1,99,61.92,87.15,0.07,1.37,109,605,Incorrect
incongruent_pinky_thumb,4,146,2,112,54.14,76.14,0.06,1.2,112,971,Correct
incongruent_pinky_thumb,4,147,1,99,53.59,62.24,0.06,0.98,99,2140,Correct
incongruent_pinky_thumb,4,148,2,113,48.99,38.7,0.05,0.61,112,6391,Incorrect
incongruent_pinky_thumb,4,149,1,99,43.75,58.4,0.05,0.92,99,2773,Correct
incongruent_pinky_thumb,4,150,2,113,34.86,17.79,0.04,0.28,112,1974,Incorrect
incongruent_pinky_thumb,4,151,2,112,60.31,76.61,0.07,1.2,112,2494,Correct
incongruent_pinky_thumb,4,152,1,109,58.41,31.52,0.07,0.5,99,1472,Incorrect
incongruent_pinky_thumb,4,153,2,112,30.64,45.25,0.03,0.71,113,1252,Incorrect
incongruent_pinky_thumb,4,154,1,109,51.53,35.64,0.06,0.56,99,2365,Incorrect
incongruent_pinky_thumb,4,155,1,109,36.24,21.92,0.04,0.34,109,7357,Correct
incongruent_pinky_thumb,4,156,2,113,42.21,31.3,0.05,0.49,113,6394,Correct
incongruent_pinky_thumb,4,157,1,109,71.04,42.12,0.08,0.66,99,3211,Incorrect
incongruent_pinky_thumb,4,158,2,113,51.82,34.1,0.06,0.54,112,2749,Incorrect
incongruent_pinky_thumb,4,159,2,112,52.65,61.49,0.06,0.97,113,4806,Incorrect
incongruent_pinky_thumb,4,160,1,99,31.41,62.07,0.04,0.97,109,3754,Incorrect
incongruent_pinky_thumb,4,161,1,109,48.71,29.7,0.05,0.47,109,4032,Correct
incongruent_pinky_thumb,4,162,2,112,31.07,40.09,0.03,0.63,113,641,Incorrect
incongruent_pinky_thumb,4,163,1,109,56.49,44.4,0.06,0.7,99,5510,Incorrect
incongruent_pinky_thumb,4,164,1,109,55.75,26.41,0.06,0.41,99,2534,Incorrect
incongruent_pinky_thumb,4,165,1,99,12.93,38.14,0.01,0.6,99,912,Correct
incongruent_pinky_thumb,4,166,1,109,58.83,29.86,0.07,0.47,109,1697,Correct
incongruent_pinky_thumb,4,167,1,99,39.3,55.42,0.04,0.87,99,5167,Correct
incongruent_pinky_thumb,4,168,2,112,48.18,67.08,0.05,1.05,112,3964,Correct
incongruent_pinky_thumb,4,169,2,112,56.52,79.12,0.06,1.24,112,1077,Correct
incongruent_pinky_thumb,4,170,1,99,18.01,38.13,0.02,0.6,99,602,Correct
incongruent_pinky_thumb,4,171,1,99,44.45,61.62,0.05,0.97,109,962,Incorrect
incongruent_pinky_thumb,4,172,1,109,60.27,52.17,0.07,0.82,109,3174,Correct
incongruent_pinky_thumb,4,173,2,113,61.11,49.05,0.07,0.77,113,3198,Correct
incongruent_pinky_thumb,4,174,1,109,47.46,37.97,0.05,0.6,99,2783,Incorrect
incongruent_pinky_thumb,4,175,1,99,12.5,37.52,0.01,0.59,99,758,Correct
incongruent_pinky_thumb,4,176,1,109,58.45,46.27,0.07,0.73,99,3112,Incorrect
incongruent_pinky_thumb,4,177,1,109,50.23,22.95,0.06,0.36,109,1762,Correct
incongruent_pinky_thumb,4,178,2,113,35.47,16.38,0.04,0.26,113,1287,Correct
incongruent_pinky_thumb,4,179,1,99,22.2,50.78,0.02,0.8,99,675,Correct
incongruent_pinky_thumb,4,180,2,113,81.84,67.94,0.09,1.07,112,2344,Incorrect
incongruent_pinky_thumb,4,181,1,109,68.96,39.64,0.08,0.62,109,3159,Correct
incongruent_pinky_thumb,4,182,1,99,29.72,58.43,0.03,0.92,99,764,Correct
incongruent_pinky_thumb,4,183,2,112,48.21,67.73,0.05,1.06,112,1149,Correct
incongruent_pinky_thumb,4,184,1,99,57.19,80.82,0.06,1.27,109,1648,Incorrect
incongruent_pinky_thumb,4,185,2,113,67.98,40.38,0.08,0.63,112,3486,Incorrect
incongruent_pinky_thumb,4,186,1,109,88.01,68.71,0.1,1.08,99,3300,Incorrect
incongruent_pinky_thumb,4,187,1,109,52.55,39.74,0.06,0.62,109,4786,Correct
incongruent_pinky_thumb,4,188,2,113,51.39,30.44,0.06,0.48,112,2638,Incorrect
incongruent_pinky_thumb,4,189,1,109,48.19,27.82,0.05,0.44,99,1493,Incorrect
incongruent_pinky_thumb,4,190,1,109,42.39,30.82,0.05,0.48,109,1235,Correct
incongruent_pinky_thumb,4,191,2,113,65.73,33.06,0.07,0.52,112,5316,Incorrect
incongruent_pinky_thumb,4,192,2,113,46.36,26.64,0.05,0.42,113,2667,Correct
incongruent_pinky_thumb,4,193,1,99,41.52,71.65,0.05,1.13,109,2452,Incorrect
incongruent_pinky_thumb,4,194,1,109,50.69,21.63,0.06,0.34,99,2659,Incorrect
incongruent_pinky_thumb,4,195,1,99,27.93,60.42,0.03,0.95,99,718,Correct
incongruent_pinky_thumb,4,196,2,112,37.53,62.22,0.04,0.98,113,902,Incorrect
incongruent_pinky_thumb,4,197,2,112,17.52,34.4,0.02,0.54,113,1343,Incorrect
incongruent_pinky_thumb,4,198,1,109,73.29,43.95,0.08,0.69,99,2384,Incorrect
incongruent_pinky_thumb,4,199,1,109,35.83,22.99,0.04,0.36,99,1932,Incorrect
incongruent_pinky_thumb,4,200,1,99,16.63,35.94,0.02,0.56,99,793,Correct
incongruent_pinky_thumb,4,201,2,112,20.45,34.08,0.02,0.54,113,1252,Incorrect
incongruent_pinky_thumb,4,202,2,112,23.74,44.99,0.03,0.71,113,1941,Incorrect
incongruent_pinky_thumb,4,203,2,113,47.23,34.95,0.05,0.55,112,5796,Incorrect
incongruent_pinky_thumb,4,204,1,99,57.06,70.71,0.06,1.11,109,1355,Incorrect
incongruent_pinky_thumb,4,205,1,109,49.9,24.24,0.06,0.38,99,4026,Incorrect
incongruent_pinky_thumb,4,206,1,99,64.34,85.33,0.07,1.34,109,1336,Incorrect
incongruent_pinky_thumb,4,207,1,99,29.01,50.42,0.03,0.79,99,855,Correct
incongruent_pinky_thumb,4,208,1,99,53.7,82.88,0.06,1.3,109,1814,Incorrect
incongruent_pinky_thumb,4,209,2,112,34.39,42.99,0.04,0.68,112,2297,Correct
incongruent_pinky_thumb,4,210,1,109,79.61,60.04,0.09,0.94,99,4034,Incorrect
incongruent_pinky_thumb,4,211,2,112,20.91,35.22,0.02,0.55,113,1401,Incorrect
incongruent_pinky_thumb,4,212,1,99,16.85,33.48,0.02,0.53,99,1629,Correct
incongruent_pinky_thumb,4,213,1,99,32.93,51.26,0.04,0.81,99,1146,Correct
incongruent_pinky_thumb,4,214,2,113,39.99,29.43,0.04,0.46,112,1204,Incorrect
incongruent_pinky_thumb,4,215,2,112,39.96,64.37,0.04,1.01,113,568,Incorrect
incongruent_pinky_thumb,4,216,1,109,63.4,39.76,0.07,0.62,109,2862,Correct
incongruent_pinky_thumb,4,217,2,113,49.92,24.32,0.06,0.38,113,2832,Correct
incongruent_pinky_thumb,4,218,2,112,37.45,67.73,0.04,1.06,113,518,Incorrect
incongruent_pinky_thumb,4,219,1,109,72.31,54.8,0.08,0.86,99,2323,Incorrect
incongruent_pinky_thumb,4,220,1,109,83.1,56.06,0.09,0.88,99,2167,Incorrect
incongruent_pinky_thumb,4,221,2,113,83.5,56.18,0.09,0.88,113,1946,Correct
incongruent_pinky_thumb,4,222,2,112,26.09,43.55,0.03,0.68,113,4978,Incorrect
incongruent_pinky_thumb,4,223,2,113,67.93,55.85,0.08,0.88,113,1578,Correct
incongruent_pinky_thumb,4,224,1,99,46.85,78.76,0.05,1.24,99,5032,Correct
incongruent_pinky_thumb,4,225,1,99,36.72,47.12,0.04,0.74,99,2957,Correct
incongruent_pinky_thumb,4,226,2,112,36.89,61.16,0.04,0.96,113,1116,Incorrect
incongruent_pinky_thumb,4,227,1,99,12.04,39.2,0.01,0.62,99,838,Correct
incongruent_pinky_thumb,4,228,2,113,45.06,28.74,0.05,0.45,112,2283,Incorrect
incongruent_pinky_thumb,4,229,1,99,55.67,77.45,0.06,1.22,109,2338,Incorrect
incongruent_pinky_thumb,4,230,1,99,27.65,37.45,0.03,0.59,109,7088,Incorrect
incongruent_pinky_thumb,4,231,2,112,53.96,76.64,0.06,1.2,113,1520,Incorrect
incongruent_pinky_thumb,4,232,1,109,74.81,42.51,0.08,0.67,99,3931,Incorrect
incongruent_pinky_thumb,4,233,2,113,48.79,32.83,0.05,0.52,113,9232,Correct
incongruent_pinky_thumb,4,234,2,112,34.84,55.49,0.04,0.87,113,2380,Incorrect
incongruent_pinky_thumb,4,235,2,112,60.33,86.81,0.07,1.36,113,1562,Incorrect
incongruent_pinky_thumb,4,236,2,112,52.55,64.47,0.06,1.01,113,3257,Incorrect
incongruent_pinky_thumb,4,237,1,109,43.26,14.3,0.05,0.22,99,9093,Incorrect
incongruent_pinky_thumb,4,238,1,109,39.27,22.75,0.04,0.36,99,1359,Incorrect
incongruent_pinky_thumb,4,239,2,113,84.17,68.81,0.09,1.08,113,8628,Correct
incongruent_pinky_thumb,4,240,2,113,70.3,44.72,0.08,0.7,113,1245,Correct
incongruent_pinky_thumb,4,241,1,109,57.92,27.2,0.06,0.43,109,1358,Correct
incongruent_pinky_thumb,4,242,1,109,43.09,29.98,0.05,0.47,109,3586,Correct
incongruent_pinky_thumb,4,243,1,109,65.55,53.08,0.07,0.83,109,3272,Correct
incongruent_pinky_thumb,4,244,2,113,47.23,35.12,0.05,0.55,113,2221,Correct
incongruent_pinky_thumb,4,245,2,112,22.95,34.24,0.03,0.54,112,1929,Correct
incongruent_pinky_thumb,4,246,2,112,39.01,72.09,0.04,1.13,113,3767,Incorrect
incongruent_pinky_thumb,4,247,2,113,51.5,29.3,0.06,0.46,113,1518,Correct
incongruent_pinky_thumb,4,248,2,112,56.04,68.74,0.06,1.08,113,1111,Incorrect
incongruent_pinky_thumb,4,249,2,112,51.21,62.12,0.06,0.98,112,1652,Correct
incongruent_pinky_thumb,4,250,1,99,45.44,61.69,0.05,0.97,109,3154,Incorrect
incongruent_pinky_thumb,4,251,2,113,53.13,21.95,0.06,0.34,113,2879,Correct
incongruent_pinky_thumb,4,252,2,113,71.82,49.92,0.08,0.78,113,1048,Correct
incongruent_pinky_thumb,4,253,2,112,24.22,37.37,0.03,0.59,112,926,Correct
incongruent_pinky_thumb,4,254,2,112,46.87,76.4,0.05,1.2,113,1015,Incorrect
incongruent_pinky_thumb,4,255,2,112,21.02,44.4,0.02,0.7,112,906,Correct
incongruent_pinky_thumb,4,256,2,113,59.48,46.66,0.07,0.73,113,937,Correct
incongruent_pinky_thumb,4,257,1,99,34.71,53.7,0.04,0.84,99,801,Correct
incongruent_pinky_thumb,4,258,1,99,29.63,47.89,0.03,0.75,99,2690,Correct
incongruent_pinky_thumb,4,259,2,113,34.02,16.69,0.04,0.26,112,1706,Incorrect
incongruent_pinky_thumb,4,260,1,99,52.01,66.01,0.06,1.04,109,2204,Incorrect
incongruent_pinky_thumb,4,261,1,109,48.47,20.25,0.05,0.32,99,2403,Incorrect
incongruent_pinky_thumb,4,262,2,113,30.29,13.99,0.03,0.22,112,3093,Incorrect
incongruent_pinky_thumb,4,263,1,99,56.83,74.21,0.06,1.17,109,1145,Incorrect
incongruent_pinky_thumb,4,264,1,109,39.8,24.06,0.04,0.38,99,2377,Incorrect
incongruent_pinky_thumb,4,265,2,112,67.44,83.15,0.08,1.31,113,853,Incorrect
incongruent_pinky_thumb,4,266,1,99,50.59,69.24,0.06,1.09,99,2819,Correct
incongruent_pinky_thumb,4,267,2,113,63.17,34.0,0.07,0.53,113,677,Correct
incongruent_pinky_thumb,4,268,1,109,76.82,59.21,0.09,0.93,99,811,Incorrect
incongruent_pinky_thumb,4,269,2,112,59.17,76.73,0.07,1.21,113,2556,Incorrect
incongruent_pinky_thumb,4,270,1,109,47.51,35.99,0.05,0.57,99,867,Incorrect
incongruent_pinky_thumb,4,271,1,109,35.39,11.21,0.04,0.18,99,2063,Incorrect
incongruent_pinky_thumb,4,272,1,99,16.18,36.36,0.02,0.57,99,1144,Correct
incongruent_pinky_thumb,4,273,1,109,86.65,60.05,0.1,0.94,99,1096,Incorrect
incongruent_pinky_thumb,4,274,1,99,63.83,89.17,0.07,1.4,109,3105,Incorrect
incongruent_pinky_thumb,4,275,2,113,50.29,36.84,0.06,0.58,113,846,Correct
incongruent_pinky_thumb,4,276,1,99,40.45,67.58,0.05,1.06,109,1889,Incorrect
incongruent_pinky_thumb,4,277,1,109,38.63,12.95,0.04,0.2,99,3555,Incorrect
incongruent_pinky_thumb,4,278,1,99,21.06,50.8,0.02,0.8,99,1148,Correct
incongruent_pinky_thumb,4,279,2,113,45.47,17.44,0.05,0.27,113,680,Correct
incongruent_pinky_thumb,4,280,2,113,67.12,40.08,0.08,0.63,113,2723,Correct
incongruent_pinky_thumb,4,281,1,109,64.15,53.64,0.07,0.84,99,3617,Incorrect
incongruent_pinky_thumb,4,282,2,112,31.68,51.79,0.04,0.81,112,3263,Correct
incongruent_pinky_thumb,4,283,2,112,53.99,74.81,0.06,1.18,113,984,Incorrect
incongruent_pinky_thumb,4,284,2,112,27.43,53.41,0.03,0.84,112,5378,Correct
incongruent_pinky_thumb,4,285,1,109,60.73,51.76,0.07,0.81,99,2434,Incorrect
incongruent_pinky_thumb,4,286,2,113,64.07,32.94,0.07,0.52,113,1617,Correct
incongruent_pinky_thumb,4,287,1,109,34.66,15.58,0.04,0.24,99,822,Incorrect
incongruent_pinky_thumb,4,288,2,113,47.5,35.65,0.05,0.56,113,2061,Correct
incongruent_pinky_thumb,4,289,1,109,48.26,41.03,0.05,0.64,109,2078,Correct
incongruent_pinky_thumb,4,290,2,112,18.6,33.1,0.02,0.52,112,2075,Correct
incongruent_pinky_thumb,4,291,1,99,63.6,80.97,0.07,1.27,99,1176,Correct
incongruent_pinky_thumb,4,292,1,99,47.57,58.33,0.05,0.92,99,1118,Correct
incongruent_pinky_thumb,4,293,1,109,78.16,56.97,0.09,0.89,99,1182,Incorrect
incongruent_pinky_thumb,4,294,2,113,65.33,47.5,0.07,0.75,113,973,Correct
incongruent_pinky_thumb,4,295,1,99,16.83,39.96,0.02,0.63,99,770,Correct
incongruent_pinky_thumb,4,296,2,113,64.33,32.33,0.07,0.51,113,1504,Correct
incongruent_pinky_thumb,4,297,2,112,44.68,58.02,0.05,0.91,113,2408,Incorrect
incongruent_pinky_thumb,4,298,1,109,53.76,39.69,0.06,0.62,99,5023,Incorrect
incongruent_pinky_thumb,4,299,2,112,21.46,33.44,0.02,0.53,112,1503,Correct
incongruent_pinky_thumb,4,300,1,99,56.0,73.48,0.06,1.15,109,3197,Incorrect
incongruent_pinky_thumb,4,301,2,112,53.26,73.57,0.06,1.16,113,923,Incorrect
incongruent_pinky_thumb,4,302,1,99,46.72,54.17,0.05,0.85,109,4642,Incorrect
incongruent_pinky_thumb,4,303,2,113,41.42,27.33,0.05,0.43,113,2447,Correct
incongruent_pinky_thumb,4,304,1,109,45.23,21.16,0.05,0.33,99,4315,Incorrect
incongruent_pinky_thumb,4,305,1,109,40.21,30.75,0.04,0.48,99,942,Incorrect
incongruent_pinky_thumb,4,306,1,109,55.8,39.6,0.06,0.62,109,815,Correct
incongruent_pinky_thumb,4,307,1,109,44.67,26.14,0.05,0.41,109,724,Correct
incongruent_pinky_thumb,4,308,1,99,19.34,34.37,0.02,0.54,99,853,Correct
incongruent_pinky_thumb,4,309,1,99,34.38,52.27,0.04,0.82,109,1176,Incorrect
incongruent_pinky_thumb,4,310,2,112,53.04,74.52,0.06,1.17,113,1301,Incorrect
incongruent_pinky_thumb,4,311,2,113,36.24,26.0,0.04,0.41,113,974,Correct
incongruent_pinky_thumb,4,312,2,113,31.22,14.41,0.03,0.23,112,1558,Incorrect
incongruent_pinky_thumb,4,313,1,109,61.72,30.46,0.07,0.48,109,1261,Correct
incongruent_pinky_thumb,4,314,1,109,60.89,45.37,0.07,0.71,109,572,Correct
incongruent_pinky_thumb,4,315,1,99,63.9,88.54,0.07,1.39,109,826,Incorrect
incongruent_pinky_thumb,4,316,1,99,55.6,77.13,0.06,1.21,109,1992,Incorrect
incongruent_pinky_thumb,4,317,2,112,35.46,45.29,0.04,0.71,113,8335,Incorrect
incongruent_pinky_thumb,4,318,2,112,33.68,52.45,0.04,0.82,112,3739,Correct
incongruent_pinky_thumb,4,319,2,112,64.2,80.28,0.07,1.26,113,841,Incorrect
incongruent_pinky_thumb,4,320,1,99,49.6,56.84,0.06,0.89,99,1434,Correct
incongruent_pinky_thumb,4,321,2,112,49.59,76.54,0.06,1.2,112,783,Correct
incongruent_pinky_thumb,4,322,1,99,38.05,55.7,0.04,0.88,109,1833,Incorrect
incongruent_pinky_thumb,4,323,1,109,48.68,19.89,0.05,0.31,109,4299,Correct
incongruent_pinky_thumb,4,324,2,112,66.07,81.63,0.07,1.28,113,1360,Incorrect
incongruent_pinky_thumb,4,325,1,109,71.22,43.28,0.08,0.68,109,2958,Correct
incongruent_pinky_thumb,4,326,2,113,69.02,59.99,0.08,0.94,112,898,Incorrect
incongruent_pinky_thumb,4,327,1,109,45.67,20.46,0.05,0.32,109,2500,Correct
incongruent_pinky_thumb,4,328,1,99,50.68,59.87,0.06,0.94,109,556,Incorrect
incongruent_pinky_thumb,4,329,1,99,45.78,55.1,0.05,0.87,99,1255,Correct
incongruent_pinky_thumb,4,330,2,113,41.58,25.81,0.05,0.41,112,3728,Incorrect
incongruent_pinky_thumb,4,331,1,99,35.37,49.37,0.04,0.78,99,1685,Correct
incongruent_pinky_thumb,4,332,2,113,71.43,52.46,0.08,0.82,113,1520,Correct
incongruent_pinky_thumb,4,333,1,99,41.29,67.36,0.05,1.06,99,6171,Correct
incongruent_pinky_thumb,4,334,1,99,58.77,75.61,0.07,1.19,99,1369,Correct
incongruent_pinky_thumb,4,335,2,112,30.29,45.82,0.03,0.72,112,985,Correct
incongruent_pinky_thumb,4,336,2,113,70.99,50.09,0.08,0.79,113,1156,Correct
incongruent_pinky_thumb,4,337,1,99,21.24,40.75,0.02,0.64,109,4913,Incorrect
incongruent_pinky_thumb,4,338,1,99,21.38,45.9,0.02,0.72,99,1161,Correct
incongruent_pinky_thumb,4,339,1,109,38.3,23.01,0.04,0.36,109,1214,Correct
incongruent_pinky_thumb,4,340,1,99,44.97,55.04,0.05,0.86,99,3247,Correct
incongruent_pinky_thumb,4,341,2,113,37.58,23.29,0.04,0.37,113,1653,Correct
incongruent_pinky_thumb,4,342,1,109,72.15,58.9,0.08,0.93,99,969,Incorrect
incongruent_pinky_thumb,4,343,2,113,65.49,56.53,0.07,0.89,113,700,Correct
incongruent_pinky_thumb,4,344,1,99,69.74,85.5,0.08,1.34,99,1274,Correct
incongruent_pinky_thumb,4,345,2,113,74.47,53.9,0.08,0.85,113,1100,Correct
incongruent_pinky_thumb,4,346,1,109,55.69,24.67,0.06,0.39,99,1077,Incorrect
incongruent_pinky_thumb,4,347,2,112,50.07,62.35,0.06,0.98,113,1321,Incorrect
incongruent_pinky_thumb,4,348,1,109,40.31,21.27,0.05,0.33,99,2539,Incorrect
incongruent_pinky_thumb,4,349,2,112,61.59,83.88,0.07,1.32,113,1263,Incorrect
incongruent_pinky_thumb,4,350,1,99,45.38,69.17,0.05,1.09,109,3502,Incorrect
incongruent_pinky_thumb,4,351,2,112,29.42,48.89,0.03,0.77,112,1040,Correct
incongruent_pinky_thumb,4,352,1,99,37.1,66.82,0.04,1.05,109,1308,Incorrect
incongruent_pinky_thumb,4,353,2,113,73.91,50.53,0.08,0.79,113,726,Correct
incongruent_pinky_thumb,4,354,2,113,46.72,34.08,0.05,0.54,113,2440,Correct
incongruent_pinky_thumb,4,355,1,99,27.82,40.83,0.03,0.64,99,746,Correct
incongruent_pinky_thumb,4,356,2,113,66.94,51.1,0.07,0.8,113,738,Correct
incongruent_pinky_thumb,4,357,1,109,59.68,34.22,0.07,0.54,109,3523,Correct
incongruent_pinky_thumb,4,358,1,99,49.6,80.73,0.06,1.27,109,2198,Incorrect
incongruent_pinky_thumb,4,359,2,112,33.47,46.35,0.04,0.73,112,2689,Correct
incongruent_pinky_thumb,4,360,1,109,33.42,20.83,0.04,0.33,99,2758,Incorrect
incongruent_pinky_thumb,4,361,1,109,48.36,40.61,0.05,0.64,109,3407,Correct
incongruent_pinky_thumb,4,362,1,109,53.04,37.3,0.06,0.59,109,825,Correct
incongruent_pinky_thumb,4,363,2,112,12.33,40.07,0.01,0.63,113,1674,Incorrect
incongruent_pinky_thumb,4,364,1,109,53.28,36.96,0.06,0.58,109,1686,Correct
incongruent_pinky_thumb,4,365,2,112,18.74,33.34,0.02,0.52,112,872,Correct
incongruent_pinky_thumb,4,366,2,112,37.0,50.51,0.04,0.79,113,1475,Incorrect
incongruent_pinky_thumb,4,367,1,99,23.61,37.34,0.03,0.59,99,1558,Correct
incongruent_pinky_thumb,4,368,2,113,75.29,63.18,0.08,0.99,113,755,Correct
incongruent_pinky_thumb,4,369,1,99,63.68,78.72,0.07,1.24,109,1499,Incorrect
incongruent_pinky_thumb,4,370,1,109,84.32,68.27,0.09,1.07,109,4586,Correct
incongruent_pinky_thumb,4,371,2,113,50.03,29.96,0.06,0.47,113,733,Correct
incongruent_pinky_thumb,4,372,2,113,38.19,18.92,0.04,0.3,112,3553,Incorrect
incongruent_pinky_thumb,4,373,1,109,42.32,32.65,0.05,0.51,109,3204,Correct
incongruent_pinky_thumb,4,374,2,112,14.07,38.42,0.02,0.6,112,2827,Correct
incongruent_pinky_thumb,4,375,2,112,17.89,43.49,0.02,0.68,112,922,Correct
incongruent_pinky_thumb,4,376,1,109,60.15,30.29,0.07,0.48,109,2091,Correct
incongruent_pinky_thumb,4,377,2,113,58.38,41.6,0.07,0.65,113,599,Correct
incongruent_pinky_thumb,4,378,2,113,38.26,29.02,0.04,0.46,113,698,Correct
incongruent_pinky_thumb,4,379,1,99,67.7,89.06,0.08,1.4,109,1030,Incorrect
incongruent_pinky_thumb,4,380,1,109,67.69,43.08,0.08,0.68,109,3141,Correct
incongruent_pinky_thumb,4,381,1,99,39.01,51.13,0.04,0.8,99,1517,Correct
incongruent_pinky_thumb,4,382,2,113,65.75,57.53,0.07,0.9,113,656,Correct
incongruent_pinky_thumb,4,383,1,99,23.97,36.75,0.03,0.58,99,549,Correct
incongruent_pinky_thumb,4,384,2,113,43.69,33.27,0.05,0.52,113,5229,Correct
incongruent_pinky_thumb,4,385,1,99,47.74,74.88,0.05,1.18,99,1104,Correct
incongruent_pinky_thumb,4,386,2,113,55.63,28.79,0.06,0.45,113,1191,Correct
incongruent_pinky_thumb,4,387,1,109,75.1,49.83,0.08,0.78,109,2112,Correct
incongruent_pinky_thumb,4,388,2,113,80.06,51.14,0.09,0.8,113,1534,Correct
incongruent_pinky_thumb,4,389,2,113,86.25,62.35,0.1,0.98,113,762,Correct
incongruent_pinky_thumb,4,390,1,99,48.26,69.15,0.05,1.09,109,2220,Incorrect
incongruent_pinky_thumb,4,391,2,112,31.66,61.0,0.04,0.96,112,2174,Correct
incongruent_pinky_thumb,4,392,2,112,34.28,51.18,0.04,0.8,113,2280,Incorrect
incongruent_pinky_thumb,4,393,1,99,32.28,49.92,0.04,0.78,99,1464,Correct
incongruent_pinky_thumb,4,394,1,99,40.43,51.52,0.05,0.81,99,983,Correct
incongruent_pinky_thumb,4,395,1,109,52.44,26.79,0.06,0.42,99,2524,Incorrect
incongruent_pinky_thumb,4,396,2,112,37.96,50.44,0.04,0.79,113,907,Incorrect
incongruent_pinky_thumb,4,397,1,109,34.73,23.63,0.04,0.37,99,806,Incorrect
incongruent_pinky_thumb,4,398,1,109,66.45,52.03,0.07,0.82,109,1492,Correct
