condition,subject,trial,sub_task,cat,x,y,xt,yt,resp,rt,fb
incongruent_pointer_middle,1002,0,2,100,88.71,65.67,0.1,1.03,107,3529,Incorrect
incongruent_pointer_middle,1002,1,1,106,44.04,20.44,0.05,0.32,106,1416,Correct
incongruent_pointer_middle,1002,2,2,107,35.27,52.46,0.04,0.82,107,2134,Correct
incongruent_pointer_middle,1002,3,2,107,21.7,50.52,0.02,0.79,107,3981,Correct
incongruent_pointer_middle,1002,4,2,107,59.65,72.19,0.07,1.13,100,1800,Incorrect
incongruent_pointer_middle,1002,5,1,106,67.14,35.83,0.08,0.56,106,1176,Correct
incongruent_pointer_middle,1002,6,2,107,45.31,61.1,0.05,0.96,100,4164,Incorrect
incongruent_pointer_middle,1002,7,1,102,41.44,56.39,0.05,0.89,106,1525,Incorrect
incongruent_pointer_middle,1002,8,2,100,52.35,43.44,0.06,0.68,100,1423,Correct
incongruent_pointer_middle,1002,9,1,106,57.44,44.58,0.06,0.7,106,1303,Correct
incongruent_pointer_middle,1002,10,1,102,29.05,44.06,0.03,0.69,102,2863,Correct
incongruent_pointer_middle,1002,11,2,107,46.2,69.38,0.05,1.09,107,2466,Correct
incongruent_pointer_middle,1002,12,2,107,11.62,34.47,0.01,0.54,107,2608,Correct
incongruent_pointer_middle,1002,13,1,102,44.35,75.21,0.05,1.18,102,3304,Correct
incongruent_pointer_middle,1002,14,1,106,52.35,28.55,0.06,0.45,106,18887,Correct
incongruent_pointer_middle,1002,15,2,100,80.5,57.83,0.09,0.91,100,10324,Correct
incongruent_pointer_middle,1002,16,1,102,31.61,46.02,0.04,0.72,102,2344,Correct
incongruent_pointer_middle,1002,17,1,106,57.48,40.53,0.06,0.64,106,1714,Correct
incongruent_pointer_middle,1002,18,2,100,49.23,18.81,0.06,0.3,100,1430,Correct
incongruent_pointer_middle,1002,19,1,102,38.51,67.69,0.04,1.06,102,3204,Correct
incongruent_pointer_middle,1002,20,1,106,33.47,20.2,0.04,0.32,102,1871,Incorrect
incongruent_pointer_middle,1002,21,2,107,55.36,84.97,0.06,1.33,100,2085,Incorrect
incongruent_pointer_middle,1002,22,1,106,40.12,22.18,0.04,0.35,102,5718,Incorrect
incongruent_pointer_middle,1002,23,2,100,61.98,51.2,0.07,0.8,107,1590,Incorrect
incongruent_pointer_middle,1002,24,1,106,31.69,14.98,0.04,0.24,106,941,Correct
incongruent_pointer_middle,1002,25,2,107,46.87,62.0,0.05,0.97,100,2632,Incorrect
incongruent_pointer_middle,1002,26,1,102,41.42,50.2,0.05,0.79,106,1375,Incorrect
incongruent_pointer_middle,1002,27,2,107,40.12,62.86,0.04,0.99,107,2086,Correct
incongruent_pointer_middle,1002,28,1,106,63.14,55.49,0.07,0.87,102,1408,Incorrect
incongruent_pointer_middle,1002,29,1,106,59.3,42.73,0.07,0.67,106,2343,Correct
incongruent_pointer_middle,1002,30,2,100,60.37,45.76,0.07,0.72,100,2225,Correct
incongruent_pointer_middle,1002,31,1,102,52.76,81.4,0.06,1.28,102,2726,Correct
incongruent_pointer_middle,1002,32,1,106,83.01,60.25,0.09,0.95,102,3159,Incorrect
incongruent_pointer_middle,1002,33,1,106,54.72,39.21,0.06,0.62,106,892,Correct
incongruent_pointer_middle,1002,34,2,100,70.63,48.16,0.08,0.76,100,1016,Correct
incongruent_pointer_middle,1002,35,1,102,63.94,82.13,0.07,1.29,102,1658,Correct
incongruent_pointer_middle,1002,36,2,107,49.37,65.23,0.06,1.02,100,1089,Incorrect
incongruent_pointer_middle,1002,37,2,100,85.97,64.06,0.1,1.01,107,995,Incorrect
incongruent_pointer_middle,1002,38,2,107,48.67,57.35,0.05,0.9,100,2160,Incorrect
incongruent_pointer_middle,1002,39,1,102,61.44,74.41,0.07,1.17,106,1572,Incorrect
incongruent_pointer_middle,1002,40,2,107,54.38,79.52,0.06,1.25,107,2713,Correct
incongruent_pointer_middle,1002,41,2,107,68.23,81.52,0.08,1.28,107,2555,Correct
incongruent_pointer_middle,1002,42,2,100,78.94,57.66,0.09,0.91,100,1842,Correct
incongruent_pointer_middle,1002,43,2,100,57.09,33.59,0.06,0.53,100,1187,Correct
incongruent_pointer_middle,1002,44,2,107,19.12,46.73,0.02,0.73,100,8071,Incorrect
incongruent_pointer_middle,1002,45,2,107,43.52,56.42,0.05,0.89,100,2075,Incorrect
incongruent_pointer_middle,1002,46,1,102,59.52,82.99,0.07,1.3,102,1115,Correct
incongruent_pointer_middle,1002,47,2,100,44.06,33.93,0.05,0.53,107,11024,Incorrect
incongruent_pointer_middle,1002,48,1,106,39.3,24.16,0.04,0.38,102,4399,Incorrect
incongruent_pointer_middle,1002,49,1,106,49.52,39.3,0.06,0.62,106,2549,Correct
incongruent_pointer_middle,1002,50,1,102,59.38,73.08,0.07,1.15,102,1269,Correct
incongruent_pointer_middle,1002,51,1,106,79.91,59.69,0.09,0.94,106,2050,Correct
incongruent_pointer_middle,1002,52,1,102,51.9,70.88,0.06,1.11,102,1487,Correct
incongruent_pointer_middle,1002,53,1,106,73.99,47.56,0.08,0.75,106,3617,Correct
incongruent_pointer_middle,1002,54,2,100,48.64,26.45,0.05,0.42,100,4271,Correct
incongruent_pointer_middle,1002,55,2,100,51.7,30.58,0.06,0.48,100,2063,Correct
incongruent_pointer_middle,1002,56,1,106,76.73,63.63,0.09,1.0,106,2496,Correct
incongruent_pointer_middle,1002,57,2,107,40.53,48.35,0.05,0.76,100,4172,Incorrect
incongruent_pointer_middle,1002,58,1,106,53.25,40.46,0.06,0.64,106,8377,Correct
incongruent_pointer_middle,1002,59,1,106,51.57,35.76,0.06,0.56,102,2877,Incorrect
incongruent_pointer_middle,1002,60,1,106,58.15,42.21,0.07,0.66,106,1619,Correct
incongruent_pointer_middle,1002,61,2,107,56.09,76.87,0.06,1.21,100,11717,Incorrect
incongruent_pointer_middle,1002,62,1,106,80.92,63.01,0.09,0.99,106,7813,Correct
incongruent_pointer_middle,1002,63,2,107,39.54,48.04,0.04,0.75,107,11285,Correct
incongruent_pointer_middle,1002,64,2,107,11.88,30.53,0.01,0.48,107,4186,Correct
incongruent_pointer_middle,1002,65,1,102,27.97,59.41,0.03,0.93,102,13186,Correct
incongruent_pointer_middle,1002,66,1,102,59.46,78.78,0.07,1.24,106,1621,Incorrect
incongruent_pointer_middle,1002,67,2,107,43.3,53.72,0.05,0.84,100,5236,Incorrect
incongruent_pointer_middle,1002,68,1,102,50.33,76.54,0.06,1.2,106,5353,Incorrect
incongruent_pointer_middle,1002,69,1,106,36.04,22.81,0.04,0.36,106,4353,Correct
incongruent_pointer_middle,1002,70,1,102,67.17,87.79,0.08,1.38,102,4104,Correct
incongruent_pointer_middle,1002,71,2,107,20.55,39.46,0.02,0.62,107,6135,Correct
incongruent_pointer_middle,1002,72,2,100,56.68,41.67,0.06,0.65,100,2024,Correct
incongruent_pointer_middle,1002,73,1,102,54.56,78.02,0.06,1.23,106,3424,Incorrect
incongruent_pointer_middle,1002,74,2,100,88.35,63.75,0.1,1.0,100,19162,Correct
incongruent_pointer_middle,1002,75,2,100,67.55,35.69,0.08,0.56,107,5387,Incorrect
incongruent_pointer_middle,1002,76,2,100,44.69,27.52,0.05,0.43,100,3279,Correct
incongruent_pointer_middle,1002,77,1,102,60.24,72.26,0.07,1.14,106,3911,Incorrect
incongruent_pointer_middle,1002,78,1,106,73.9,47.78,0.08,0.75,106,684,Correct
incongruent_pointer_middle,1002,79,2,100,71.17,44.82,0.08,0.7,100,4394,Correct
incongruent_pointer_middle,1002,80,1,102,25.51,48.96,0.03,0.77,102,4376,Correct
incongruent_pointer_middle,1002,81,2,107,47.54,57.98,0.05,0.91,100,3373,Incorrect
incongruent_pointer_middle,1002,82,1,102,61.7,80.67,0.07,1.27,102,3328,Correct
incongruent_pointer_middle,1002,83,1,102,30.35,46.21,0.03,0.73,106,5347,Incorrect
incongruent_pointer_middle,1002,84,2,100,56.06,39.21,0.06,0.62,100,6678,Correct
incongruent_pointer_middle,1002,85,2,107,28.75,53.35,0.03,0.84,107,1205,Correct
incongruent_pointer_middle,1002,86,2,100,37.87,13.06,0.04,0.21,107,946,Incorrect
incongruent_pointer_middle,1002,87,1,106,68.44,40.25,0.08,0.63,106,2099,Correct
incongruent_pointer_middle,1002,88,1,106,52.77,32.79,0.06,0.51,106,1357,Correct
incongruent_pointer_middle,1002,89,2,107,18.27,41.09,0.02,0.65,107,1402,Correct
incongruent_pointer_middle,1002,90,2,100,79.01,49.05,0.09,0.77,107,2461,Incorrect
incongruent_pointer_middle,1002,91,2,107,69.65,87.15,0.08,1.37,107,3042,Correct
incongruent_pointer_middle,1002,92,2,100,84.62,61.25,0.09,0.96,100,1522,Correct
incongruent_pointer_middle,1002,93,2,100,47.98,38.27,0.05,0.6,100,3969,Correct
incongruent_pointer_middle,1002,94,2,100,59.08,51.22,0.07,0.8,100,2271,Correct
incongruent_pointer_middle,1002,95,1,102,53.87,62.37,0.06,0.98,102,3026,Correct
incongruent_pointer_middle,1002,96,1,106,54.12,34.29,0.06,0.54,106,2248,Correct
incongruent_pointer_middle,1002,97,1,106,65.11,44.87,0.07,0.7,106,16874,Correct
incongruent_pointer_middle,1002,98,1,102,21.89,38.67,0.02,0.61,102,18435,Correct
incongruent_pointer_middle,1002,99,1,102,53.4,65.4,0.06,1.03,106,8059,Incorrect
incongruent_pointer_middle,1002,100,2,100,40.45,14.5,0.05,0.23,100,1808,Correct
incongruent_pointer_middle,1002,101,1,102,33.42,66.17,0.04,1.04,102,6434,Correct
incongruent_pointer_middle,1002,102,2,107,58.12,75.01,0.07,1.18,107,9692,Correct
incongruent_pointer_middle,1002,103,1,102,22.16,45.22,0.02,0.71,102,3063,Correct
incongruent_pointer_middle,1002,104,1,102,47.47,78.75,0.05,1.24,106,1630,Incorrect
incongruent_pointer_middle,1002,105,2,100,64.96,33.74,0.07,0.53,107,2259,Incorrect
incongruent_pointer_middle,1002,106,1,106,47.54,21.3,0.05,0.33,106,4101,Correct
incongruent_pointer_middle,1002,107,2,100,48.77,37.76,0.05,0.59,100,2936,Correct
incongruent_pointer_middle,1002,108,2,107,32.09,64.72,0.04,1.02,107,1601,Correct
incongruent_pointer_middle,1002,109,2,100,46.5,38.29,0.05,0.6,100,2193,Correct
incongruent_pointer_middle,1002,110,2,100,45.98,25.86,0.05,0.41,100,1673,Correct
incongruent_pointer_middle,1002,111,2,100,40.64,13.46,0.05,0.21,100,2622,Correct
incongruent_pointer_middle,1002,112,2,100,51.02,40.65,0.06,0.64,100,3731,Correct
incongruent_pointer_middle,1002,113,2,107,37.92,56.64,0.04,0.89,107,4054,Correct
incongruent_pointer_middle,1002,114,1,102,23.7,49.47,0.03,0.78,102,1919,Correct
incongruent_pointer_middle,1002,115,1,106,83.07,63.97,0.09,1.0,106,824,Correct
incongruent_pointer_middle,1002,116,1,106,63.72,54.83,0.07,0.86,106,882,Correct
incongruent_pointer_middle,1002,117,2,100,42.05,15.6,0.05,0.25,100,1296,Correct
incongruent_pointer_middle,1002,118,2,100,32.69,19.2,0.04,0.3,100,902,Correct
incongruent_pointer_middle,1002,119,1,102,19.57,39.23,0.02,0.62,102,2281,Correct
incongruent_pointer_middle,1002,120,1,106,42.53,33.56,0.05,0.53,106,971,Correct
incongruent_pointer_middle,1002,121,2,100,72.64,49.55,0.08,0.78,100,2146,Correct
incongruent_pointer_middle,1002,122,2,100,66.59,55.26,0.07,0.87,100,3567,Correct
incongruent_pointer_middle,1002,123,1,102,57.7,69.72,0.06,1.1,106,2163,Incorrect
incongruent_pointer_middle,1002,124,2,100,81.86,53.81,0.09,0.85,100,2359,Correct
incongruent_pointer_middle,1002,125,2,100,79.19,61.95,0.09,0.97,107,1577,Incorrect
incongruent_pointer_middle,1002,126,2,107,45.38,77.65,0.05,1.22,107,1533,Correct
incongruent_pointer_middle,1002,127,2,100,77.08,47.27,0.09,0.74,100,731,Correct
incongruent_pointer_middle,1002,128,2,100,62.23,41.65,0.07,0.65,100,1503,Correct
incongruent_pointer_middle,1002,129,2,100,51.75,29.14,0.06,0.46,100,1598,Correct
incongruent_pointer_middle,1002,130,1,106,45.02,18.86,0.05,0.3,106,1514,Correct
incongruent_pointer_middle,1002,131,1,106,68.22,45.28,0.08,0.71,106,1344,Correct
incongruent_pointer_middle,1002,132,2,100,47.58,37.4,0.05,0.59,100,4346,Correct
incongruent_pointer_middle,1002,133,1,106,58.97,42.94,0.07,0.67,106,1819,Correct
incongruent_pointer_middle,1002,134,1,106,68.98,53.59,0.08,0.84,106,873,Correct
incongruent_pointer_middle,1002,135,1,106,67.93,56.51,0.08,0.89,102,1322,Incorrect
incongruent_pointer_middle,1002,136,1,106,50.47,27.89,0.06,0.44,106,863,Correct
incongruent_pointer_middle,1002,137,2,100,77.7,52.76,0.09,0.83,100,1113,Correct
incongruent_pointer_middle,1002,138,2,100,48.33,25.58,0.05,0.4,100,892,Correct
incongruent_pointer_middle,1002,139,2,107,11.68,36.13,0.01,0.57,107,1004,Correct
incongruent_pointer_middle,1002,140,1,106,59.4,36.05,0.07,0.57,102,985,Incorrect
incongruent_pointer_middle,1002,141,2,107,53.69,80.71,0.06,1.27,107,1201,Correct
incongruent_pointer_middle,1002,142,1,102,49.45,68.88,0.06,1.08,102,1108,Correct
incongruent_pointer_middle,1002,143,2,107,38.95,57.41,0.04,0.9,107,2686,Incorrect
incongruent_pointer_middle,1002,144,2,100,30.45,11.42,0.03,0.18,100,4012,Correct
incongruent_pointer_middle,1002,145,1,102,65.18,87.3,0.07,1.37,102,3277,Correct
incongruent_pointer_middle,1002,146,1,102,55.92,78.22,0.06,1.23,102,5752,Correct
incongruent_pointer_middle,1002,147,1,102,42.35,70.75,0.05,1.11,102,2053,Correct
incongruent_pointer_middle,1002,148,2,100,57.3,49.38,0.06,0.78,107,1657,Incorrect
incongruent_pointer_middle,1002,149,2,100,70.57,55.97,0.08,0.88,100,1572,Correct
incongruent_pointer_middle,1002,150,1,106,32.85,20.71,0.04,0.33,102,1169,Incorrect
incongruent_pointer_middle,1002,151,1,102,12.06,30.77,0.01,0.48,102,958,Correct
incongruent_pointer_middle,1002,152,2,107,50.86,66.73,0.06,1.05,100,1640,Incorrect
incongruent_pointer_middle,1002,153,2,100,67.08,36.7,0.08,0.58,100,3652,Correct
incongruent_pointer_middle,1002,154,1,106,88.02,69.83,0.1,1.1,106,6352,Correct
incongruent_pointer_middle,1002,155,2,100,67.43,45.48,0.08,0.71,107,8514,Incorrect
incongruent_pointer_middle,1002,156,2,100,67.25,48.77,0.08,0.77,100,4872,Correct
incongruent_pointer_middle,1002,157,1,102,38.9,56.5,0.04,0.89,102,4156,Correct
incongruent_pointer_middle,1002,158,1,102,39.26,59.33,0.04,0.93,102,1325,Correct
incongruent_pointer_middle,1002,159,2,100,40.82,26.87,0.05,0.42,100,1159,Correct
incongruent_pointer_middle,1002,160,2,107,65.68,89.66,0.07,1.41,107,1557,Correct
incongruent_pointer_middle,1002,161,1,106,82.92,61.6,0.09,0.97,106,1475,Correct
incongruent_pointer_middle,1002,162,2,107,27.16,46.22,0.03,0.73,100,873,Incorrect
incongruent_pointer_middle,1002,163,2,100,80.21,55.9,0.09,0.88,107,898,Incorrect
incongruent_pointer_middle,1002,164,1,102,45.18,65.96,0.05,1.04,106,1513,Incorrect
incongruent_pointer_middle,1002,165,2,107,27.77,60.48,0.03,0.95,100,1397,Incorrect
incongruent_pointer_middle,1002,166,2,107,32.64,47.93,0.04,0.75,100,3570,Incorrect
incongruent_pointer_middle,1002,167,1,102,46.63,73.02,0.05,1.15,102,2138,Correct
incongruent_pointer_middle,1002,168,1,106,49.12,25.58,0.05,0.4,106,1270,Correct
incongruent_pointer_middle,1002,169,1,102,28.66,61.83,0.03,0.97,102,3413,Correct
incongruent_pointer_middle,1002,170,1,102,29.67,53.1,0.03,0.83,102,2356,Correct
incongruent_pointer_middle,1002,171,2,107,27.08,54.6,0.03,0.86,100,2125,Incorrect
incongruent_pointer_middle,1002,172,1,106,65.5,38.36,0.07,0.6,106,5273,Correct
incongruent_pointer_middle,1002,173,2,107,32.6,48.25,0.04,0.76,100,3085,Incorrect
incongruent_pointer_middle,1002,174,1,106,57.92,40.17,0.06,0.63,106,1061,Correct
incongruent_pointer_middle,1002,175,1,102,43.11,50.06,0.05,0.79,106,1055,Incorrect
incongruent_pointer_middle,1002,176,1,106,73.03,40.33,0.08,0.63,106,1392,Correct
incongruent_pointer_middle,1002,177,2,107,39.72,54.03,0.04,0.85,100,1969,Incorrect
incongruent_pointer_middle,1002,178,1,102,34.37,49.93,0.04,0.78,102,2929,Correct
incongruent_pointer_middle,1002,179,1,106,77.38,52.86,0.09,0.83,106,522,Correct
incongruent_pointer_middle,1002,180,1,102,29.64,62.66,0.03,0.98,102,791,Correct
incongruent_pointer_middle,1002,181,1,106,51.27,26.3,0.06,0.41,106,614,Correct
incongruent_pointer_middle,1002,182,2,107,19.64,38.4,0.02,0.6,100,694,Incorrect
incongruent_pointer_middle,1002,183,2,107,33.39,49.87,0.04,0.78,100,2268,Incorrect
incongruent_pointer_middle,1002,184,1,102,17.41,43.5,0.02,0.68,102,810,Correct
incongruent_pointer_middle,1002,185,2,107,59.76,71.17,0.07,1.12,100,2851,Incorrect
incongruent_pointer_middle,1002,186,1,106,40.97,14.48,0.05,0.23,106,1441,Correct
incongruent_pointer_middle,1002,187,1,102,23.46,48.13,0.03,0.76,1073742050,749,Correct
incongruent_pointer_middle,1002,188,1,106,44.09,17.62,0.05,0.28,106,15768,Correct
incongruent_pointer_middle,1002,189,2,100,67.21,50.72,0.08,0.8,107,5185,Incorrect
incongruent_pointer_middle,1002,190,2,100,67.28,44.16,0.08,0.69,100,4267,Correct
incongruent_pointer_middle,1002,191,1,102,29.66,52.92,0.03,0.83,102,1555,Correct
incongruent_pointer_middle,1002,192,1,106,50.81,21.65,0.06,0.34,106,900,Correct
incongruent_pointer_middle,1002,193,1,102,42.51,69.56,0.05,1.09,102,2215,Correct
incongruent_pointer_middle,1002,194,2,100,64.32,53.19,0.07,0.84,107,2799,Incorrect
incongruent_pointer_middle,1002,195,1,102,59.84,76.07,0.07,1.19,102,1355,Correct
incongruent_pointer_middle,1002,196,2,107,15.17,43.49,0.02,0.68,107,1634,Correct
incongruent_pointer_middle,1002,197,1,106,75.29,43.0,0.08,0.68,106,1214,Correct
incongruent_pointer_middle,1002,198,1,102,22.9,48.38,0.03,0.76,102,956,Correct
incongruent_pointer_middle,1002,199,2,100,61.99,53.81,0.07,0.85,100,1024,Correct
incongruent_pointer_middle,1002,200,1,102,56.42,65.02,0.06,1.02,106,1347,Incorrect
incongruent_pointer_middle,1002,201,2,107,14.56,38.16,0.02,0.6,107,1140,Correct
incongruent_pointer_middle,1002,202,1,102,13.56,40.37,0.02,0.63,102,1096,Correct
incongruent_pointer_middle,1002,203,1,106,59.43,35.26,0.07,0.55,106,677,Correct
incongruent_pointer_middle,1002,204,1,102,37.78,62.59,0.04,0.98,102,895,Correct
incongruent_pointer_middle,1002,205,1,102,58.32,78.78,0.07,1.24,106,544,Incorrect
incongruent_pointer_middle,1002,206,1,102,62.65,82.1,0.07,1.29,106,763,Incorrect
incongruent_pointer_middle,1002,207,1,106,68.51,35.41,0.08,0.56,106,604,Correct
incongruent_pointer_middle,1002,208,2,100,38.24,24.23,0.04,0.38,100,1330,Correct
incongruent_pointer_middle,1002,209,1,106,72.93,51.12,0.08,0.8,106,1773,Correct
incongruent_pointer_middle,1002,210,2,107,38.88,71.64,0.04,1.13,107,1133,Correct
incongruent_pointer_middle,1002,211,1,106,59.57,52.25,0.07,0.82,106,1862,Correct
incongruent_pointer_middle,1002,212,1,102,69.04,88.17,0.08,1.39,102,705,Correct
incongruent_pointer_middle,1002,213,1,106,69.11,53.34,0.08,0.84,106,840,Correct
incongruent_pointer_middle,1002,214,1,106,47.57,17.02,0.05,0.27,106,1551,Correct
incongruent_pointer_middle,1002,215,1,106,36.64,16.74,0.04,0.26,106,1013,Correct
incongruent_pointer_middle,1002,216,2,107,14.58,37.12,0.02,0.58,100,704,Incorrect
incongruent_pointer_middle,1002,217,2,100,37.2,25.94,0.04,0.41,100,2653,Correct
incongruent_pointer_middle,1002,218,2,107,24.16,46.51,0.03,0.73,107,2217,Correct
incongruent_pointer_middle,1002,219,1,106,49.69,33.51,0.06,0.53,106,2944,Correct
incongruent_pointer_middle,1002,220,1,102,35.49,53.17,0.04,0.84,106,813,Incorrect
incongruent_pointer_middle,1002,221,1,106,62.19,44.5,0.07,0.7,106,977,Correct
incongruent_pointer_middle,1002,222,2,107,14.95,31.6,0.02,0.5,100,670,Incorrect
incongruent_pointer_middle,1002,223,1,102,43.09,62.04,0.05,0.97,106,956,Incorrect
incongruent_pointer_middle,1002,224,2,107,50.95,61.52,0.06,0.97,100,1372,Incorrect
incongruent_pointer_middle,1002,225,2,100,73.65,47.26,0.08,0.74,107,705,Incorrect
incongruent_pointer_middle,1002,226,2,107,61.01,72.36,0.07,1.14,107,1391,Correct
incongruent_pointer_middle,1002,227,2,107,60.38,81.58,0.07,1.28,107,899,Correct
incongruent_pointer_middle,1002,228,1,106,88.66,61.96,0.1,0.97,106,1055,Correct
incongruent_pointer_middle,1002,229,2,100,72.36,48.8,0.08,0.77,100,2745,Correct
incongruent_pointer_middle,1002,230,1,102,46.55,77.78,0.05,1.22,102,1185,Correct
incongruent_pointer_middle,1002,231,1,106,53.85,32.08,0.06,0.5,106,1280,Correct
incongruent_pointer_middle,1002,232,1,106,40.53,29.78,0.05,0.47,106,1700,Correct
incongruent_pointer_middle,1002,233,2,107,13.22,34.12,0.01,0.54,100,871,Incorrect
incongruent_pointer_middle,1002,234,1,102,63.62,76.61,0.07,1.2,102,1133,Correct
incongruent_pointer_middle,1002,235,2,100,72.94,48.56,0.08,0.76,100,1309,Correct
incongruent_pointer_middle,1002,236,2,100,48.58,20.68,0.05,0.32,100,1015,Correct
incongruent_pointer_middle,1002,237,1,102,17.06,42.17,0.02,0.66,102,1533,Correct
incongruent_pointer_middle,1002,238,2,107,46.6,67.65,0.05,1.06,107,1205,Correct
incongruent_pointer_middle,1002,239,1,106,76.48,47.16,0.09,0.74,102,5657,Incorrect
incongruent_pointer_middle,1002,240,2,100,58.54,50.96,0.07,0.8,100,3015,Correct
incongruent_pointer_middle,1002,241,2,107,45.35,65.23,0.05,1.02,100,3803,Incorrect
incongruent_pointer_middle,1002,242,2,100,59.49,44.87,0.07,0.7,100,1935,Correct
incongruent_pointer_middle,1002,243,2,100,43.46,35.01,0.05,0.55,100,2007,Correct
incongruent_pointer_middle,1002,244,2,107,48.81,77.6,0.05,1.22,107,3673,Correct
incongruent_pointer_middle,1002,245,1,102,30.53,55.42,0.03,0.87,102,5881,Correct
incongruent_pointer_middle,1002,246,1,102,39.94,63.33,0.04,0.99,106,2157,Incorrect
incongruent_pointer_middle,1002,247,1,102,38.08,67.41,0.04,1.06,102,1387,Correct
incongruent_pointer_middle,1002,248,2,107,51.23,81.65,0.06,1.28,107,1320,Correct
incongruent_pointer_middle,1002,249,1,102,12.75,30.47,0.01,0.48,102,1201,Correct
incongruent_pointer_middle,1002,250,1,102,36.59,67.61,0.04,1.06,102,1572,Correct
incongruent_pointer_middle,1002,251,2,100,74.59,47.36,0.08,0.74,107,3025,Incorrect
incongruent_pointer_middle,1002,252,2,107,57.12,73.89,0.06,1.16,107,4679,Correct
incongruent_pointer_middle,1002,253,1,106,71.27,56.96,0.08,0.89,106,7936,Correct
incongruent_pointer_middle,1002,254,1,106,77.07,46.18,0.09,0.73,106,5218,Correct
incongruent_pointer_middle,1002,255,1,106,42.23,33.2,0.05,0.52,106,2736,Correct
incongruent_pointer_middle,1002,256,1,102,32.05,45.79,0.04,0.72,102,2428,Correct
incongruent_pointer_middle,1002,257,2,100,86.05,58.18,0.1,0.91,100,3129,Correct
incongruent_pointer_middle,1002,258,1,102,46.49,61.03,0.05,0.96,102,3805,Correct
incongruent_pointer_middle,1002,259,1,102,45.42,64.99,0.05,1.02,102,972,Correct
incongruent_pointer_middle,1002,260,2,107,31.82,46.94,0.04,0.74,1073742050,3739,Correct
