condition,subject,trial,sub_task,cat,x,y,xt,yt,resp,rt,fb
congruent_pointer_middle,5,0,2,107,41.2,28.68,0.05,0.45,100,1991,Incorrect
congruent_pointer_middle,5,1,1,102,26.85,55.52,0.03,0.87,106,926,Incorrect
congruent_pointer_middle,5,2,2,100,60.93,71.66,0.07,1.13,100,712,Correct
congruent_pointer_middle,5,3,2,107,37.78,14.64,0.04,0.23,107,890,Correct
congruent_pointer_middle,5,4,1,106,44.51,24.91,0.05,0.39,102,1954,Incorrect
congruent_pointer_middle,5,5,2,100,20.64,36.17,0.02,0.57,107,1137,Incorrect
congruent_pointer_middle,5,6,2,107,46.28,23.32,0.05,0.37,100,1934,Incorrect
congruent_pointer_middle,5,7,1,106,49.87,35.75,0.06,0.56,106,670,Correct
congruent_pointer_middle,5,8,1,102,37.25,51.59,0.04,0.81,106,2959,Incorrect
congruent_pointer_middle,5,9,1,102,16.32,34.58,0.02,0.54,102,1464,Correct
congruent_pointer_middle,5,10,1,102,51.2,73.63,0.06,1.16,106,2274,Incorrect
congruent_pointer_middle,5,11,2,100,47.61,54.68,0.05,0.86,107,829,Incorrect
congruent_pointer_middle,5,12,1,102,34.23,44.9,0.04,0.71,106,1725,Incorrect
congruent_pointer_middle,5,13,1,106,53.11,27.69,0.06,0.43,102,830,Incorrect
congruent_pointer_middle,5,14,1,102,11.37,30.4,0.01,0.48,102,833,Correct
congruent_pointer_middle,5,15,1,102,19.25,42.67,0.02,0.67,102,1215,Correct
congruent_pointer_middle,5,16,1,106,57.51,31.54,0.06,0.5,106,1144,Correct
congruent_pointer_middle,5,17,2,100,41.32,69.42,0.05,1.09,100,905,Correct
congruent_pointer_middle,5,18,1,102,40.97,58.08,0.05,0.91,106,775,Incorrect
congruent_pointer_middle,5,19,2,107,80.46,63.44,0.09,1.0,100,930,Incorrect
congruent_pointer_middle,5,20,1,106,61.81,33.58,0.07,0.53,106,767,Correct
congruent_pointer_middle,5,21,2,100,63.79,88.93,0.07,1.4,107,831,Incorrect
congruent_pointer_middle,5,22,1,102,60.3,77.25,0.07,1.21,106,593,Incorrect
congruent_pointer_middle,5,23,1,102,37.4,67.39,0.04,1.06,106,774,Incorrect
congruent_pointer_middle,5,24,2,107,61.85,41.6,0.07,0.65,100,1277,Incorrect
congruent_pointer_middle,5,25,1,102,37.18,44.53,0.04,0.7,102,795,Correct
congruent_pointer_middle,5,26,2,107,82.18,53.15,0.09,0.83,107,1843,Correct
congruent_pointer_middle,5,27,2,107,36.88,17.83,0.04,0.28,100,2620,Incorrect
congruent_pointer_middle,5,28,2,100,16.99,44.78,0.02,0.7,107,888,Incorrect
congruent_pointer_middle,5,29,2,100,64.68,86.86,0.07,1.36,107,1143,Incorrect
congruent_pointer_middle,5,30,2,100,21.72,53.64,0.02,0.84,107,851,Incorrect
congruent_pointer_middle,5,31,2,100,51.52,65.59,0.06,1.03,100,710,Correct
congruent_pointer_middle,5,32,2,100,50.8,59.97,0.06,0.94,100,684,Correct
congruent_pointer_middle,5,33,1,102,61.53,73.95,0.07,1.16,106,1134,Incorrect
congruent_pointer_middle,5,34,1,106,75.29,51.87,0.08,0.81,102,870,Incorrect
congruent_pointer_middle,5,35,1,102,48.68,73.99,0.05,1.16,106,722,Incorrect
congruent_pointer_middle,5,36,1,102,62.66,82.53,0.07,1.3,102,1040,Correct
congruent_pointer_middle,5,37,2,100,65.4,86.3,0.07,1.36,100,1504,Correct
congruent_pointer_middle,5,38,1,102,49.68,64.89,0.06,1.02,106,1075,Incorrect
congruent_pointer_middle,5,39,1,102,45.45,66.58,0.05,1.05,106,1242,Incorrect
congruent_pointer_middle,5,40,1,102,27.62,54.9,0.03,0.86,102,755,Correct
congruent_pointer_middle,5,41,1,106,71.75,51.14,0.08,0.8,106,2189,Correct
congruent_pointer_middle,5,42,2,100,28.56,41.52,0.03,0.65,100,940,Correct
congruent_pointer_middle,5,43,2,107,58.69,38.05,0.07,0.6,107,2723,Correct
congruent_pointer_middle,5,44,1,102,25.01,47.29,0.03,0.74,106,2343,Incorrect
congruent_pointer_middle,5,45,2,107,36.78,22.01,0.04,0.35,100,4163,Incorrect
congruent_pointer_middle,5,46,1,102,43.11,74.58,0.05,1.17,106,1211,Incorrect
congruent_pointer_middle,5,47,2,100,59.87,74.11,0.07,1.16,107,653,Incorrect
congruent_pointer_middle,5,48,2,100,37.3,51.99,0.04,0.82,100,624,Correct
congruent_pointer_middle,5,49,1,106,38.34,21.87,0.04,0.34,106,1051,Correct
congruent_pointer_middle,5,50,1,106,64.97,43.61,0.07,0.69,106,2011,Correct
congruent_pointer_middle,5,51,1,102,55.13,83.75,0.06,1.32,106,1403,Incorrect
congruent_pointer_middle,5,52,2,100,26.15,55.14,0.03,0.87,107,1364,Incorrect
congruent_pointer_middle,5,53,2,107,51.6,43.47,0.06,0.68,100,573,Incorrect
congruent_pointer_middle,5,54,1,106,70.52,52.8,0.08,0.83,106,1056,Correct
congruent_pointer_middle,5,55,2,107,38.44,29.15,0.04,0.46,100,861,Incorrect
congruent_pointer_middle,5,56,1,102,32.68,43.66,0.04,0.69,106,1626,Incorrect
congruent_pointer_middle,5,57,2,100,31.19,49.11,0.03,0.77,100,4256,Correct
congruent_pointer_middle,5,58,2,107,62.63,37.86,0.07,0.59,107,532,Correct
congruent_pointer_middle,5,59,2,100,30.14,39.89,0.03,0.63,107,761,Incorrect
congruent_pointer_middle,5,60,1,102,40.65,64.24,0.05,1.01,106,903,Incorrect
congruent_pointer_middle,5,61,2,100,13.9,41.34,0.02,0.65,100,1116,Correct
congruent_pointer_middle,5,62,1,102,25.47,42.78,0.03,0.67,106,2068,Incorrect
congruent_pointer_middle,5,63,2,107,63.88,33.48,0.07,0.53,107,1205,Correct
congruent_pointer_middle,5,64,2,100,54.32,83.38,0.06,1.31,100,970,Correct
congruent_pointer_middle,5,65,2,107,57.12,33.81,0.06,0.53,107,1090,Correct
congruent_pointer_middle,5,66,2,100,61.86,73.81,0.07,1.16,100,691,Correct
congruent_pointer_middle,5,67,1,106,33.41,14.16,0.04,0.22,106,860,Correct
congruent_pointer_middle,5,68,2,107,68.56,46.5,0.08,0.73,100,803,Incorrect
congruent_pointer_middle,5,69,1,102,29.79,57.06,0.03,0.9,106,800,Incorrect
congruent_pointer_middle,5,70,1,106,36.59,22.65,0.04,0.36,106,491,Correct
congruent_pointer_middle,5,71,2,107,71.63,59.14,0.08,0.93,100,724,Incorrect
congruent_pointer_middle,5,72,2,107,80.56,60.26,0.09,0.95,100,1048,Incorrect
congruent_pointer_middle,5,73,1,102,35.04,57.99,0.04,0.91,106,569,Incorrect
congruent_pointer_middle,5,74,1,106,42.85,17.4,0.05,0.27,106,706,Correct
congruent_pointer_middle,5,75,2,107,68.71,53.04,0.08,0.83,100,1464,Incorrect
congruent_pointer_middle,5,76,2,107,50.62,31.61,0.06,0.5,107,1834,Correct
congruent_pointer_middle,5,77,1,106,78.02,60.1,0.09,0.94,106,2324,Correct
congruent_pointer_middle,5,78,1,106,60.42,48.92,0.07,0.77,106,509,Correct
congruent_pointer_middle,5,79,2,107,69.76,37.11,0.08,0.58,107,813,Correct
congruent_pointer_middle,5,80,1,102,49.77,77.42,0.06,1.22,106,603,Incorrect
congruent_pointer_middle,5,81,1,102,51.8,77.59,0.06,1.22,102,550,Correct
congruent_pointer_middle,5,82,2,107,71.31,59.91,0.08,0.94,107,1655,Correct
congruent_pointer_middle,5,83,2,107,35.8,14.4,0.04,0.23,100,618,Incorrect
congruent_pointer_middle,5,84,1,106,64.18,45.74,0.07,0.72,106,175,Correct
congruent_pointer_middle,5,85,2,107,54.15,31.69,0.06,0.5,100,961,Incorrect
congruent_pointer_middle,5,86,2,107,78.87,64.43,0.09,1.01,107,530,Correct
congruent_pointer_middle,5,87,2,100,44.2,74.26,0.05,1.17,107,930,Incorrect
congruent_pointer_middle,5,88,2,107,64.88,51.93,0.07,0.82,107,980,Correct
congruent_pointer_middle,5,89,2,107,47.86,29.08,0.05,0.46,100,1343,Incorrect
congruent_pointer_middle,5,90,1,102,59.75,71.8,0.07,1.13,106,479,Incorrect
congruent_pointer_middle,5,91,1,106,41.91,21.97,0.05,0.35,106,874,Correct
congruent_pointer_middle,5,92,2,107,84.21,69.2,0.09,1.09,100,730,Incorrect
congruent_pointer_middle,5,93,2,107,47.22,38.04,0.05,0.6,107,1261,Correct
congruent_pointer_middle,5,94,2,100,37.7,59.39,0.04,0.93,107,1251,Incorrect
congruent_pointer_middle,5,95,2,100,26.81,44.19,0.03,0.69,107,1292,Incorrect
congruent_pointer_middle,5,96,1,102,28.79,41.5,0.03,0.65,106,545,Incorrect
congruent_pointer_middle,5,97,1,106,85.72,60.84,0.1,0.96,102,960,Incorrect
congruent_pointer_middle,5,98,2,100,49.89,73.73,0.06,1.16,107,505,Incorrect
congruent_pointer_middle,5,99,2,100,40.47,64.0,0.05,1.01,100,671,Correct
congruent_pointer_middle,5,100,2,107,54.61,26.16,0.06,0.41,100,871,Incorrect
congruent_pointer_middle,5,101,2,100,34.48,64.76,0.04,1.02,107,495,Incorrect
congruent_pointer_middle,5,102,1,102,50.05,75.89,0.06,1.19,106,740,Incorrect
congruent_pointer_middle,5,103,1,102,54.24,80.81,0.06,1.27,102,637,Correct
congruent_pointer_middle,5,104,1,102,69.23,85.44,0.08,1.34,106,689,Incorrect
congruent_pointer_middle,5,105,1,102,20.2,50.78,0.02,0.8,106,767,Incorrect
congruent_pointer_middle,5,106,2,100,36.53,51.88,0.04,0.81,107,1908,Incorrect
congruent_pointer_middle,5,107,2,100,53.81,70.36,0.06,1.11,100,1032,Correct
congruent_pointer_middle,5,108,2,100,21.58,48.74,0.02,0.77,107,582,Incorrect
congruent_pointer_middle,5,109,1,106,36.05,16.75,0.04,0.26,106,575,Correct
congruent_pointer_middle,5,110,1,106,47.0,22.86,0.05,0.36,106,508,Correct
congruent_pointer_middle,5,111,1,102,18.66,33.23,0.02,0.52,102,937,Correct
congruent_pointer_middle,5,112,2,100,43.97,74.26,0.05,1.17,107,741,Incorrect
congruent_pointer_middle,5,113,1,106,56.27,26.17,0.06,0.41,106,766,Correct
congruent_pointer_middle,5,114,1,106,62.81,29.55,0.07,0.46,106,783,Correct
congruent_pointer_middle,5,115,1,106,50.91,27.7,0.06,0.44,106,538,Correct
congruent_pointer_middle,5,116,2,107,71.19,51.25,0.08,0.8,100,1037,Incorrect
congruent_pointer_middle,5,117,2,107,67.3,42.61,0.08,0.67,107,1513,Correct
congruent_pointer_middle,5,118,2,107,62.64,33.52,0.07,0.53,107,1076,Correct
congruent_pointer_middle,5,119,1,102,30.93,40.65,0.03,0.64,102,885,Correct
congruent_pointer_middle,5,120,1,106,79.41,57.79,0.09,0.91,106,851,Correct
congruent_pointer_middle,5,121,1,102,59.36,82.77,0.07,1.3,106,992,Incorrect
congruent_pointer_middle,5,122,2,107,85.11,63.9,0.1,1.0,100,1098,Incorrect
congruent_pointer_middle,5,123,2,107,36.52,11.95,0.04,0.19,107,917,Correct
congruent_pointer_middle,5,124,2,107,46.32,32.44,0.05,0.51,100,2766,Incorrect
congruent_pointer_middle,5,125,1,106,61.95,35.02,0.07,0.55,106,857,Correct
congruent_pointer_middle,5,126,1,102,52.45,73.65,0.06,1.16,102,1672,Correct
congruent_pointer_middle,5,127,2,107,51.01,39.62,0.06,0.62,107,2154,Correct
congruent_pointer_middle,5,128,2,100,38.16,57.31,0.04,0.9,107,1090,Incorrect
congruent_pointer_middle,5,129,1,106,78.01,52.08,0.09,0.82,106,1155,Correct
congruent_pointer_middle,5,130,1,102,28.97,61.0,0.03,0.96,102,1108,Correct
congruent_pointer_middle,5,131,1,106,52.42,33.91,0.06,0.53,106,1053,Correct
congruent_pointer_middle,5,132,2,107,65.59,42.37,0.07,0.67,107,1074,Correct
congruent_pointer_middle,5,133,2,107,55.41,29.7,0.06,0.47,107,1446,Correct
congruent_pointer_middle,5,134,1,106,75.22,50.17,0.08,0.79,106,3227,Correct
congruent_pointer_middle,5,135,1,106,66.5,34.62,0.07,0.54,106,2970,Correct
congruent_pointer_middle,5,136,2,100,42.25,73.96,0.05,1.16,100,967,Correct
congruent_pointer_middle,5,137,2,107,72.76,60.73,0.08,0.95,100,3695,Incorrect
congruent_pointer_middle,5,138,2,107,81.98,62.7,0.09,0.98,107,603,Correct
congruent_pointer_middle,5,139,2,100,26.79,39.02,0.03,0.61,100,1362,Correct
congruent_pointer_middle,5,140,1,106,77.44,49.54,0.09,0.78,106,715,Correct
congruent_pointer_middle,5,141,2,100,36.22,56.77,0.04,0.89,100,913,Correct
congruent_pointer_middle,5,142,2,107,56.9,33.06,0.06,0.52,107,1061,Correct
congruent_pointer_middle,5,143,2,100,41.19,54.4,0.05,0.85,107,624,Incorrect
congruent_pointer_middle,5,144,2,107,39.91,17.3,0.04,0.27,100,718,Incorrect
congruent_pointer_middle,5,145,2,107,57.47,50.73,0.06,0.8,107,617,Correct
congruent_pointer_middle,5,146,2,107,71.16,43.62,0.08,0.69,107,775,Correct
congruent_pointer_middle,5,147,1,102,57.72,72.85,0.06,1.14,106,925,Incorrect
congruent_pointer_middle,5,148,2,100,52.15,79.25,0.06,1.24,100,836,Correct
congruent_pointer_middle,5,149,1,106,83.53,60.14,0.09,0.94,102,832,Incorrect
congruent_pointer_middle,5,150,1,106,40.74,20.15,0.05,0.32,106,1046,Correct
congruent_pointer_middle,5,151,2,100,48.84,71.32,0.05,1.12,100,1085,Correct
congruent_pointer_middle,5,152,1,106,58.09,43.66,0.06,0.69,106,1004,Correct
congruent_pointer_middle,5,153,1,106,86.24,65.77,0.1,1.03,106,1208,Correct
congruent_pointer_middle,5,154,1,106,37.77,28.18,0.04,0.44,102,1452,Incorrect
congruent_pointer_middle,5,155,2,100,40.49,58.91,0.05,0.93,107,1008,Incorrect
congruent_pointer_middle,5,156,1,106,56.77,48.76,0.06,0.77,106,815,Correct
congruent_pointer_middle,5,157,1,102,13.54,34.02,0.02,0.53,102,1266,Correct
congruent_pointer_middle,5,158,1,102,33.71,43.42,0.04,0.68,106,660,Incorrect
congruent_pointer_middle,5,159,1,102,35.41,51.67,0.04,0.81,102,901,Correct
congruent_pointer_middle,5,160,1,106,44.13,21.15,0.05,0.33,102,681,Incorrect
congruent_pointer_middle,5,161,2,107,65.79,47.46,0.07,0.75,100,942,Incorrect
congruent_pointer_middle,5,162,2,107,49.8,22.98,0.06,0.36,107,626,Correct
congruent_pointer_middle,5,163,1,102,25.06,47.28,0.03,0.74,102,902,Correct
congruent_pointer_middle,5,164,2,100,53.74,76.26,0.06,1.2,100,1077,Correct
congruent_pointer_middle,5,165,1,106,55.2,28.48,0.06,0.45,106,1303,Correct
congruent_pointer_middle,5,166,1,102,27.69,56.92,0.03,0.89,102,714,Correct
congruent_pointer_middle,5,167,2,100,28.28,55.78,0.03,0.88,107,732,Incorrect
congruent_pointer_middle,5,168,1,106,52.54,45.89,0.06,0.72,102,577,Incorrect
congruent_pointer_middle,5,169,2,100,62.6,81.62,0.07,1.28,100,750,Correct
congruent_pointer_middle,5,170,2,107,48.03,25.43,0.05,0.4,107,498,Correct
congruent_pointer_middle,5,171,2,100,51.13,63.8,0.06,1.0,107,577,Incorrect
congruent_pointer_middle,5,172,2,107,59.06,47.33,0.07,0.74,100,2312,Incorrect
congruent_pointer_middle,5,173,2,107,72.94,53.83,0.08,0.85,107,496,Correct
congruent_pointer_middle,5,174,1,106,84.35,67.7,0.09,1.06,106,652,Correct
congruent_pointer_middle,5,175,2,100,15.38,38.45,0.02,0.6,100,675,Correct
congruent_pointer_middle,5,176,1,106,88.9,64.44,0.1,1.01,102,695,Incorrect
congruent_pointer_middle,5,177,2,100,50.54,68.39,0.06,1.07,100,902,Correct
congruent_pointer_middle,5,178,1,106,70.73,37.99,0.08,0.6,106,597,Correct
congruent_pointer_middle,5,179,1,106,35.4,24.29,0.04,0.38,106,858,Correct
congruent_pointer_middle,5,180,1,102,46.18,77.68,0.05,1.22,106,1620,Incorrect
congruent_pointer_middle,5,181,1,102,20.84,46.53,0.02,0.73,102,627,Correct
congruent_pointer_middle,5,182,1,102,46.48,72.51,0.05,1.14,106,839,Incorrect
congruent_pointer_middle,5,183,2,100,14.24,30.54,0.02,0.48,100,583,Correct
congruent_pointer_middle,5,184,2,100,47.4,58.25,0.05,0.91,100,861,Correct
congruent_pointer_middle,5,185,2,100,50.2,58.26,0.06,0.92,100,600,Correct
congruent_pointer_middle,5,186,1,106,43.12,17.99,0.05,0.28,102,1326,Incorrect
congruent_pointer_middle,5,187,1,106,61.24,46.04,0.07,0.72,106,933,Correct
congruent_pointer_middle,5,188,1,102,25.78,55.15,0.03,0.87,106,2258,Incorrect
congruent_pointer_middle,5,189,2,100,25.24,37.36,0.03,0.59,100,886,Correct
congruent_pointer_middle,5,190,1,102,50.87,77.34,0.06,1.21,102,975,Correct
congruent_pointer_middle,5,191,1,102,44.4,53.62,0.05,0.84,102,622,Correct
congruent_pointer_middle,5,192,2,107,78.58,58.49,0.09,0.92,100,485,Incorrect
congruent_pointer_middle,5,193,2,107,63.49,35.51,0.07,0.56,100,580,Incorrect
congruent_pointer_middle,5,194,2,107,72.11,38.96,0.08,0.61,107,1067,Correct
congruent_pointer_middle,5,195,1,106,30.84,11.59,0.03,0.18,102,1383,Incorrect
congruent_pointer_middle,5,196,2,100,65.04,84.05,0.07,1.32,107,656,Incorrect
congruent_pointer_middle,5,197,2,107,61.97,30.93,0.07,0.49,100,567,Incorrect
congruent_pointer_middle,5,198,2,100,43.59,72.32,0.05,1.14,100,1198,Correct
congruent_pointer_middle,5,199,2,107,54.92,32.46,0.06,0.51,100,1286,Incorrect
congruent_pointer_middle,5,200,1,102,25.56,36.29,0.03,0.57,106,1072,Incorrect
congruent_pointer_middle,5,201,2,107,62.73,42.02,0.07,0.66,100,547,Incorrect
congruent_pointer_middle,5,202,1,102,41.26,62.11,0.05,0.98,106,617,Incorrect
congruent_pointer_middle,5,203,1,102,34.33,44.5,0.04,0.7,106,1204,Incorrect
congruent_pointer_middle,5,204,1,102,38.46,70.98,0.04,1.12,102,565,Correct
congruent_pointer_middle,5,205,2,107,70.6,49.38,0.08,0.78,107,959,Correct
congruent_pointer_middle,5,206,1,102,45.11,52.73,0.05,0.83,106,722,Incorrect
congruent_pointer_middle,5,207,2,107,82.96,59.59,0.09,0.94,107,682,Correct
congruent_pointer_middle,5,208,2,100,63.82,86.11,0.07,1.35,100,617,Correct
congruent_pointer_middle,5,209,2,107,79.61,56.05,0.09,0.88,100,588,Incorrect
congruent_pointer_middle,5,210,2,100,38.04,57.36,0.04,0.9,107,724,Incorrect
congruent_pointer_middle,5,211,1,106,62.38,36.62,0.07,0.58,106,843,Correct
congruent_pointer_middle,5,212,1,106,33.31,10.82,0.04,0.17,106,888,Correct
congruent_pointer_middle,5,213,2,107,49.86,24.16,0.06,0.38,100,881,Incorrect
congruent_pointer_middle,5,214,1,106,80.57,65.53,0.09,1.03,106,602,Correct
congruent_pointer_middle,5,215,2,107,53.02,29.84,0.06,0.47,107,662,Correct
congruent_pointer_middle,5,216,1,102,60.88,76.13,0.07,1.2,106,1405,Incorrect
congruent_pointer_middle,5,217,2,100,20.4,51.36,0.02,0.81,107,1288,Incorrect
congruent_pointer_middle,5,218,1,106,67.58,51.75,0.08,0.81,106,1231,Correct
congruent_pointer_middle,5,219,2,107,76.87,59.99,0.09,0.94,107,1073,Correct
congruent_pointer_middle,5,220,1,102,59.61,84.19,0.07,1.32,106,589,Incorrect
congruent_pointer_middle,5,221,1,106,60.48,45.72,0.07,0.72,106,730,Correct
congruent_pointer_middle,5,222,1,102,35.23,65.6,0.04,1.03,102,923,Correct
congruent_pointer_middle,5,223,2,100,46.74,58.64,0.05,0.92,107,577,Incorrect
congruent_pointer_middle,5,224,1,102,57.73,72.0,0.06,1.13,106,599,Incorrect
congruent_pointer_middle,5,225,2,100,59.37,73.61,0.07,1.16,107,2531,Incorrect
congruent_pointer_middle,5,226,1,106,67.39,42.47,0.08,0.67,106,602,Correct
congruent_pointer_middle,5,227,2,107,41.66,30.43,0.05,0.48,100,688,Incorrect
congruent_pointer_middle,5,228,1,106,51.14,30.63,0.06,0.48,106,1892,Correct
congruent_pointer_middle,5,229,2,100,57.07,80.98,0.06,1.27,107,677,Incorrect
congruent_pointer_middle,5,230,1,106,65.11,46.22,0.07,0.73,106,507,Correct
congruent_pointer_middle,5,231,1,102,37.67,48.86,0.04,0.77,106,691,Incorrect
congruent_pointer_middle,5,232,1,106,39.86,20.05,0.04,0.31,106,971,Correct
congruent_pointer_middle,5,233,2,100,58.94,74.71,0.07,1.17,100,2468,Correct
congruent_pointer_middle,5,234,1,106,54.82,43.48,0.06,0.68,106,806,Correct
congruent_pointer_middle,5,235,1,102,17.7,44.67,0.02,0.7,102,1054,Correct
congruent_pointer_middle,5,236,1,106,69.55,50.76,0.08,0.8,106,1241,Correct
congruent_pointer_middle,5,237,2,107,63.61,30.97,0.07,0.49,107,803,Correct
congruent_pointer_middle,5,238,2,107,49.22,22.77,0.06,0.36,107,647,Correct
congruent_pointer_middle,5,239,2,100,13.08,31.45,0.01,0.49,100,724,Correct
congruent_pointer_middle,5,240,2,100,54.88,84.53,0.06,1.33,107,1417,Incorrect
congruent_pointer_middle,5,241,1,106,57.5,38.11,0.06,0.6,106,656,Correct
congruent_pointer_middle,5,242,2,100,19.19,46.7,0.02,0.73,100,842,Correct
congruent_pointer_middle,5,243,2,100,28.18,43.56,0.03,0.68,107,681,Incorrect
congruent_pointer_middle,5,244,2,107,72.68,55.78,0.08,0.88,107,584,Correct
congruent_pointer_middle,5,245,1,106,82.64,62.14,0.09,0.98,106,724,Correct
congruent_pointer_middle,5,246,1,102,35.06,56.05,0.04,0.88,106,661,Incorrect
congruent_pointer_middle,5,247,1,102,32.16,53.09,0.04,0.83,106,659,Incorrect
congruent_pointer_middle,5,248,2,100,58.65,71.22,0.07,1.12,107,650,Incorrect
congruent_pointer_middle,5,249,2,100,61.21,79.59,0.07,1.25,100,747,Correct
congruent_pointer_middle,5,250,1,102,14.75,38.27,0.02,0.6,106,699,Incorrect
congruent_pointer_middle,5,251,1,102,40.74,52.22,0.05,0.82,102,1899,Correct
congruent_pointer_middle,5,252,1,106,59.26,43.13,0.07,0.68,106,629,Correct
congruent_pointer_middle,5,253,2,100,32.66,60.6,0.04,0.95,100,702,Correct
congruent_pointer_middle,5,254,2,107,40.0,28.29,0.04,0.44,107,530,Correct
congruent_pointer_middle,5,255,2,100,33.28,65.84,0.04,1.03,107,576,Incorrect
congruent_pointer_middle,5,256,2,107,48.19,31.78,0.05,0.5,107,515,Correct
congruent_pointer_middle,5,257,2,100,50.6,66.91,0.06,1.05,100,812,Correct
congruent_pointer_middle,5,258,2,107,57.37,33.65,0.06,0.53,107,981,Correct
congruent_pointer_middle,5,259,1,102,22.61,50.49,0.03,0.79,102,854,Correct
congruent_pointer_middle,5,260,2,107,48.87,29.28,0.05,0.46,100,891,Incorrect
congruent_pointer_middle,5,261,2,107,70.29,56.02,0.08,0.88,107,1165,Correct
congruent_pointer_middle,5,262,2,107,38.52,18.61,0.04,0.29,107,985,Correct
congruent_pointer_middle,5,263,2,100,43.58,51.09,0.05,0.8,107,477,Incorrect
congruent_pointer_middle,5,264,1,106,61.95,46.89,0.07,0.74,106,838,Correct
congruent_pointer_middle,5,265,2,107,46.53,20.89,0.05,0.33,107,617,Correct
congruent_pointer_middle,5,266,2,107,44.99,22.45,0.05,0.35,107,1601,Correct
congruent_pointer_middle,5,267,1,106,61.96,53.98,0.07,0.85,106,666,Correct
congruent_pointer_middle,5,268,1,102,54.68,68.31,0.06,1.07,106,605,Incorrect
congruent_pointer_middle,5,269,2,100,10.26,34.78,0.01,0.55,100,779,Correct
congruent_pointer_middle,5,270,1,102,31.83,49.22,0.04,0.77,106,1275,Incorrect
congruent_pointer_middle,5,271,1,102,60.13,83.79,0.07,1.32,106,725,Incorrect
congruent_pointer_middle,5,272,2,100,28.92,49.67,0.03,0.78,107,500,Incorrect
congruent_pointer_middle,5,273,1,102,53.56,73.09,0.06,1.15,102,1002,Correct
congruent_pointer_middle,5,274,1,106,37.64,21.55,0.04,0.34,106,1519,Correct
congruent_pointer_middle,5,275,2,107,58.24,47.27,0.07,0.74,107,655,Correct
congruent_pointer_middle,5,276,1,106,74.06,47.49,0.08,0.75,106,1053,Correct
congruent_pointer_middle,5,277,1,102,51.83,82.38,0.06,1.29,102,947,Correct
congruent_pointer_middle,5,278,2,107,69.18,47.98,0.08,0.75,107,704,Correct
congruent_pointer_middle,5,279,2,100,42.08,68.36,0.05,1.07,100,1026,Correct
congruent_pointer_middle,5,280,1,102,31.35,39.88,0.04,0.63,102,821,Correct
congruent_pointer_middle,5,281,2,107,41.32,15.11,0.05,0.24,107,541,Correct
congruent_pointer_middle,5,282,1,106,45.02,27.33,0.05,0.43,106,683,Correct
congruent_pointer_middle,5,283,1,106,47.48,38.89,0.05,0.61,106,557,Correct
congruent_pointer_middle,5,284,1,106,79.11,50.41,0.09,0.79,106,563,Correct
congruent_pointer_middle,5,285,1,102,24.79,43.1,0.03,0.68,102,848,Correct
congruent_pointer_middle,5,286,2,100,23.72,35.67,0.03,0.56,100,604,Correct
congruent_pointer_middle,5,287,1,102,31.8,42.74,0.04,0.67,106,657,Incorrect
congruent_pointer_middle,5,288,1,106,88.16,66.8,0.1,1.05,102,658,Incorrect
congruent_pointer_middle,5,289,2,100,51.17,75.8,0.06,1.19,100,565,Correct
congruent_pointer_middle,5,290,2,107,43.8,17.0,0.05,0.27,107,753,Correct
congruent_pointer_middle,5,291,2,107,78.86,53.97,0.09,0.85,100,583,Incorrect
congruent_pointer_middle,5,292,1,106,78.65,59.44,0.09,0.93,106,718,Correct
congruent_pointer_middle,5,293,1,106,63.26,40.41,0.07,0.63,106,614,Correct
congruent_pointer_middle,5,294,1,102,35.25,49.36,0.04,0.78,106,683,Incorrect
congruent_pointer_middle,5,295,1,106,82.09,67.2,0.09,1.06,106,659,Correct
congruent_pointer_middle,5,296,2,107,78.79,63.67,0.09,1.0,107,732,Correct
congruent_pointer_middle,5,297,1,106,53.25,29.61,0.06,0.47,106,653,Correct
congruent_pointer_middle,5,298,2,100,19.43,32.57,0.02,0.51,107,667,Incorrect
congruent_pointer_middle,5,299,2,100,27.06,41.94,0.03,0.66,107,621,Incorrect
congruent_pointer_middle,5,300,1,102,54.18,63.04,0.06,0.99,106,861,Incorrect
congruent_pointer_middle,5,301,2,100,50.39,77.97,0.06,1.22,100,595,Correct
congruent_pointer_middle,5,302,1,106,50.56,28.68,0.06,0.45,106,620,Correct
congruent_pointer_middle,5,303,1,106,78.6,51.57,0.09,0.81,106,558,Correct
congruent_pointer_middle,5,304,2,100,48.08,76.25,0.05,1.2,107,680,Incorrect
congruent_pointer_middle,5,305,1,106,78.1,56.36,0.09,0.89,106,714,Correct
congruent_pointer_middle,5,306,1,106,71.65,43.85,0.08,0.69,106,592,Correct
congruent_pointer_middle,5,307,2,107,56.22,33.96,0.06,0.53,107,782,Correct
congruent_pointer_middle,5,308,2,107,69.3,37.45,0.08,0.59,107,577,Correct
congruent_pointer_middle,5,309,2,107,46.46,37.05,0.05,0.58,107,628,Correct
congruent_pointer_middle,5,310,2,107,46.66,39.39,0.05,0.62,107,574,Correct
congruent_pointer_middle,5,311,1,102,56.77,76.61,0.06,1.2,102,1319,Correct
congruent_pointer_middle,5,312,2,107,77.9,52.84,0.09,0.83,107,695,Correct
congruent_pointer_middle,5,313,2,100,63.0,76.64,0.07,1.2,107,767,Incorrect
congruent_pointer_middle,5,314,2,100,10.73,34.6,0.01,0.54,100,693,Correct
congruent_pointer_middle,5,315,1,102,26.9,59.37,0.03,0.93,106,1507,Incorrect
congruent_pointer_middle,5,316,2,100,16.55,42.03,0.02,0.66,100,1349,Correct
congruent_pointer_middle,5,317,1,106,85.52,58.97,0.1,0.93,106,678,Correct
congruent_pointer_middle,5,318,2,107,54.38,33.31,0.06,0.52,107,634,Correct
congruent_pointer_middle,5,319,1,106,72.92,56.24,0.08,0.88,106,527,Correct
congruent_pointer_middle,5,320,2,100,58.61,86.83,0.07,1.36,107,601,Incorrect
congruent_pointer_middle,5,321,1,102,44.34,68.52,0.05,1.08,102,1177,Correct
congruent_pointer_middle,5,322,2,100,62.64,78.25,0.07,1.23,107,596,Incorrect
congruent_pointer_middle,5,323,1,106,59.65,32.47,0.07,0.51,106,459,Correct
congruent_pointer_middle,5,324,2,107,37.84,20.94,0.04,0.33,107,622,Correct
congruent_pointer_middle,5,325,1,106,35.13,16.36,0.04,0.26,106,602,Correct
congruent_pointer_middle,5,326,2,107,70.95,55.49,0.08,0.87,100,465,Incorrect
congruent_pointer_middle,5,327,2,100,55.57,76.74,0.06,1.21,107,630,Incorrect
congruent_pointer_middle,5,328,2,107,74.46,58.84,0.08,0.92,107,2087,Correct
congruent_pointer_middle,5,329,2,107,60.11,43.15,0.07,0.68,107,741,Correct
congruent_pointer_middle,5,330,1,106,54.51,26.75,0.06,0.42,106,466,Correct
congruent_pointer_middle,5,331,2,100,43.61,56.24,0.05,0.88,107,925,Incorrect
congruent_pointer_middle,5,332,2,107,81.74,58.27,0.09,0.92,100,603,Incorrect
congruent_pointer_middle,5,333,2,100,55.27,82.59,0.06,1.3,107,741,Incorrect
congruent_pointer_middle,5,334,2,100,62.15,71.81,0.07,1.13,100,613,Correct
congruent_pointer_middle,5,335,1,102,55.64,78.27,0.06,1.23,106,615,Incorrect
congruent_pointer_middle,5,336,2,107,78.78,59.08,0.09,0.93,100,642,Incorrect
congruent_pointer_middle,5,337,1,102,54.49,61.7,0.06,0.97,106,586,Incorrect
congruent_pointer_middle,5,338,2,107,55.61,30.78,0.06,0.48,107,664,Correct
congruent_pointer_middle,5,339,1,102,25.56,47.46,0.03,0.75,102,646,Correct
congruent_pointer_middle,5,340,1,106,69.33,59.81,0.08,0.94,106,720,Correct
congruent_pointer_middle,5,341,2,100,52.71,72.87,0.06,1.14,100,1142,Correct
congruent_pointer_middle,5,342,2,107,64.09,33.39,0.07,0.52,100,855,Incorrect
congruent_pointer_middle,5,343,1,106,47.84,28.27,0.05,0.44,106,603,Correct
congruent_pointer_middle,5,344,1,106,75.42,55.38,0.08,0.87,102,962,Incorrect
congruent_pointer_middle,5,345,2,107,33.92,21.44,0.04,0.34,107,535,Correct
congruent_pointer_middle,5,346,1,106,59.52,30.45,0.07,0.48,106,687,Correct
congruent_pointer_middle,5,347,1,102,46.5,77.77,0.05,1.22,106,691,Incorrect
congruent_pointer_middle,5,348,1,102,20.53,50.16,0.02,0.79,102,606,Correct
congruent_pointer_middle,5,349,1,102,50.12,64.53,0.06,1.01,102,726,Correct
congruent_pointer_middle,5,350,2,100,26.64,52.36,0.03,0.82,100,643,Correct
congruent_pointer_middle,5,351,2,100,18.06,48.06,0.02,0.75,100,731,Correct
congruent_pointer_middle,5,352,1,106,46.66,20.69,0.05,0.32,102,860,Incorrect
congruent_pointer_middle,5,353,1,102,26.97,48.45,0.03,0.76,106,520,Incorrect
congruent_pointer_middle,5,354,2,107,63.46,43.26,0.07,0.68,100,510,Incorrect
congruent_pointer_middle,5,355,2,107,86.2,66.37,0.1,1.04,107,927,Correct
congruent_pointer_middle,5,356,1,106,67.41,46.79,0.08,0.73,106,715,Correct
congruent_pointer_middle,5,357,1,102,59.53,67.75,0.07,1.06,106,1242,Incorrect
congruent_pointer_middle,5,358,1,102,61.82,81.51,0.07,1.28,106,471,Incorrect
congruent_pointer_middle,5,359,1,106,64.41,49.33,0.07,0.77,106,555,Correct
congruent_pointer_middle,5,360,2,107,34.77,14.66,0.04,0.23,100,741,Incorrect
congruent_pointer_middle,5,361,2,100,49.86,72.18,0.06,1.13,107,1693,Incorrect
congruent_pointer_middle,5,362,1,102,31.49,55.29,0.04,0.87,106,1786,Incorrect
congruent_pointer_middle,5,363,2,107,48.28,32.27,0.05,0.51,107,1623,Correct
congruent_pointer_middle,5,364,1,102,51.46,67.24,0.06,1.06,106,786,Incorrect
congruent_pointer_middle,5,365,2,100,42.8,54.59,0.05,0.86,100,935,Correct
congruent_pointer_middle,5,366,1,102,60.91,86.84,0.07,1.36,106,644,Incorrect
congruent_pointer_middle,5,367,2,107,62.59,41.67,0.07,0.65,100,661,Incorrect
congruent_pointer_middle,5,368,1,102,22.6,42.76,0.03,0.67,106,556,Incorrect
congruent_pointer_middle,5,369,1,102,35.58,61.45,0.04,0.97,102,703,Correct
congruent_pointer_middle,5,370,2,100,44.15,71.62,0.05,1.13,100,904,Correct
congruent_pointer_middle,5,371,1,106,72.49,55.14,0.08,0.87,102,1004,Incorrect
congruent_pointer_middle,5,372,1,102,45.56,70.95,0.05,1.11,106,517,Incorrect
congruent_pointer_middle,5,373,1,106,41.13,29.17,0.05,0.46,106,445,Correct
congruent_pointer_middle,5,374,2,107,83.66,67.0,0.09,1.05,100,603,Incorrect
congruent_pointer_middle,5,375,1,102,14.39,31.62,0.02,0.5,102,860,Correct
congruent_pointer_middle,5,376,1,106,61.38,36.17,0.07,0.57,106,609,Correct
congruent_pointer_middle,5,377,1,102,66.08,79.09,0.07,1.24,106,529,Incorrect
congruent_pointer_middle,5,378,2,107,67.29,52.85,0.08,0.83,107,467,Correct
congruent_pointer_middle,5,379,1,102,43.49,54.8,0.05,0.86,106,477,Incorrect
congruent_pointer_middle,5,380,1,106,58.72,35.44,0.07,0.56,106,559,Correct
congruent_pointer_middle,5,381,2,107,65.52,45.56,0.07,0.72,107,650,Correct
congruent_pointer_middle,5,382,2,100,53.75,81.53,0.06,1.28,107,836,Incorrect
congruent_pointer_middle,5,383,1,106,66.38,55.64,0.07,0.87,106,595,Correct
congruent_pointer_middle,5,384,1,102,30.56,42.1,0.03,0.66,106,697,Incorrect
congruent_pointer_middle,5,385,2,107,57.36,45.26,0.06,0.71,100,677,Incorrect
congruent_pointer_middle,5,386,2,100,40.32,54.91,0.05,0.86,107,624,Incorrect
congruent_pointer_middle,5,387,2,107,74.66,58.34,0.08,0.92,107,742,Correct
congruent_pointer_middle,5,388,1,102,45.73,62.96,0.05,0.99,106,734,Incorrect
congruent_pointer_middle,5,389,1,102,30.47,39.64,0.03,0.62,102,640,Correct
congruent_pointer_middle,5,390,2,100,12.95,31.39,0.01,0.49,100,681,Correct
congruent_pointer_middle,5,391,1,106,64.47,53.89,0.07,0.85,102,646,Incorrect
congruent_pointer_middle,5,392,2,100,34.07,66.46,0.04,1.04,107,797,Incorrect
congruent_pointer_middle,5,393,1,102,23.85,40.0,0.03,0.63,106,855,Incorrect
congruent_pointer_middle,5,394,2,100,21.38,42.47,0.02,0.67,100,1051,Correct
congruent_pointer_middle,5,395,2,100,33.56,60.42,0.04,0.95,100,684,Correct
congruent_pointer_middle,5,396,2,107,57.36,37.18,0.06,0.58,100,706,Incorrect
congruent_pointer_middle,5,397,1,102,44.82,51.73,0.05,0.81,106,517,Incorrect
congruent_pointer_middle,5,398,2,100,36.23,67.42,0.04,1.06,100,460,Correct
