condition,subject,trial,cat,x,y,xt,yt,resp,fb,rotation,su,target_angle_left,target_angle_right,rt,mt,ep
"{'cat': 'RB', 'resp': 'button'}",1,1,B,55.999403696346505,49.62938822381788,2.7999701848173255,0.7795766072305103,B,Correct,0.0,0.0,-45,45,6687,-1,-1
"{'cat': 'RB', 'resp': 'button'}",1,2,A,45.989647708604245,40.175074565281754,2.2994823854302124,0.6310685955585565,B,Incorrect,0.0,0.0,-45,45,3335,-1,-1
"{'cat': 'RB', 'resp': 'button'}",1,3,B,53.317742837404495,78.98186068014695,2.6658871418702246,1.240644166398011,A,Incorrect,0.0,0.0,-45,45,1245,-1,-1
"{'cat': 'RB', 'resp': 'button'}",1,4,B,65.53316173701441,38.007252910859364,3.2766580868507207,0.5970165326394252,B,Correct,0.0,0.0,-45,45,3925,-1,-1
"{'cat': 'RB', 'resp': 'button'}",1,5,B,67.18264926416516,68.21441415808142,3.359132463208258,1.071509511939801,B,Correct,0.0,0.0,-45,45,1047,-1,-1
"{'cat': 'RB', 'resp': 'button'}",1,6,B,56.41137269839437,52.69547417365867,2.8205686349197183,0.8277385727069838,B,Correct,0.0,0.0,-45,45,656,-1,-1
"{'cat': 'RB', 'resp': 'button'}",1,7,A,36.88070155417668,25.298317317512236,1.8440350777088341,0.3973850391643994,B,Incorrect,0.0,0.0,-45,45,616,-1,-1
"{'cat': 'RB', 'resp': 'button'}",1,8,B,62.056230539575814,39.29368201680127,3.102811526978791,0.6172237137823812,B,Correct,0.0,0.0,-45,45,843,-1,-1
"{'cat': 'RB', 'resp': 'button'}",1,9,A,36.27849673107332,22.587614828005197,1.813924836553666,0.35480542402888504,A,Correct,0.0,0.0,-45,45,564,-1,-1
"{'cat': 'RB', 'resp': 'button'}",1,10,A,45.598237004168524,29.461713692955197,2.2799118502084266,0.46278351649976934,B,Incorrect,0.0,0.0,-45,45,2431,-1,-1
"{'cat': 'RB', 'resp': 'button'}",1,11,B,65.12448182476696,81.0700679867942,3.256224091238348,1.2734456500666886,B,Correct,0.0,0.0,-45,45,2117,-1,-1
"{'cat': 'RB', 'resp': 'button'}",1,12,B,57.70894311487197,69.74873337776401,2.885447155743599,1.095610541883883,B,Correct,0.0,0.0,-45,45,933,-1,-1
"{'cat': 'RB', 'resp': 'button'}",1,13,A,35.76664971009856,86.85176188106894,1.788332485504928,1.364264285384481,A,Correct,0.0,0.0,-45,45,646,-1,-1
"{'cat': 'RB', 'resp': 'button'}",1,14,B,55.45784618117013,29.621878246109535,2.772892309058507,0.46529937541754507,A,Incorrect,0.0,0.0,-45,45,5647,-1,-1
"{'cat': 'RB', 'resp': 'button'}",1,15,B,55.275274617724364,46.201024720037275,2.7637637308862177,0.7257239992439476,B,Correct,0.0,0.0,-45,45,1077,-1,-1
"{'cat': 'RB', 'resp': 'button'}",1,16,A,43.7339607617522,33.26364465044968,2.18669803808761,0.5225041083273706,A,Correct,0.0,0.0,-45,45,660,-1,-1
"{'cat': 'RB', 'resp': 'button'}",1,17,B,68.26065767290717,39.08083942339847,3.413032883645359,0.613880390143355,B,Correct,0.0,0.0,-45,45,825,-1,-1
"{'cat': 'RB', 'resp': 'button'}",1,18,A,35.58483608192026,77.90670878004451,1.779241804096013,1.2237557198437363,A,Correct,0.0,0.0,-45,45,642,-1,-1
"{'cat': 'RB', 'resp': 'button'}",1,19,B,54.7106739135742,32.92164806149698,2.7355336956787095,0.5171320384703378,B,Correct,0.0,0.0,-45,45,811,-1,-1
"{'cat': 'RB', 'resp': 'button'}",1,20,A,34.36519979131525,61.44341472704512,1.7182599895657626,0.9651509015897793,A,Correct,0.0,0.0,-45,45,1011,-1,-1
"{'cat': 'RB', 'resp': 'button'}",1,21,B,55.855256343559866,44.54343267473823,2.7927628171779935,0.6996866042831458,A,Incorrect,0.0,0.0,-45,45,735,-1,-1
"{'cat': 'RB', 'resp': 'button'}",1,22,B,67.0658166977526,72.69353613320554,3.35329083488763,1.1418673953977136,B,Correct,0.0,0.0,-45,45,530,-1,-1
"{'cat': 'RB', 'resp': 'button'}",1,23,A,34.35238812324249,35.02049275771023,1.7176194061621246,0.5501006138635851,A,Correct,0.0,0.0,-45,45,511,-1,-1
"{'cat': 'RB', 'resp': 'button'}",1,24,B,60.53764400287939,55.35633139602501,3.0268822001439695,0.869535220217171,A,Incorrect,0.0,0.0,-45,45,669,-1,-1
"{'cat': 'RB', 'resp': 'button'}",1,25,B,57.27214439007216,57.30437533978839,2.863607219503608,0.9001350229301567,B,Correct,0.0,0.0,-45,45,1246,-1,-1
"{'cat': 'RB', 'resp': 'button'}",1,26,B,58.353417111024164,14.34908713967215,2.9176708555512083,0.22539493371856906,B,Correct,0.0,0.0,-45,45,752,-1,-1
"{'cat': 'RB', 'resp': 'button'}",1,27,B,57.34595430339627,32.228883246076,2.867297715169814,0.5062501141963777,B,Correct,0.0,0.0,-45,45,562,-1,-1
"{'cat': 'RB', 'resp': 'button'}",1,28,B,54.3312697989999,54.68504861167166,2.7165634899499946,0.858990734898142,B,Correct,0.0,0.0,-45,45,645,-1,-1
"{'cat': 'RB', 'resp': 'button'}",1,29,A,39.17304470041203,56.27523079746548,1.9586522350206013,0.8839692582619381,A,Correct,0.0,0.0,-45,45,624,-1,-1
"{'cat': 'RB', 'resp': 'button'}",1,30,A,31.27049367404092,53.99219108001634,1.563524683702046,0.8481073542409784,A,Correct,0.0,0.0,-45,45,445,-1,-1
"{'cat': 'RB', 'resp': 'button'}",1,31,A,44.462302126803344,20.52121539281537,2.2231151063401673,0.32234649760401274,B,Incorrect,0.0,0.0,-45,45,872,-1,-1
"{'cat': 'RB', 'resp': 'button'}",1,32,B,58.898074397992644,72.17921913786017,2.9449037198996324,1.1337885229267464,B,Correct,0.0,0.0,-45,45,558,-1,-1
"{'cat': 'RB', 'resp': 'button'}",1,33,B,50.658292277280566,47.024747914636215,2.5329146138640284,0.7386630129276653,A,Incorrect,0.0,0.0,-45,45,425,-1,-1
"{'cat': 'RB', 'resp': 'button'}",1,34,A,33.80110260253137,21.667604835551735,1.6900551301265687,0.34035394086128,A,Correct,0.0,0.0,-45,45,683,-1,-1
"{'cat': 'RB', 'resp': 'button'}",1,35,A,48.021806520448116,47.292388414226885,2.401090326022406,0.7428671000642512,B,Incorrect,0.0,0.0,-45,45,4636,-1,-1
"{'cat': 'RB', 'resp': 'button'}",1,36,B,59.77905115765849,81.55342350608326,2.9889525578829246,1.2810381808090416,B,Correct,0.0,0.0,-45,45,680,-1,-1
"{'cat': 'RB', 'resp': 'button'}",1,37,A,40.000126612277036,45.64958714179432,2.000006330613852,0.7170620380203405,A,Correct,0.0,0.0,-45,45,664,-1,-1
"{'cat': 'RB', 'resp': 'button'}",1,38,B,60.8301739771668,58.496523882698625,3.0415086988583404,0.9188612484521295,B,Correct,0.0,0.0,-45,45,2542,-1,-1
"{'cat': 'RB', 'resp': 'button'}",1,39,A,42.765470469035904,27.49203738407769,2.138273523451795,0.43184391339017214,A,Correct,0.0,0.0,-45,45,5157,-1,-1
"{'cat': 'RB', 'resp': 'button'}",1,40,B,55.889380521986574,38.498883425614984,2.794469026099329,0.6047390467066094,A,Incorrect,0.0,0.0,-45,45,680,-1,-1
"{'cat': 'RB', 'resp': 'button'}",1,41,A,47.267012507631314,50.753908570000306,2.3633506253815657,0.797240531522405,A,Correct,0.0,0.0,-45,45,850,-1,-1
"{'cat': 'RB', 'resp': 'button'}",1,42,B,53.53786299734969,31.102021118040387,2.6768931498674844,0.4885494052811514,B,Correct,0.0,0.0,-45,45,644,-1,-1
"{'cat': 'RB', 'resp': 'button'}",1,43,A,45.6067192360863,58.05236682019288,2.280335961804315,0.911884445629089,A,Correct,0.0,0.0,-45,45,814,-1,-1
"{'cat': 'RB', 'resp': 'button'}",1,44,B,56.409610385981864,73.78860307088516,2.8204805192990934,1.1590686666307304,B,Correct,0.0,0.0,-45,45,568,-1,-1
"{'cat': 'RB', 'resp': 'button'}",1,45,A,47.08726241741711,77.2483852750828,2.3543631208708553,1.2134147984093704,A,Correct,0.0,0.0,-45,45,889,-1,-1
"{'cat': 'RB', 'resp': 'button'}",1,46,A,42.78685988896649,54.66487372679705,2.1393429944483247,0.8586738285475966,B,Incorrect,0.0,0.0,-45,45,444,-1,-1
"{'cat': 'RB', 'resp': 'button'}",1,47,B,53.42086146438232,51.20956664887588,2.671043073219116,0.8043979918881268,A,Incorrect,0.0,0.0,-45,45,1154,-1,-1
"{'cat': 'RB', 'resp': 'button'}",1,48,B,67.85086957293503,53.5702669501886,3.3925434786467514,0.841479785507783,B,Correct,0.0,0.0,-45,45,620,-1,-1
"{'cat': 'RB', 'resp': 'button'}",1,49,A,35.84255473155613,20.93785802064307,1.7921277365778066,0.328891104697792,A,Correct,0.0,0.0,-45,45,767,-1,-1
"{'cat': 'RB', 'resp': 'button'}",1,50,A,41.964268588654384,83.89127209062681,2.0982134294327195,1.3177610205010784,B,Incorrect,0.0,0.0,-45,45,2492,-1,-1
"{'cat': 'RB', 'resp': 'button'}",1,51,B,53.89628841028999,66.86784830540029,2.6948144205144997,1.0503577049880113,B,Correct,0.0,0.0,-45,45,860,-1,-1
"{'cat': 'RB', 'resp': 'button'}",1,52,A,40.00472924461625,81.10085954130568,2.0002364622308124,1.2739293226739181,A,Correct,0.0,0.0,-45,45,587,-1,-1
"{'cat': 'RB', 'resp': 'button'}",1,53,A,38.28942720379215,19.66542031626921,1.9144713601896075,0.30890369997673406,A,Correct,0.0,0.0,-45,45,568,-1,-1
"{'cat': 'RB', 'resp': 'button'}",1,54,B,66.7491863769512,78.11655456798837,3.3374593188475603,1.2270519697726923,B,Correct,0.0,0.0,-45,45,541,-1,-1
"{'cat': 'RB', 'resp': 'button'}",1,55,B,61.79247673085068,68.6188643101971,3.0896238365425344,1.07786260007295,B,Correct,0.0,0.0,-45,45,532,-1,-1
"{'cat': 'RB', 'resp': 'button'}",1,56,B,59.90208494896913,52.705388837394,2.9951042474484564,0.8278943118807524,B,Correct,0.0,0.0,-45,45,488,-1,-1
"{'cat': 'RB', 'resp': 'button'}",1,57,A,35.328758520781236,51.752724405033234,1.7664379260390617,0.8129298939705479,A,Correct,0.0,0.0,-45,45,433,-1,-1
"{'cat': 'RB', 'resp': 'button'}",1,58,B,57.63058501541797,49.82062123395201,2.8815292507708983,0.7825804883293164,B,Correct,0.0,0.0,-45,45,629,-1,-1
"{'cat': 'RB', 'resp': 'button'}",1,59,B,66.62277783582263,47.74386642419281,3.3311388917911313,0.7499589000610823,B,Correct,0.0,0.0,-45,45,586,-1,-1
"{'cat': 'RB', 'resp': 'button'}",1,60,A,48.07104283117463,30.961567728977567,2.4035521415587313,0.4863431686048937,A,Correct,0.0,0.0,-45,45,602,-1,-1
"{'cat': 'RB', 'resp': 'button'}",1,61,B,56.00354557126042,84.97563966985742,2.800177278563021,1.3347942266045874,B,Correct,0.0,0.0,-45,45,987,-1,-1
"{'cat': 'RB', 'resp': 'button'}",1,62,A,41.618978827824044,60.54214565526313,2.080948941391202,0.9509938001156892,A,Correct,0.0,0.0,-45,45,951,-1,-1
"{'cat': 'RB', 'resp': 'button'}",1,63,A,47.89709096187187,55.779827990086446,2.394854548093593,0.8761874891607895,A,Correct,0.0,0.0,-45,45,578,-1,-1
"{'cat': 'RB', 'resp': 'button'}",1,64,B,68.51676426995346,46.681948012626485,3.4258382134976726,0.7332783246586401,B,Correct,0.0,0.0,-45,45,431,-1,-1
"{'cat': 'RB', 'resp': 'button'}",1,65,A,46.39095354596926,26.512421121753224,2.319547677298463,0.4164561371248939,A,Correct,0.0,0.0,-45,45,390,-1,-1
"{'cat': 'RB', 'resp': 'button'}",1,66,A,34.81938503185506,28.670057134043265,1.740969251592753,0.4503482043515499,B,Incorrect,0.0,0.0,-45,45,347,-1,-1
"{'cat': 'RB', 'resp': 'button'}",1,67,A,41.206758454784286,78.28022950790636,2.060337922739214,1.229622969716808,B,Incorrect,0.0,0.0,-45,45,467,-1,-1
"{'cat': 'RB', 'resp': 'button'}",1,68,B,59.54614739472231,22.07233432016963,2.9773073697361156,0.3467114167391139,B,Correct,0.0,0.0,-45,45,495,-1,-1
"{'cat': 'RB', 'resp': 'button'}",1,69,B,67.94806233210247,48.41588675146808,3.3974031166051235,0.7605149706772377,B,Correct,0.0,0.0,-45,45,691,-1,-1
"{'cat': 'RB', 'resp': 'button'}",1,70,A,41.21652176963558,72.03953837269792,2.060826088481779,1.1315944225983388,A,Correct,0.0,0.0,-45,45,597,-1,-1
"{'cat': 'RB', 'resp': 'button'}",1,71,A,41.24939112656868,50.84589867950043,2.062469556328434,0.7986855087834476,A,Correct,0.0,0.0,-45,45,411,-1,-1
"{'cat': 'RB', 'resp': 'button'}",1,72,A,36.95957682089807,30.071141391437035,1.8479788410449034,0.47235638440199273,A,Correct,0.0,0.0,-45,45,693,-1,-1
"{'cat': 'RB', 'resp': 'button'}",1,73,A,44.13585913357713,48.76806586142781,2.206792956678856,0.766046987200224,A,Correct,0.0,0.0,-45,45,595,-1,-1
"{'cat': 'RB', 'resp': 'button'}",1,74,B,62.5399013791049,15.725947159787303,3.126995068955245,0.24702260033964535,B,Correct,0.0,0.0,-45,45,553,-1,-1
"{'cat': 'RB', 'resp': 'button'}",1,75,B,62.28307746448686,39.834680776516926,3.114153873224343,0.6257217024280006,B,Correct,0.0,0.0,-45,45,535,-1,-1
"{'cat': 'RB', 'resp': 'button'}",1,76,B,56.09052755266997,53.86341028905753,2.8045263776334988,0.8460844703069802,B,Correct,0.0,0.0,-45,45,253,-1,-1
"{'cat': 'RB', 'resp': 'button'}",1,77,B,54.742924598867546,26.97990112056434,2.7371462299433773,0.4237992957747198,B,Correct,0.0,0.0,-45,45,336,-1,-1
"{'cat': 'RB', 'resp': 'button'}",1,78,A,39.7855497660455,30.496018115867606,1.989277488302275,0.47903033238275455,B,Incorrect,0.0,0.0,-45,45,251,-1,-1
"{'cat': 'RB', 'resp': 'button'}",1,79,B,54.9097987161124,70.86874263527761,2.74548993580562,1.1132036061606694,B,Correct,0.0,0.0,-45,45,335,-1,-1
"{'cat': 'RB', 'resp': 'button'}",1,80,B,55.15220314998824,66.57885367896785,2.757610157499412,1.045818188011376,B,Correct,0.0,0.0,-45,45,582,-1,-1
"{'cat': 'RB', 'resp': 'button'}",1,81,A,32.20237278647566,61.70498163824132,1.6101186393237827,0.9692595850229602,A,Correct,0.0,0.0,-45,45,357,-1,-1
"{'cat': 'RB', 'resp': 'button'}",1,82,A,43.845187484033644,28.985544092848713,2.1922593742016825,0.4553038619119827,A,Correct,0.0,0.0,-45,45,524,-1,-1
"{'cat': 'RB', 'resp': 'button'}",1,83,B,63.106687235674435,60.120172646357844,3.155334361783722,0.9443654635917392,B,Correct,0.0,0.0,-45,45,555,-1,-1
"{'cat': 'RB', 'resp': 'button'}",1,84,A,41.43693640358133,41.507504546890395,2.0718468201790667,0.6519983567667791,A,Correct,0.0,0.0,-45,45,574,-1,-1
"{'cat': 'RB', 'resp': 'button'}",1,85,B,62.20299032903885,69.85988816508873,3.1101495164519424,1.0973565572002366,B,Correct,0.0,0.0,-45,45,779,-1,-1
"{'cat': 'RB', 'resp': 'button'}",1,86,A,36.14116206136706,61.6774097756258,1.807058103068353,0.9688264872177665,A,Correct,0.0,0.0,-45,45,517,-1,-1
"{'cat': 'RB', 'resp': 'button'}",1,87,A,49.2501453922783,56.27459798078879,2.4625072696139148,0.8839593180008254,B,Incorrect,0.0,0.0,-45,45,713,-1,-1
"{'cat': 'RB', 'resp': 'button'}",1,88,A,39.23373271296512,41.3846656847893,1.961686635648256,0.6500688084330183,B,Incorrect,0.0,0.0,-45,45,3282,-1,-1
"{'cat': 'RB', 'resp': 'button'}",1,89,B,53.32710267224084,42.53965159590775,2.6663551336120417,0.6682112846998655,B,Correct,0.0,0.0,-45,45,8855,-1,-1
"{'cat': 'RB', 'resp': 'button'}",1,90,B,63.89561994576889,66.47004641263729,3.194780997288445,1.0441090474685693,B,Correct,0.0,0.0,-45,45,592,-1,-1
"{'cat': 'RB', 'resp': 'button'}",1,91,B,67.79176638783501,26.477860846767737,3.3895883193917506,0.41591326559489167,B,Correct,0.0,0.0,-45,45,604,-1,-1
"{'cat': 'RB', 'resp': 'button'}",1,92,B,61.247309446712784,48.349513805090844,3.062365472335639,0.7594723868735584,B,Correct,0.0,0.0,-45,45,1439,-1,-1
"{'cat': 'RB', 'resp': 'button'}",1,93,A,41.74241373691833,38.775255640476715,2.0871206868459167,0.6090802913059392,B,Incorrect,0.0,0.0,-45,45,1375,-1,-1
"{'cat': 'RB', 'resp': 'button'}",1,94,A,47.06339931839337,42.78757244303411,2.3531699659196685,0.6721056162598852,A,Correct,0.0,0.0,-45,45,2239,-1,-1
"{'cat': 'RB', 'resp': 'button'}",1,95,A,47.600745295215056,72.13491590167664,2.380037264760753,1.1330926093201243,A,Correct,0.0,0.0,-45,45,617,-1,-1
"{'cat': 'RB', 'resp': 'button'}",1,96,B,62.81537118972157,70.58741258541623,3.1407685594860784,1.1087844840712766,B,Correct,0.0,0.0,-45,45,689,-1,-1
"{'cat': 'RB', 'resp': 'button'}",1,97,A,38.04549138089573,60.59743575190142,1.9022745690447866,0.951862294922765,A,Correct,0.0,0.0,-45,45,479,-1,-1
"{'cat': 'RB', 'resp': 'button'}",1,98,B,51.82939692099609,53.119201263215245,2.5914698460498045,0.8343944622653735,B,Correct,0.0,0.0,-45,45,531,-1,-1
"{'cat': 'RB', 'resp': 'button'}",1,99,A,39.35403958047412,79.92476397999624,1.9677019790237062,1.2554552567972717,A,Correct,0.0,0.0,-45,45,587,-1,-1
"{'cat': 'RB', 'resp': 'button'}",1,100,A,42.00360033537026,46.93810904372812,2.100180016768513,0.7373020927258644,A,Correct,0.0,0.0,-45,45,514,-1,-1
"{'cat': 'RB', 'resp': 'button'}",1,101,B,54.133159625791095,63.11337831072817,2.706657981289555,0.991382628221085,B,Correct,0.0,0.0,-45,45,556,-1,-1
"{'cat': 'RB', 'resp': 'button'}",1,102,B,58.561474454166316,80.7596099062856,2.928073722708316,1.2685689859418217,B,Correct,0.0,0.0,-45,45,412,-1,-1
"{'cat': 'RB', 'resp': 'button'}",1,103,A,44.782706832918805,19.38396611598309,2.23913534164594,0.3044826277370297,A,Correct,0.0,0.0,-45,45,500,-1,-1
"{'cat': 'RB', 'resp': 'button'}",1,104,B,63.23669825398895,78.29506408453788,3.1618349126994474,1.2298559907016315,B,Correct,0.0,0.0,-45,45,594,-1,-1
"{'cat': 'RB', 'resp': 'button'}",1,105,B,67.68754375421467,48.33058950157178,3.384377187710734,0.7591751246090094,B,Correct,0.0,0.0,-45,45,935,-1,-1
"{'cat': 'RB', 'resp': 'button'}",1,106,A,45.43659341282228,68.2155426970027,2.271829670641114,1.0715272389877228,A,Correct,0.0,0.0,-45,45,573,-1,-1
"{'cat': 'RB', 'resp': 'button'}",1,107,A,38.98435566249486,18.374904472862994,1.9492177831247433,0.28863232451180304,B,Incorrect,0.0,0.0,-45,45,683,-1,-1
"{'cat': 'RB', 'resp': 'button'}",1,108,A,36.303537697380904,75.30400859936695,1.8151768848690453,1.182872601008169,A,Correct,0.0,0.0,-45,45,539,-1,-1
"{'cat': 'RB', 'resp': 'button'}",1,109,A,38.05747835172159,25.757150254996542,1.9028739175860796,0.404592370092528,A,Correct,0.0,0.0,-45,45,501,-1,-1
"{'cat': 'RB', 'resp': 'button'}",1,110,A,39.46015610910655,60.014080445219406,1.9730078054553275,0.9426989711932408,A,Correct,0.0,0.0,-45,45,542,-1,-1
"{'cat': 'RB', 'resp': 'button'}",1,111,B,59.67693919216159,26.58903729623422,2.9838469596080794,0.4176596211793722,B,Correct,0.0,0.0,-45,45,717,-1,-1
"{'cat': 'RB', 'resp': 'button'}",1,112,B,51.86681480232453,60.07527179941791,2.5933407401162265,0.943660162737307,A,Incorrect,0.0,0.0,-45,45,2984,-1,-1
"{'cat': 'RB', 'resp': 'button'}",1,113,B,58.900121728059716,52.520072388610586,2.945006086402986,0.8249833679103157,B,Correct,0.0,0.0,-45,45,402,-1,-1
"{'cat': 'RB', 'resp': 'button'}",1,114,B,64.31699643083778,15.493486843271874,3.2158498215418887,0.24337112222656515,B,Correct,0.0,0.0,-45,45,459,-1,-1
"{'cat': 'RB', 'resp': 'button'}",1,115,A,35.48035711390985,30.006550897018457,1.7740178556954924,0.47134179928820696,A,Correct,0.0,0.0,-45,45,600,-1,-1
"{'cat': 'RB', 'resp': 'button'}",1,116,B,67.5774827010522,62.21971643628181,3.37887413505261,0.9773450203233152,B,Correct,0.0,0.0,-45,45,420,-1,-1
"{'cat': 'RB', 'resp': 'button'}",1,117,A,41.820156373599076,74.61643325354916,2.091007818679954,1.172072192732116,A,Correct,0.0,0.0,-45,45,712,-1,-1
"{'cat': 'RB', 'resp': 'button'}",1,118,B,59.09677194155298,87.03529712969384,2.954838597077649,1.367147250328255,B,Correct,0.0,0.0,-45,45,646,-1,-1
"{'cat': 'RB', 'resp': 'button'}",1,119,B,62.514595259584446,10.848781820727645,3.1257297629792227,0.17041226634198234,B,Correct,0.0,0.0,-45,45,597,-1,-1
"{'cat': 'RB', 'resp': 'button'}",1,120,A,49.26799308616657,54.40624567445631,2.4633996543083283,0.854611308601367,A,Correct,0.0,0.0,-45,45,640,-1,-1
"{'cat': 'RB', 'resp': 'button'}",1,121,B,62.93246005067473,60.811173806586176,3.1466230025337363,0.9552196844347158,B,Correct,0.0,0.0,-45,45,1049,-1,-1
"{'cat': 'RB', 'resp': 'button'}",1,122,B,59.9992678322825,78.15800371213005,2.999963391614125,1.2277030514063578,A,Incorrect,0.0,0.0,-45,45,922,-1,-1
"{'cat': 'RB', 'resp': 'button'}",1,123,A,44.267453972521004,83.30592492043161,2.21337269862605,1.308566408652654,A,Correct,0.0,0.0,-45,45,701,-1,-1
"{'cat': 'RB', 'resp': 'button'}",1,124,A,37.059611632184996,55.39962472767888,1.85298058160925,0.870215270280537,A,Correct,0.0,0.0,-45,45,546,-1,-1
"{'cat': 'RB', 'resp': 'button'}",1,125,A,47.60567284590623,58.449965948109046,2.380283642295311,0.9181299181257646,A,Correct,0.0,0.0,-45,45,604,-1,-1
"{'cat': 'RB', 'resp': 'button'}",1,126,B,52.80415263529048,30.335269464567464,2.640207631764524,0.47650529847275963,A,Incorrect,0.0,0.0,-45,45,2542,-1,-1
"{'cat': 'RB', 'resp': 'button'}",1,127,A,40.28641922436833,38.02486184331666,2.0143209612184165,0.5972931331036523,A,Correct,0.0,0.0,-45,45,583,-1,-1
"{'cat': 'RB', 'resp': 'button'}",1,128,B,51.29968056554379,37.920020822526794,2.5649840282771894,0.5956462942001107,B,Correct,0.0,0.0,-45,45,531,-1,-1
"{'cat': 'RB', 'resp': 'button'}",1,129,A,45.335818147387414,55.46177508912044,2.2667909073693706,0.8711915258751509,A,Correct,0.0,0.0,-45,45,474,-1,-1
"{'cat': 'RB', 'resp': 'button'}",1,130,B,56.7973692413896,24.254491430616003,2.8398684620694805,0.3809886604748991,B,Correct,0.0,0.0,-45,45,508,-1,-1
"{'cat': 'RB', 'resp': 'button'}",1,131,A,39.64164321232406,66.51688257786878,1.9820821606162031,1.0448447482316374,A,Correct,0.0,0.0,-45,45,568,-1,-1
"{'cat': 'RB', 'resp': 'button'}",1,132,B,53.48272777603427,50.77751367122408,2.6741363888017133,0.7976113195853642,B,Correct,0.0,0.0,-45,45,625,-1,-1
"{'cat': 'RB', 'resp': 'button'}",1,133,A,34.37961337763723,65.61634120786869,1.7189806688818612,1.0306990774704075,A,Correct,0.0,0.0,-45,45,561,-1,-1
"{'cat': 'RB', 'resp': 'button'}",1,134,A,34.96423315324212,25.785539548712478,1.7482116576621058,0.40503830807542096,A,Correct,0.0,0.0,-45,45,495,-1,-1
"{'cat': 'RB', 'resp': 'button'}",1,135,B,55.25584082977906,30.696915514924925,2.762792041488953,0.4821860213477735,B,Correct,0.0,0.0,-45,45,1078,-1,-1
"{'cat': 'RB', 'resp': 'button'}",1,136,A,35.38705492306961,43.69767986051199,1.7693527461534808,0.6864015501435158,A,Correct,0.0,0.0,-45,45,545,-1,-1
"{'cat': 'RB', 'resp': 'button'}",1,137,B,59.78443378932215,56.49585774876119,2.989221689466108,0.8874348583088107,B,Correct,0.0,0.0,-45,45,1376,-1,-1
"{'cat': 'RB', 'resp': 'button'}",1,138,B,57.96752765724669,32.821348294059916,2.8983763828623346,0.5155565334076526,B,Correct,0.0,0.0,-45,45,721,-1,-1
"{'cat': 'RB', 'resp': 'button'}",1,139,B,60.72797931909204,82.86662020909708,3.036398965954602,1.3016658263835745,B,Correct,0.0,0.0,-45,45,1204,-1,-1
"{'cat': 'RB', 'resp': 'button'}",1,140,B,57.8367068410396,23.360653335435128,2.89183534205198,0.36694828450830447,B,Correct,0.0,0.0,-45,45,886,-1,-1
"{'cat': 'RB', 'resp': 'button'}",1,141,B,59.16988231472582,13.641147541390168,2.9584941157362907,0.2142746445128291,B,Correct,0.0,0.0,-45,45,942,-1,-1
"{'cat': 'RB', 'resp': 'button'}",1,142,B,53.75096338689421,19.721040731108786,2.6875481693447107,0.3097773834099823,A,Incorrect,0.0,0.0,-45,45,718,-1,-1
"{'cat': 'RB', 'resp': 'button'}",1,143,B,52.16337139161883,69.66043825916456,2.6081685695809416,1.0942236054041838,B,Correct,0.0,0.0,-45,45,676,-1,-1
"{'cat': 'RB', 'resp': 'button'}",1,144,B,67.38443999435806,66.80614880822134,3.3692219997179027,1.0493885315526734,B,Correct,0.0,0.0,-45,45,607,-1,-1
"{'cat': 'RB', 'resp': 'button'}",1,145,B,60.745157258202816,78.39228224223322,3.0372578629101405,1.2313830899516875,B,Correct,0.0,0.0,-45,45,374,-1,-1
"{'cat': 'RB', 'resp': 'button'}",1,146,B,54.3993438878538,26.342480860081597,2.71996719439269,0.4137867217368104,B,Correct,0.0,0.0,-45,45,567,-1,-1
"{'cat': 'RB', 'resp': 'button'}",1,147,B,52.51300623843369,37.59152270425236,2.6256503119216847,0.5904862578246657,B,Correct,0.0,0.0,-45,45,478,-1,-1
"{'cat': 'RB', 'resp': 'button'}",1,148,B,52.876887303960714,66.19543420015128,2.6438443651980355,1.039795448921909,B,Correct,0.0,0.0,-45,45,903,-1,-1
"{'cat': 'RB', 'resp': 'button'}",1,149,B,59.153874053514784,58.10199960475899,2.957693702675739,0.9126640755859395,B,Correct,0.0,0.0,-45,45,451,-1,-1
"{'cat': 'RB', 'resp': 'button'}",1,150,A,36.98809489036321,64.45718975877449,1.8494047445181605,1.0124911690860459,A,Correct,0.0,0.0,-45,45,541,-1,-1
"{'cat': 'RB', 'resp': 'button'}",1,151,B,58.289678721402396,32.49706477138896,2.9144839360701202,0.5104626997451363,B,Correct,0.0,0.0,-45,45,1353,-1,-1
"{'cat': 'RB', 'resp': 'button'}",1,152,A,31.162907053221893,58.39627109490641,1.5581453526610947,0.9172864813439798,A,Correct,0.0,0.0,-45,45,1463,-1,-1
"{'cat': 'RB', 'resp': 'button'}",1,153,A,46.494994382428565,76.91758851050292,2.3247497191214284,1.2082186549821934,A,Correct,0.0,0.0,-45,45,958,-1,-1
"{'cat': 'RB', 'resp': 'button'}",1,154,A,34.41668437851606,42.571736413489475,1.720834218925803,0.6687152718358981,A,Correct,0.0,0.0,-45,45,624,-1,-1
"{'cat': 'RB', 'resp': 'button'}",1,155,B,59.26573270695265,43.8460457801383,2.9632866353476324,0.6887320765592211,B,Correct,0.0,0.0,-45,45,783,-1,-1
"{'cat': 'RB', 'resp': 'button'}",1,156,B,53.2708183969941,63.49840786604117,2.663540919849705,0.9974306583330163,B,Correct,0.0,0.0,-45,45,514,-1,-1
"{'cat': 'RB', 'resp': 'button'}",1,157,B,52.86014308203412,49.11068331908767,2.643007154101706,0.7714288096401032,A,Incorrect,0.0,0.0,-45,45,668,-1,-1
"{'cat': 'RB', 'resp': 'button'}",1,158,B,59.78716091233913,65.0460302318712,2.9893580456169566,1.0217406536081308,B,Correct,0.0,0.0,-45,45,816,-1,-1
"{'cat': 'RB', 'resp': 'button'}",1,159,A,39.10853333805677,51.394022143759095,1.9554266669028386,0.8072954120263236,A,Correct,0.0,0.0,-45,45,1159,-1,-1
"{'cat': 'RB', 'resp': 'button'}",1,160,B,66.7749677922334,43.56062766634824,3.33874838961167,0.6842487393117995,B,Correct,0.0,0.0,-45,45,563,-1,-1
"{'cat': 'RB', 'resp': 'button'}",1,161,A,43.538411251234535,47.0356192280763,2.176920562561727,0.7388337791198566,A,Correct,0.0,0.0,-45,45,1509,-1,-1
"{'cat': 'RB', 'resp': 'button'}",1,162,B,66.94997162416996,48.8569019507394,3.347498581208498,0.7674424212279988,B,Correct,0.0,0.0,-45,45,927,-1,-1
"{'cat': 'RB', 'resp': 'button'}",1,163,B,58.778968634958794,18.219783052377373,2.9389484317479395,0.28619568293674286,B,Correct,0.0,0.0,-45,45,886,-1,-1
"{'cat': 'RB', 'resp': 'button'}",1,164,B,58.31823495630997,90.54752197002206,2.9159117478154983,1.4223171491089086,B,Correct,0.0,0.0,-45,45,579,-1,-1
"{'cat': 'RB', 'resp': 'button'}",1,165,A,37.25525835425337,48.643990702713545,1.8627629177126688,0.7640980191646753,A,Correct,0.0,0.0,-45,45,824,-1,-1
"{'cat': 'RB', 'resp': 'button'}",1,166,B,63.05642602260712,12.575532904431377,3.1528213011303556,0.19753600893769163,B,Correct,0.0,0.0,-45,45,1328,-1,-1
"{'cat': 'RB', 'resp': 'button'}",1,167,A,43.90435319021468,39.42959358327898,2.195217659510734,0.6193586076763025,B,Incorrect,0.0,0.0,-45,45,639,-1,-1
"{'cat': 'RB', 'resp': 'button'}",1,168,B,63.23602085900939,37.99940627192099,3.16180104295047,0.5968932779232045,B,Correct,0.0,0.0,-45,45,490,-1,-1
"{'cat': 'RB', 'resp': 'button'}",1,169,A,33.981135432903436,57.54130574301645,1.6990567716451719,0.9038567170011232,A,Correct,0.0,0.0,-45,45,448,-1,-1
"{'cat': 'RB', 'resp': 'button'}",1,170,B,59.424215177506476,63.94585762781779,2.9712107588753236,1.004459182755256,B,Correct,0.0,0.0,-45,45,565,-1,-1
"{'cat': 'RB', 'resp': 'button'}",1,171,A,47.27743644488935,72.3062261976358,2.3638718222444677,1.1357835451564724,B,Incorrect,0.0,0.0,-45,45,299,-1,-1
"{'cat': 'RB', 'resp': 'button'}",1,172,A,35.87382057884003,43.86999678282886,1.7936910289420016,0.689108298029715,A,Correct,0.0,0.0,-45,45,480,-1,-1
"{'cat': 'RB', 'resp': 'button'}",1,173,A,48.16310285469211,70.6067120380992,2.4081551427346057,1.1090876391651123,B,Incorrect,0.0,0.0,-45,45,685,-1,-1
"{'cat': 'RB', 'resp': 'button'}",1,174,B,67.0129867648298,35.20381736491691,3.35064933824149,0.5529802700596987,B,Correct,0.0,0.0,-45,45,485,-1,-1
"{'cat': 'RB', 'resp': 'button'}",1,175,A,39.99514934251594,11.570709903865982,1.9997574671257967,0.18175228615402012,A,Correct,0.0,0.0,-45,45,1621,-1,-1
"{'cat': 'RB', 'resp': 'button'}",1,176,A,49.144294321953616,47.26440386503188,2.4572147160976807,0.7424275197934258,B,Incorrect,0.0,0.0,-45,45,806,-1,-1
"{'cat': 'RB', 'resp': 'button'}",1,177,A,38.00061241958124,28.847991699843497,1.900030620979062,0.4531431939752383,A,Correct,0.0,0.0,-45,45,625,-1,-1
"{'cat': 'RB', 'resp': 'button'}",1,178,B,55.65213055508213,61.40601940421743,2.7826065277541066,0.9645634972324089,B,Correct,0.0,0.0,-45,45,415,-1,-1
"{'cat': 'RB', 'resp': 'button'}",1,179,B,64.8603804216856,15.012293663437646,3.24301902108428,0.23581255743294155,B,Correct,0.0,0.0,-45,45,441,-1,-1
"{'cat': 'RB', 'resp': 'button'}",1,180,A,42.37749390872239,25.535410776378242,2.1188746954361197,0.4011092945073377,A,Correct,0.0,0.0,-45,45,622,-1,-1
"{'cat': 'RB', 'resp': 'button'}",1,181,A,44.132831566946116,80.41355593289887,2.206641578347306,1.2631331828391352,B,Incorrect,0.0,0.0,-45,45,631,-1,-1
"{'cat': 'RB', 'resp': 'button'}",1,182,B,56.27014599933575,26.610593289930872,2.8135072999667874,0.4179982219365634,B,Correct,0.0,0.0,-45,45,530,-1,-1
"{'cat': 'RB', 'resp': 'button'}",1,183,B,63.14787435162832,38.14809561534878,3.157393717581416,0.5992288846681035,B,Correct,0.0,0.0,-45,45,598,-1,-1
"{'cat': 'RB', 'resp': 'button'}",1,184,B,59.6381156853246,35.217706829162175,2.98190578426623,0.553198445253875,B,Correct,0.0,0.0,-45,45,471,-1,-1
"{'cat': 'RB', 'resp': 'button'}",1,185,A,42.457171937130745,76.7573941886547,2.122858596856537,1.2057023284588673,A,Correct,0.0,0.0,-45,45,594,-1,-1
"{'cat': 'RB', 'resp': 'button'}",1,186,B,54.69509790260633,23.84700004024227,2.734754895130316,0.3745878006829031,B,Correct,0.0,0.0,-45,45,541,-1,-1
"{'cat': 'RB', 'resp': 'button'}",1,187,A,39.11266013602381,33.7983962108047,1.9556330068011905,0.5309039661949057,A,Correct,0.0,0.0,-45,45,496,-1,-1
"{'cat': 'RB', 'resp': 'button'}",1,188,A,35.105284740747585,61.78108181890983,1.7552642370373792,0.9704549638655853,A,Correct,0.0,0.0,-45,45,638,-1,-1
"{'cat': 'RB', 'resp': 'button'}",1,189,A,39.76164766816923,72.462586248694,1.9880823834084618,1.1382396430950692,A,Correct,0.0,0.0,-45,45,401,-1,-1
"{'cat': 'RB', 'resp': 'button'}",1,190,A,37.60865296365699,32.64151349841089,1.8804326481828497,0.5127316950432986,A,Correct,0.0,0.0,-45,45,278,-1,-1
"{'cat': 'RB', 'resp': 'button'}",1,191,B,53.86408161498661,29.507054483739115,2.6932040807493305,0.4634957279759428,A,Incorrect,0.0,0.0,-45,45,298,-1,-1
"{'cat': 'RB', 'resp': 'button'}",1,192,A,40.38975642894408,48.25954140078155,2.0194878214472043,0.758059103651539,A,Correct,0.0,0.0,-45,45,555,-1,-1
"{'cat': 'RB', 'resp': 'button'}",1,193,B,52.72096046583135,47.25548845379008,2.636048023291567,0.742287476841121,B,Correct,0.0,0.0,-45,45,631,-1,-1
"{'cat': 'RB', 'resp': 'button'}",1,194,B,62.49612771472191,77.40601867847631,3.1248063857360955,1.2158908981196777,B,Correct,0.0,0.0,-45,45,467,-1,-1
"{'cat': 'RB', 'resp': 'button'}",1,195,B,55.87357398912588,61.48111187783061,2.793678699456294,0.965743047049624,B,Correct,0.0,0.0,-45,45,353,-1,-1
"{'cat': 'RB', 'resp': 'button'}",1,196,A,37.21397217514976,30.57541811489375,1.8606986087574882,0.4802775446509324,A,Correct,0.0,0.0,-45,45,459,-1,-1
"{'cat': 'RB', 'resp': 'button'}",1,197,B,56.62700961208703,70.98567073849269,2.8313504806043515,1.1150403085109628,B,Correct,0.0,0.0,-45,45,557,-1,-1
"{'cat': 'RB', 'resp': 'button'}",1,198,B,60.34875737161441,43.68400712571627,3.0174378685807204,0.686186779327572,B,Correct,0.0,0.0,-45,45,406,-1,-1
"{'cat': 'RB', 'resp': 'button'}",1,199,A,46.782019571369084,46.39196020967193,2.3391009785684544,0.7287232069016766,B,Incorrect,0.0,0.0,-45,45,1430,-1,-1
"{'cat': 'RB', 'resp': 'button'}",1,200,B,55.192559619086815,72.82106478653192,2.759627980954341,1.1438706107997754,B,Correct,0.0,0.0,-45,45,555,-1,-1
"{'cat': 'RB', 'resp': 'button'}",1,201,B,54.750415167304695,64.61487365553937,2.737520758365235,1.0149680619443757,B,Correct,0.0,0.0,-45,45,526,-1,-1
"{'cat': 'RB', 'resp': 'button'}",1,202,A,35.91223993224384,41.913828739087435,1.795611996612192,0.6583808822526891,A,Correct,0.0,0.0,-45,45,581,-1,-1
"{'cat': 'RB', 'resp': 'button'}",1,203,A,35.21652296635968,74.63315696279355,1.7608261483179843,1.1723348881426308,A,Correct,0.0,0.0,-45,45,557,-1,-1
"{'cat': 'RB', 'resp': 'button'}",1,204,B,63.717008123507966,48.1714017813116,3.1858504061753985,0.7566746097464541,B,Correct,0.0,0.0,-45,45,484,-1,-1
"{'cat': 'RB', 'resp': 'button'}",1,205,B,59.24599443290593,9.946184579331252,2.9622997216452966,0.15623430202837574,B,Correct,0.0,0.0,-45,45,599,-1,-1
"{'cat': 'RB', 'resp': 'button'}",1,206,A,40.020604713519226,25.792321570749383,2.001030235675961,0.405144839828459,A,Correct,0.0,0.0,-45,45,556,-1,-1
"{'cat': 'RB', 'resp': 'button'}",1,207,A,45.499262770103726,56.33833455456431,2.274963138505186,0.8849604897605162,B,Incorrect,0.0,0.0,-45,45,534,-1,-1
"{'cat': 'RB', 'resp': 'button'}",1,208,A,46.91215400614089,61.71682224812442,2.3456077003070446,0.9694455768880739,B,Incorrect,0.0,0.0,-45,45,309,-1,-1
"{'cat': 'RB', 'resp': 'button'}",1,209,A,38.601962314587276,24.749747463376234,1.9300981157293637,0.38876812404572697,A,Correct,0.0,0.0,-45,45,590,-1,-1
"{'cat': 'RB', 'resp': 'button'}",1,210,B,66.25059384131588,42.15773180829914,3.312529692065794,0.6622121027048066,B,Correct,0.0,0.0,-45,45,467,-1,-1
"{'cat': 'RB', 'resp': 'button'}",1,211,B,66.27009423166677,52.820565474343134,3.313504711583339,0.8297035022632753,B,Correct,0.0,0.0,-45,45,377,-1,-1
"{'cat': 'RB', 'resp': 'button'}",1,212,A,42.41689173313758,20.67632252627187,2.120844586656879,0.32478291475894433,A,Correct,0.0,0.0,-45,45,547,-1,-1
"{'cat': 'RB', 'resp': 'button'}",1,213,A,42.792117517841135,25.80259831403346,2.1396058758920566,0.4053062665344796,A,Correct,0.0,0.0,-45,45,632,-1,-1
"{'cat': 'RB', 'resp': 'button'}",1,214,A,37.572358344793024,27.143273310785343,1.8786179172396513,0.4263655401377157,A,Correct,0.0,0.0,-45,45,384,-1,-1
"{'cat': 'RB', 'resp': 'button'}",1,215,A,49.02186507262242,50.722326318482374,2.4510932536311207,0.7967444386756422,B,Incorrect,0.0,0.0,-45,45,2102,-1,-1
"{'cat': 'RB', 'resp': 'button'}",1,216,B,57.99942350647548,58.11442468618191,2.899971175323774,0.9128592483085322,B,Correct,0.0,0.0,-45,45,456,-1,-1
"{'cat': 'RB', 'resp': 'button'}",1,217,B,55.02927035205805,73.96464716329551,2.7514635176029025,1.1618339607678516,B,Correct,0.0,0.0,-45,45,562,-1,-1
"{'cat': 'RB', 'resp': 'button'}",1,218,A,37.79317075315485,12.729758402990036,1.8896585376577422,0.19995857740403217,A,Correct,0.0,0.0,-45,45,800,-1,-1
"{'cat': 'RB', 'resp': 'button'}",1,219,A,34.67996504945147,57.760003576879356,1.7339982524725734,0.9072920145422216,A,Correct,0.0,0.0,-45,45,737,-1,-1
"{'cat': 'RB', 'resp': 'button'}",1,220,A,38.82327212487777,47.388277779173,1.9411636062438884,0.7443733266866117,A,Correct,0.0,0.0,-45,45,1583,-1,-1
"{'cat': 'RB', 'resp': 'button'}",1,221,A,40.178790201754886,59.70881230767355,2.0089395100877443,0.937903830501795,A,Correct,0.0,0.0,-45,45,580,-1,-1
"{'cat': 'RB', 'resp': 'button'}",1,222,A,33.08788140032388,33.585958187145025,1.654394070016194,0.5275669975225439,A,Correct,0.0,0.0,-45,45,1620,-1,-1
"{'cat': 'RB', 'resp': 'button'}",1,223,B,63.63130175013889,41.17767325253583,3.1815650875069448,0.6468173789104373,B,Correct,0.0,0.0,-45,45,496,-1,-1
"{'cat': 'RB', 'resp': 'button'}",1,224,A,44.966624058148454,31.587148422957096,2.2483312029074227,0.4961697671670621,A,Correct,0.0,0.0,-45,45,558,-1,-1
"{'cat': 'RB', 'resp': 'button'}",1,225,B,52.25311869256545,28.92988840938639,2.6126559346282727,0.45442962448050395,B,Correct,0.0,0.0,-45,45,636,-1,-1
"{'cat': 'RB', 'resp': 'button'}",1,226,A,45.72262522731497,64.23489647596406,2.2861312613657487,1.0089993943649478,A,Correct,0.0,0.0,-45,45,474,-1,-1
"{'cat': 'RB', 'resp': 'button'}",1,227,B,63.137193879336124,23.32523490271628,3.156859693966806,0.36639193306814843,B,Correct,0.0,0.0,-45,45,550,-1,-1
"{'cat': 'RB', 'resp': 'button'}",1,228,A,41.08987358705784,21.920855193496838,2.054493679352892,0.34433198818147664,A,Correct,0.0,0.0,-45,45,592,-1,-1
"{'cat': 'RB', 'resp': 'button'}",1,229,A,48.357504448542834,43.67347781348511,2.4178752224271416,0.6860213852778082,A,Correct,0.0,0.0,-45,45,2528,-1,-1
"{'cat': 'RB', 'resp': 'button'}",1,230,B,54.4663806867131,61.3560131927819,2.7233190343356553,0.9637780015000103,B,Correct,0.0,0.0,-45,45,586,-1,-1
"{'cat': 'RB', 'resp': 'button'}",1,231,B,63.04434542891219,40.130130820346956,3.1522172714456094,0.6303626208639966,B,Correct,0.0,0.0,-45,45,375,-1,-1
"{'cat': 'RB', 'resp': 'button'}",1,232,B,61.52413842668575,65.88063071607405,3.0762069213342875,1.0348505273574016,B,Correct,0.0,0.0,-45,45,441,-1,-1
"{'cat': 'RB', 'resp': 'button'}",1,233,A,48.22536623143909,42.52713725787797,2.4112683115719546,0.668014709937771,A,Correct,0.0,0.0,-45,45,534,-1,-1
"{'cat': 'RB', 'resp': 'button'}",1,234,A,48.541634902233945,44.78532933810383,2.427081745111697,0.703486308185932,A,Correct,0.0,0.0,-45,45,333,-1,-1
"{'cat': 'RB', 'resp': 'button'}",1,235,B,58.29728254208962,49.45047016868365,2.9148641271044813,0.776766168992489,A,Incorrect,0.0,0.0,-45,45,321,-1,-1
"{'cat': 'RB', 'resp': 'button'}",1,236,B,61.7278512972406,57.49752466170538,3.08639256486203,0.9031690053840578,B,Correct,0.0,0.0,-45,45,546,-1,-1
"{'cat': 'RB', 'resp': 'button'}",1,237,A,39.25881431065164,63.756906416424904,1.962940715532582,1.0014911440672623,A,Correct,0.0,0.0,-45,45,614,-1,-1
"{'cat': 'RB', 'resp': 'button'}",1,238,B,63.861970060623605,72.21669872880713,3.1930985030311803,1.1343772509646393,B,Correct,0.0,0.0,-45,45,414,-1,-1
"{'cat': 'RB', 'resp': 'button'}",1,239,A,34.09330741997089,53.70181379654375,1.7046653709985446,0.8435461185383443,A,Correct,0.0,0.0,-45,45,456,-1,-1
"{'cat': 'RB', 'resp': 'button'}",1,240,B,52.461155842877744,48.73361301812673,2.6230577921438876,0.7655058032031743,B,Correct,0.0,0.0,-45,45,424,-1,-1
"{'cat': 'RB', 'resp': 'button'}",1,241,A,45.41393079821154,47.62537274972014,2.2706965399105767,0.7480976057749815,A,Correct,0.0,0.0,-45,45,631,-1,-1
"{'cat': 'RB', 'resp': 'button'}",1,242,B,53.706019764457665,43.52705677998247,2.6853009882228833,0.6837214090618937,B,Correct,0.0,0.0,-45,45,419,-1,-1
"{'cat': 'RB', 'resp': 'button'}",1,243,B,61.4955157037276,46.88310858130924,3.0747757851863797,0.7364381474824686,B,Correct,0.0,0.0,-45,45,444,-1,-1
"{'cat': 'RB', 'resp': 'button'}",1,244,A,35.11990033718947,69.24306382129868,1.7559950168594736,1.0876675030652057,A,Correct,0.0,0.0,-45,45,411,-1,-1
"{'cat': 'RB', 'resp': 'button'}",1,245,B,63.49455124333918,48.975420262818304,3.174727562166959,0.7693041025207134,B,Correct,0.0,0.0,-45,45,424,-1,-1
"{'cat': 'RB', 'resp': 'button'}",1,246,B,57.68538234545629,19.497922476376463,2.8842691172728143,0.306272650060238,B,Correct,0.0,0.0,-45,45,509,-1,-1
"{'cat': 'RB', 'resp': 'button'}",1,247,A,39.800531987085016,71.24503396951954,1.9900265993542507,1.1191143766169893,A,Correct,0.0,0.0,-45,45,428,-1,-1
"{'cat': 'RB', 'resp': 'button'}",1,248,A,40.751031743803054,25.938508349382488,2.0375515871901526,0.4074411363774877,A,Correct,0.0,0.0,-45,45,491,-1,-1
"{'cat': 'RB', 'resp': 'button'}",1,249,B,53.77251811964013,45.618954505091594,2.6886259059820063,0.7165808616882138,B,Correct,0.0,0.0,-45,45,521,-1,-1
"{'cat': 'RB', 'resp': 'button'}",1,250,A,35.27584679435094,24.582419426288713,1.763792339717547,0.3861397413854582,A,Correct,0.0,0.0,-45,45,533,-1,-1
"{'cat': 'RB', 'resp': 'button'}",1,251,B,53.510331732859626,76.14583459698639,2.6755165866429813,1.1960959728567797,B,Correct,0.0,0.0,-45,45,409,-1,-1
"{'cat': 'RB', 'resp': 'button'}",1,252,A,37.67463895704616,85.4154397664556,1.8837319478523082,1.3417025903671922,A,Correct,0.0,0.0,-45,45,514,-1,-1
"{'cat': 'RB', 'resp': 'button'}",1,253,A,37.506732873113734,14.26270876706144,1.8753366436556866,0.22403810541445474,A,Correct,0.0,0.0,-45,45,644,-1,-1
"{'cat': 'RB', 'resp': 'button'}",1,254,B,65.43902120438516,66.55041386751734,3.2719510602192576,1.0453714564977636,B,Correct,0.0,0.0,-45,45,467,-1,-1
"{'cat': 'RB', 'resp': 'button'}",1,255,B,52.24218386835504,32.78867719940731,2.612109193417752,0.5150433370529258,A,Incorrect,0.0,0.0,-45,45,580,-1,-1
"{'cat': 'RB', 'resp': 'button'}",1,256,A,38.164002915146824,50.632746149203875,1.9082001457573412,0.795337316667079,A,Correct,0.0,0.0,-45,45,511,-1,-1
"{'cat': 'RB', 'resp': 'button'}",1,257,A,47.082293316009086,56.15031917626401,2.3541146658004544,0.8820071511043656,B,Incorrect,0.0,0.0,-45,45,580,-1,-1
"{'cat': 'RB', 'resp': 'button'}",1,258,B,62.84689088142499,57.539592193110224,3.1423445440712494,0.9038298006221385,B,Correct,0.0,0.0,-45,45,327,-1,-1
"{'cat': 'RB', 'resp': 'button'}",1,259,B,62.23661726226674,25.907037491066163,3.1118308631133367,0.406946793291044,B,Correct,0.0,0.0,-45,45,701,-1,-1
"{'cat': 'RB', 'resp': 'button'}",1,260,B,62.118598261246206,73.3632888225321,3.1059299130623104,1.152387846040265,B,Correct,0.0,0.0,-45,45,438,-1,-1
"{'cat': 'RB', 'resp': 'button'}",1,261,B,55.21552940953036,29.028479240960667,2.760776470476518,0.4559782856414293,B,Correct,0.0,0.0,-45,45,387,-1,-1
"{'cat': 'RB', 'resp': 'button'}",1,262,B,57.21992091703013,48.21574547598356,2.8609960458515062,0.7573711588735262,B,Correct,0.0,0.0,-45,45,419,-1,-1
"{'cat': 'RB', 'resp': 'button'}",1,263,B,58.628160869479316,10.896539707156336,2.9314080434739656,0.17116244546775908,B,Correct,0.0,0.0,-45,45,526,-1,-1
"{'cat': 'RB', 'resp': 'button'}",1,264,A,43.656500057096665,71.00298817946644,2.182825002854833,1.1153123302376735,A,Correct,0.0,0.0,-45,45,447,-1,-1
"{'cat': 'RB', 'resp': 'button'}",1,265,B,63.900136364702824,71.01353018599042,3.195006818235141,1.1154779236889225,B,Correct,0.0,0.0,-45,45,395,-1,-1
"{'cat': 'RB', 'resp': 'button'}",1,266,A,33.73268192530967,68.54078788379866,1.6866340962654833,1.0766361784349907,A,Correct,0.0,0.0,-45,45,493,-1,-1
"{'cat': 'RB', 'resp': 'button'}",1,267,B,59.583622229192464,57.76243049482033,2.979181111459623,0.9073301364800928,B,Correct,0.0,0.0,-45,45,603,-1,-1
"{'cat': 'RB', 'resp': 'button'}",1,268,B,59.44119780290198,40.90108006507053,2.9720598901450987,0.6424726632815676,B,Correct,0.0,0.0,-45,45,676,-1,-1
"{'cat': 'RB', 'resp': 'button'}",1,269,B,61.833992265439406,62.30990039541793,3.0916996132719703,0.9787616266407835,B,Correct,0.0,0.0,-45,45,641,-1,-1
"{'cat': 'RB', 'resp': 'button'}",1,270,B,53.4609741088866,63.55434930812041,2.67304870544433,0.998309384450353,B,Correct,0.0,0.0,-45,45,645,-1,-1
"{'cat': 'RB', 'resp': 'button'}",1,271,A,39.929076218486664,62.26219783043701,1.9964538109243333,0.9780123165022763,A,Correct,0.0,0.0,-45,45,845,-1,-1
"{'cat': 'RB', 'resp': 'button'}",1,272,B,68.65396474225244,45.285787641405335,3.4326982371126222,0.7113474888313323,B,Correct,0.0,0.0,-45,45,576,-1,-1
"{'cat': 'RB', 'resp': 'button'}",1,273,B,62.77793468747049,62.051493228603576,3.138896734373525,0.974702576356289,B,Correct,0.0,0.0,-45,45,573,-1,-1
"{'cat': 'RB', 'resp': 'button'}",1,274,A,46.686155435686025,21.837793142844955,2.3343077717843013,0.34302725254087635,A,Correct,0.0,0.0,-45,45,507,-1,-1
"{'cat': 'RB', 'resp': 'button'}",1,275,A,44.731535269561284,42.94078766951707,2.2365767634780642,0.67451231540957,A,Correct,0.0,0.0,-45,45,598,-1,-1
"{'cat': 'RB', 'resp': 'button'}",1,276,A,45.87589542350936,80.83099756140145,2.293794771175468,1.2696903406061664,B,Incorrect,0.0,0.0,-45,45,583,-1,-1
"{'cat': 'RB', 'resp': 'button'}",1,277,A,43.82899885370021,53.70849444119964,2.191449942685011,0.8436510578592052,A,Correct,0.0,0.0,-45,45,680,-1,-1
"{'cat': 'RB', 'resp': 'button'}",1,278,A,31.733758003842304,63.03700914697198,1.586687900192115,0.9901830242019989,A,Correct,0.0,0.0,-45,45,559,-1,-1
"{'cat': 'RB', 'resp': 'button'}",1,279,B,65.81055111329496,55.282646305943864,3.2905275556647484,0.8683777775287809,B,Correct,0.0,0.0,-45,45,640,-1,-1
"{'cat': 'RB', 'resp': 'button'}",1,280,A,38.70167048460575,27.869585524830704,1.9350835242302875,0.4377744257170029,A,Correct,0.0,0.0,-45,45,566,-1,-1
"{'cat': 'RB', 'resp': 'button'}",1,281,A,47.153893748380796,53.147421259258046,2.35769468741904,0.8348377409266353,B,Incorrect,0.0,0.0,-45,45,635,-1,-1
"{'cat': 'RB', 'resp': 'button'}",1,282,B,55.34745972559334,75.67766721267336,2.767372986279667,1.1887420167807388,B,Correct,0.0,0.0,-45,45,405,-1,-1
"{'cat': 'RB', 'resp': 'button'}",1,283,A,38.88885763044243,32.64815934002364,1.9444428815221215,0.5128360876792363,A,Correct,0.0,0.0,-45,45,575,-1,-1
"{'cat': 'RB', 'resp': 'button'}",1,284,B,60.089787419788415,17.57380739173793,3.0044893709894205,0.27604872098742944,B,Correct,0.0,0.0,-45,45,493,-1,-1
"{'cat': 'RB', 'resp': 'button'}",1,285,A,43.28132568107875,36.5861464630553,2.1640662840539373,0.5746938447574736,A,Correct,0.0,0.0,-45,45,425,-1,-1
"{'cat': 'RB', 'resp': 'button'}",1,286,B,55.508880426526915,43.43502091061566,2.7754440213263454,0.6822757130065461,B,Correct,0.0,0.0,-45,45,368,-1,-1
"{'cat': 'RB', 'resp': 'button'}",1,287,A,40.70666593059507,55.74787811298314,2.0353332965297537,0.8756856216648352,A,Correct,0.0,0.0,-45,45,803,-1,-1
"{'cat': 'RB', 'resp': 'button'}",1,288,A,43.70009736613671,12.10221795145862,2.1850048683068355,0.19010119504222456,A,Correct,0.0,0.0,-45,45,490,-1,-1
"{'cat': 'RB', 'resp': 'button'}",1,289,B,61.2583185605817,76.17661503258783,3.062915928029085,1.1965794708085786,B,Correct,0.0,0.0,-45,45,627,-1,-1
"{'cat': 'RB', 'resp': 'button'}",1,290,B,53.969664959542,47.87847304900856,2.6984832479771,0.752073295979311,B,Correct,0.0,0.0,-45,45,808,-1,-1
"{'cat': 'RB', 'resp': 'button'}",1,291,A,40.248868727430484,12.553127457238638,2.012443436371524,0.19718406499618613,A,Correct,0.0,0.0,-45,45,433,-1,-1
"{'cat': 'RB', 'resp': 'button'}",1,292,A,36.04993968550873,46.90359070365185,1.8024969842754366,0.7367598799078758,A,Correct,0.0,0.0,-45,45,461,-1,-1
"{'cat': 'RB', 'resp': 'button'}",1,293,B,51.037667969503175,38.48059079174601,2.5518833984751588,0.6044517066857215,B,Correct,0.0,0.0,-45,45,555,-1,-1
"{'cat': 'RB', 'resp': 'button'}",1,294,B,61.13887879399969,29.713725883413034,3.0569439396999845,0.4667421147305564,B,Correct,0.0,0.0,-45,45,426,-1,-1
"{'cat': 'RB', 'resp': 'button'}",1,295,A,37.277909590962054,78.50131797286778,1.8638954795481026,1.233095819203389,A,Correct,0.0,0.0,-45,45,469,-1,-1
"{'cat': 'RB', 'resp': 'button'}",1,296,A,47.38283186431284,32.279167269195284,2.369141593215642,0.5070399737845,A,Correct,0.0,0.0,-45,45,451,-1,-1
"{'cat': 'RB', 'resp': 'button'}",1,297,A,32.02681279537663,50.147112468624286,1.6013406397688315,0.7877090006508557,A,Correct,0.0,0.0,-45,45,413,-1,-1
"{'cat': 'RB', 'resp': 'button'}",1,298,B,53.45327654608094,50.28720866729846,2.672663827304047,0.789909626593609,B,Correct,0.0,0.0,-45,45,345,-1,-1
"{'cat': 'RB', 'resp': 'button'}",1,299,A,45.74508892646293,36.11128012667073,2.2872544463231463,0.5672346617883592,A,Correct,0.0,0.0,-45,45,489,-1,-1
"{'cat': 'RB', 'resp': 'button'}",1,300,B,57.82008018036139,28.512215680478473,2.8910040090180695,0.44786883659679433,B,Correct,0.0,0.0,-45,45,517,-1,-1
"{'cat': 'RB', 'resp': 'button'}",1,301,A,37.077601800558384,18.849149994732894,1.8538800900279193,0.29608175574932477,A,Correct,0.0,0.0,-45,45,1569,-1,-1
"{'cat': 'RB', 'resp': 'button'}",1,302,A,39.37128877600185,38.51239578953791,1.9685644388000925,0.6049512984227741,A,Correct,0.0,0.0,-45,45,586,-1,-1
"{'cat': 'RB', 'resp': 'button'}",1,303,B,51.215723866279276,45.91065917057099,2.560786193313964,0.7211629478586534,B,Correct,0.0,0.0,-45,45,1087,-1,-1
"{'cat': 'RB', 'resp': 'button'}",1,304,B,52.43732658577172,42.30617216732422,2.621866329288586,0.6645437984118538,B,Correct,0.0,0.0,-45,45,759,-1,-1
"{'cat': 'RB', 'resp': 'button'}",1,305,A,41.90360728714347,70.3516100091337,2.095180364357174,1.1050805058645428,B,Incorrect,0.0,0.0,-45,45,1022,-1,-1
"{'cat': 'RB', 'resp': 'button'}",1,306,A,34.48706547257994,31.59419403833823,1.7243532736289973,0.49628043943466915,A,Correct,0.0,0.0,-45,45,463,-1,-1
"{'cat': 'RB', 'resp': 'button'}",1,307,B,65.31031026321695,42.18620257180555,3.2655155131608473,0.6626593204121758,B,Correct,0.0,0.0,-45,45,653,-1,-1
"{'cat': 'RB', 'resp': 'button'}",1,308,A,40.13262517145226,82.78441457948458,2.006631258572613,1.3003745433732024,A,Correct,0.0,0.0,-45,45,608,-1,-1
"{'cat': 'RB', 'resp': 'button'}",1,309,B,53.69746204538129,56.334648230420036,2.6848731022690644,0.8849025851162641,A,Incorrect,0.0,0.0,-45,45,687,-1,-1
"{'cat': 'RB', 'resp': 'button'}",1,310,B,63.97135418206383,50.95223371392028,3.1985677091031914,0.8003558155982106,B,Correct,0.0,0.0,-45,45,431,-1,-1
"{'cat': 'RB', 'resp': 'button'}",1,311,A,45.220768852772004,59.88938392427306,2.2610384426386,0.9407402428225745,A,Correct,0.0,0.0,-45,45,481,-1,-1
"{'cat': 'RB', 'resp': 'button'}",1,312,A,39.765687466401765,32.73180479842839,1.9882843733200883,0.5141499874673888,A,Correct,0.0,0.0,-45,45,1090,-1,-1
"{'cat': 'RB', 'resp': 'button'}",1,313,A,36.37395921383751,57.14614713412656,1.8186979606918754,0.897649580087667,A,Correct,0.0,0.0,-45,45,492,-1,-1
"{'cat': 'RB', 'resp': 'button'}",1,314,A,32.26600993590922,50.386982074289556,1.6133004967954607,0.7914768636057434,A,Correct,0.0,0.0,-45,45,555,-1,-1
"{'cat': 'RB', 'resp': 'button'}",1,315,B,67.54879268920321,57.556644472260636,3.3774396344601603,0.9040976571966679,B,Correct,0.0,0.0,-45,45,715,-1,-1
"{'cat': 'RB', 'resp': 'button'}",1,316,A,33.63886222852413,30.574300152575546,1.6819431114262067,0.48025998373990314,A,Correct,0.0,0.0,-45,45,498,-1,-1
"{'cat': 'RB', 'resp': 'button'}",1,317,B,61.559308343512186,19.974293355354817,3.077965417175609,0.3137554663291506,B,Correct,0.0,0.0,-45,45,825,-1,-1
"{'cat': 'RB', 'resp': 'button'}",1,318,A,42.615593642809046,15.448130680530483,2.130779682140452,0.2426586692882483,A,Correct,0.0,0.0,-45,45,426,-1,-1
"{'cat': 'RB', 'resp': 'button'}",1,319,A,46.84487675708672,61.14955539219344,2.342243837854336,0.9605349699519852,A,Correct,0.0,0.0,-45,45,407,-1,-1
"{'cat': 'RB', 'resp': 'button'}",1,320,B,65.66529715752846,20.1743007272527,3.283264857876423,0.3168971747802415,B,Correct,0.0,0.0,-45,45,503,-1,-1
"{'cat': 'RB', 'resp': 'button'}",1,321,A,36.58545444987334,62.171899388017835,1.829272722493667,0.976593911885603,A,Correct,0.0,0.0,-45,45,497,-1,-1
"{'cat': 'RB', 'resp': 'button'}",1,322,B,67.25662740964005,30.1450252851175,3.3628313704820023,0.4735169498900185,B,Correct,0.0,0.0,-45,45,448,-1,-1
"{'cat': 'RB', 'resp': 'button'}",1,323,A,42.87209160862644,50.51124766351167,2.143604580431322,0.7934288229167143,A,Correct,0.0,0.0,-45,45,417,-1,-1
"{'cat': 'RB', 'resp': 'button'}",1,324,B,52.838957665507834,38.131883918790045,2.641947883275392,0.5989742319340479,B,Correct,0.0,0.0,-45,45,571,-1,-1
"{'cat': 'RB', 'resp': 'button'}",1,325,A,34.7890185474618,17.99397248203531,1.73945092737309,0.2826486587922951,A,Correct,0.0,0.0,-45,45,592,-1,-1
"{'cat': 'RB', 'resp': 'button'}",1,326,A,42.470404414708305,25.085877617581417,2.1235202207354154,0.39404804416123196,B,Incorrect,0.0,0.0,-45,45,518,-1,-1
"{'cat': 'RB', 'resp': 'button'}",1,327,A,33.829916799676965,56.340176803791785,1.6914958399838482,0.8849894277437117,A,Correct,0.0,0.0,-45,45,719,-1,-1
"{'cat': 'RB', 'resp': 'button'}",1,328,A,38.019688277500414,52.73223500523772,1.9009844138750207,0.8283160104991266,A,Correct,0.0,0.0,-45,45,423,-1,-1
"{'cat': 'RB', 'resp': 'button'}",1,329,A,34.013951133696274,35.46940885688771,1.7006975566848137,0.5571521714598558,A,Correct,0.0,0.0,-45,45,478,-1,-1
"{'cat': 'RB', 'resp': 'button'}",1,330,A,45.415945337373564,83.21620101808244,2.270797266868678,1.3071570288902963,A,Correct,0.0,0.0,-45,45,711,-1,-1
"{'cat': 'RB', 'resp': 'button'}",1,331,A,42.45694461760039,86.51883935757351,2.1228472308800197,1.3590347506143419,A,Correct,0.0,0.0,-45,45,506,-1,-1
"{'cat': 'RB', 'resp': 'button'}",1,332,B,66.06360120332175,22.78345516335947,3.3031800601660875,0.3578816768230128,B,Correct,0.0,0.0,-45,45,443,-1,-1
"{'cat': 'RB', 'resp': 'button'}",1,333,B,53.74748013869089,36.135375636401676,2.6873740069345446,0.5676131531701354,B,Correct,0.0,0.0,-45,45,765,-1,-1
"{'cat': 'RB', 'resp': 'button'}",1,334,A,39.92805189246425,62.681664907073326,1.9964025946232125,0.9846012899341935,A,Correct,0.0,0.0,-45,45,818,-1,-1
"{'cat': 'RB', 'resp': 'button'}",1,335,A,40.658102634810646,46.05533880669265,2.0329051317405322,0.7234355702684728,A,Correct,0.0,0.0,-45,45,434,-1,-1
"{'cat': 'RB', 'resp': 'button'}",1,336,B,67.71450307049967,45.99918055323524,3.3857251535249837,0.7225534384859715,B,Correct,0.0,0.0,-45,45,537,-1,-1
"{'cat': 'RB', 'resp': 'button'}",1,337,A,39.17674260822255,88.12533164455289,1.9588371304111274,1.3842694724484574,A,Correct,0.0,0.0,-45,45,648,-1,-1
"{'cat': 'RB', 'resp': 'button'}",1,338,A,37.7846224754487,14.259435436853558,1.889231123772435,0.22398668806378552,B,Incorrect,0.0,0.0,-45,45,482,-1,-1
"{'cat': 'RB', 'resp': 'button'}",1,339,A,41.923324082713144,58.8202337962864,2.0961662041356575,0.9239460718842373,A,Correct,0.0,0.0,-45,45,585,-1,-1
"{'cat': 'RB', 'resp': 'button'}",1,340,B,60.09973776712677,81.63935437037203,3.0049868883563384,1.2823879796688729,B,Correct,0.0,0.0,-45,45,498,-1,-1
"{'cat': 'RB', 'resp': 'button'}",1,341,B,61.89604272829798,46.58991442058795,3.094802136414899,0.7318326643754814,B,Correct,0.0,0.0,-45,45,520,-1,-1
"{'cat': 'RB', 'resp': 'button'}",1,342,A,42.425545466822285,10.759093889216189,2.1212772733411143,0.16900345160822206,B,Incorrect,0.0,0.0,-45,45,934,-1,-1
"{'cat': 'RB', 'resp': 'button'}",1,343,A,44.69382293813535,55.705317028574825,2.2346911469067674,0.8750170737143053,B,Incorrect,0.0,0.0,-45,45,671,-1,-1
"{'cat': 'RB', 'resp': 'button'}",1,344,B,63.11308091367335,83.35521016003072,3.1556540456836677,1.309340579385929,B,Correct,0.0,0.0,-45,45,367,-1,-1
"{'cat': 'RB', 'resp': 'button'}",1,345,B,66.85720877645757,63.16046410255041,3.3428604388228784,0.992122250109471,B,Correct,0.0,0.0,-45,45,466,-1,-1
"{'cat': 'RB', 'resp': 'button'}",1,346,B,61.681542755307575,36.73210139456287,3.084077137765379,0.5769864994603705,B,Correct,0.0,0.0,-45,45,405,-1,-1
"{'cat': 'RB', 'resp': 'button'}",1,347,A,34.782646866219366,70.02344323619963,1.7391323433109682,1.0999256742495331,A,Correct,0.0,0.0,-45,45,430,-1,-1
"{'cat': 'RB', 'resp': 'button'}",1,348,B,64.00975760936375,63.646964441141904,3.2004878804681876,0.9997641795579109,B,Correct,0.0,0.0,-45,45,478,-1,-1
"{'cat': 'RB', 'resp': 'button'}",1,349,B,61.9665996488469,83.71591111408117,3.098329982442345,1.3150064567228674,B,Correct,0.0,0.0,-45,45,654,-1,-1
"{'cat': 'RB', 'resp': 'button'}",1,350,A,33.13614118898903,38.8708290989566,1.6568070594494515,0.6105815556811319,A,Correct,0.0,0.0,-45,45,1044,-1,-1
"{'cat': 'RB', 'resp': 'button'}",1,351,A,44.650634513403766,22.038584739305243,2.232531725670188,0.3461812795625874,B,Incorrect,0.0,0.0,-45,45,585,-1,-1
"{'cat': 'RB', 'resp': 'button'}",1,352,A,45.307490457515726,81.23535619487859,2.2653745228757862,1.2760419911679033,B,Incorrect,0.0,0.0,-45,45,811,-1,-1
"{'cat': 'RB', 'resp': 'button'}",1,353,B,60.13738020270989,17.207388142108947,3.0068690101354947,0.2702930208735879,B,Correct,0.0,0.0,-45,45,432,-1,-1
"{'cat': 'RB', 'resp': 'button'}",1,354,A,39.773125011280314,54.13616688245752,1.9886562505640157,0.8503689208571981,A,Correct,0.0,0.0,-45,45,447,-1,-1
"{'cat': 'RB', 'resp': 'button'}",1,355,A,42.89034564303987,37.013167158172614,2.1445172821519933,0.5814014701510304,A,Correct,0.0,0.0,-45,45,490,-1,-1
"{'cat': 'RB', 'resp': 'button'}",1,356,A,43.178885597375796,50.71878122501444,2.15894427986879,0.7966887524776665,A,Correct,0.0,0.0,-45,45,396,-1,-1
"{'cat': 'RB', 'resp': 'button'}",1,357,B,51.98057834400578,63.71764766526962,2.5990289172002887,1.0008744690461693,A,Incorrect,0.0,0.0,-45,45,325,-1,-1
"{'cat': 'RB', 'resp': 'button'}",1,358,B,51.61019653633074,58.327428929207166,2.5805098268165367,0.91620511113389,B,Correct,0.0,0.0,-45,45,425,-1,-1
"{'cat': 'RB', 'resp': 'button'}",1,359,A,45.58514642191824,33.15987368501037,2.279257321095912,0.5208740778139703,B,Incorrect,0.0,0.0,-45,45,365,-1,-1
"{'cat': 'RB', 'resp': 'button'}",1,360,B,65.72263761624687,79.7465931992497,3.286131880812343,1.2526565567178831,B,Correct,0.0,0.0,-45,45,616,-1,-1
"{'cat': 'RB', 'resp': 'button'}",1,361,A,47.67808050615073,65.78857565595881,2.3839040253075363,1.0334045298544825,A,Correct,0.0,0.0,-45,45,739,-1,-1
"{'cat': 'RB', 'resp': 'button'}",1,362,A,39.44204465686949,21.046662387084982,1.9721022328434745,0.33060019968925397,A,Correct,0.0,0.0,-45,45,609,-1,-1
"{'cat': 'RB', 'resp': 'button'}",1,363,A,31.786960154559694,53.878356881028296,1.5893480077279847,0.8463192508246378,A,Correct,0.0,0.0,-45,45,455,-1,-1
"{'cat': 'RB', 'resp': 'button'}",1,364,B,65.16552965624913,48.71862630839615,3.2582764828124566,0.7652703925172188,B,Correct,0.0,0.0,-45,45,497,-1,-1
"{'cat': 'RB', 'resp': 'button'}",1,365,A,36.80444762080577,62.02364880518316,1.8402223810402885,0.9742651971759838,A,Correct,0.0,0.0,-45,45,574,-1,-1
"{'cat': 'RB', 'resp': 'button'}",1,366,A,39.90734928211926,90.86987617679765,1.9953674641059633,1.427380677148208,B,Incorrect,0.0,0.0,-45,45,416,-1,-1
"{'cat': 'RB', 'resp': 'button'}",1,367,B,60.58448332221265,53.366719834568855,3.029224166110632,0.8382824748923311,B,Correct,0.0,0.0,-45,45,416,-1,-1
"{'cat': 'RB', 'resp': 'button'}",1,368,B,63.106183106254846,52.28051046439377,3.155309155312742,0.8212203380043189,B,Correct,0.0,0.0,-45,45,409,-1,-1
"{'cat': 'RB', 'resp': 'button'}",1,369,B,52.48405841774036,35.48620633568581,2.6242029208870177,0.5574160256398105,A,Incorrect,0.0,0.0,-45,45,925,-1,-1
"{'cat': 'RB', 'resp': 'button'}",1,370,A,32.54305759960722,62.26824985822333,1.627152879980361,0.9781073815324405,A,Correct,0.0,0.0,-45,45,431,-1,-1
"{'cat': 'RB', 'resp': 'button'}",1,371,A,33.070058157902565,63.203583385796804,1.6535029078951282,0.9927995662268456,A,Correct,0.0,0.0,-45,45,400,-1,-1
"{'cat': 'RB', 'resp': 'button'}",1,372,A,41.298726110857736,28.843059266709588,2.064936305542887,0.4530657154967493,B,Incorrect,0.0,0.0,-45,45,996,-1,-1
"{'cat': 'RB', 'resp': 'button'}",1,373,B,59.251410177249866,42.67875556860904,2.962570508862493,0.6703963247934831,B,Correct,0.0,0.0,-45,45,441,-1,-1
"{'cat': 'RB', 'resp': 'button'}",1,374,A,38.14482678015026,73.4640885287637,1.907241339007513,1.1539712041231713,A,Correct,0.0,0.0,-45,45,565,-1,-1
"{'cat': 'RB', 'resp': 'button'}",1,375,B,58.28461941878823,80.70194902157198,2.914230970939412,1.2676632508827426,B,Correct,0.0,0.0,-45,45,400,-1,-1
"{'cat': 'RB', 'resp': 'button'}",1,376,A,44.68451529928955,64.77672960146343,2.2342257649644774,1.0175104891976499,A,Correct,0.0,0.0,-45,45,565,-1,-1
"{'cat': 'RB', 'resp': 'button'}",1,377,B,60.95816075658571,14.155934579698545,3.0479080378292855,0.2223609004013933,B,Correct,0.0,0.0,-45,45,457,-1,-1
"{'cat': 'RB', 'resp': 'button'}",1,378,A,43.01859224040962,54.522478440341814,2.150929612020481,0.8564370886184286,A,Correct,0.0,0.0,-45,45,566,-1,-1
"{'cat': 'RB', 'resp': 'button'}",1,379,B,65.78051963597724,77.37135569527415,3.2890259817988623,1.2153464132527803,B,Correct,0.0,0.0,-45,45,525,-1,-1
"{'cat': 'RB', 'resp': 'button'}",1,380,B,57.71042441389416,31.145569174437497,2.8855212206947076,0.48923345655142775,B,Correct,0.0,0.0,-45,45,850,-1,-1
"{'cat': 'RB', 'resp': 'button'}",1,381,B,53.13259942161282,31.70595301663541,2.656629971080641,0.4980359453606248,B,Correct,0.0,0.0,-45,45,556,-1,-1
"{'cat': 'RB', 'resp': 'button'}",1,382,B,57.589105065262736,68.37656278910929,2.879455253263137,1.0740565366799348,B,Correct,0.0,0.0,-45,45,942,-1,-1
"{'cat': 'RB', 'resp': 'button'}",1,383,B,65.1518978008608,28.7976740883122,3.25759489004304,0.4523528067815737,B,Correct,0.0,0.0,-45,45,597,-1,-1
"{'cat': 'RB', 'resp': 'button'}",1,384,A,47.764936161090525,35.453098231379784,2.3882468080545265,0.5568959647535,A,Correct,0.0,0.0,-45,45,502,-1,-1
"{'cat': 'RB', 'resp': 'button'}",1,385,B,66.1867522307427,69.1263334145365,3.309337611537135,1.0858339061235325,B,Correct,0.0,0.0,-45,45,431,-1,-1
"{'cat': 'RB', 'resp': 'button'}",1,386,B,64.32312634055035,27.97305615918582,3.2161563170275174,0.43939973864076437,B,Correct,0.0,0.0,-45,45,417,-1,-1
"{'cat': 'RB', 'resp': 'button'}",1,387,A,45.25887057474751,75.28431840581922,2.2629435287373756,1.1825633081711824,B,Incorrect,0.0,0.0,-45,45,338,-1,-1
"{'cat': 'RB', 'resp': 'button'}",1,388,A,38.27894461415363,60.2848202038697,1.9139472307076815,0.9469517413772929,B,Incorrect,0.0,0.0,-45,45,324,-1,-1
"{'cat': 'RB', 'resp': 'button'}",1,389,A,38.79092991107593,20.11231678927707,1.9395464955537962,0.3159235333593175,A,Correct,0.0,0.0,-45,45,572,-1,-1
"{'cat': 'RB', 'resp': 'button'}",1,390,B,54.1437550338177,46.99668816691785,2.707187751690885,0.7382222514411974,B,Correct,0.0,0.0,-45,45,1301,-1,-1
"{'cat': 'RB', 'resp': 'button'}",1,391,A,39.52807900097074,9.5716194027045,1.976403950048537,0.1503506459924699,A,Correct,0.0,0.0,-45,45,420,-1,-1
"{'cat': 'RB', 'resp': 'button'}",1,392,B,56.363500093996386,61.624720227717056,2.8181750046998193,0.9679988417346113,B,Correct,0.0,0.0,-45,45,557,-1,-1
"{'cat': 'RB', 'resp': 'button'}",1,393,B,64.13293093803193,79.08365069963746,3.2066465469015966,1.242243080285212,B,Correct,0.0,0.0,-45,45,560,-1,-1
"{'cat': 'RB', 'resp': 'button'}",1,394,A,32.46956545915651,54.44839313826798,1.6234782729578257,0.8552733594147579,A,Correct,0.0,0.0,-45,45,466,-1,-1
"{'cat': 'RB', 'resp': 'button'}",1,395,A,34.98946463797209,48.416514099891394,1.7494732318986046,0.7605248250432272,A,Correct,0.0,0.0,-45,45,598,-1,-1
"{'cat': 'RB', 'resp': 'button'}",1,396,B,62.775526058739615,33.63010547278762,3.138776302936981,0.5282604614637973,B,Correct,0.0,0.0,-45,45,797,-1,-1
"{'cat': 'RB', 'resp': 'button'}",1,397,A,40.1367603986526,21.816780244287983,2.00683801993263,0.3426971827021903,A,Correct,0.0,0.0,-45,45,496,-1,-1
"{'cat': 'RB', 'resp': 'button'}",1,398,A,36.06691800070202,30.76872372905842,1.8033459000351006,0.4833139821377194,A,Correct,0.0,0.0,-45,45,878,-1,-1
